onset	duration	eventnumber	condition	conditionlabel	istarget	presentationnumber	sequencenumber	stimC	stimL	stimR	streamnumber	stimnameL	stimnameR	stimnameC	response	rt	correct	time_stimon	time_stimoff	stimdur
44693	100	0	2	left-right	0	0	4	-1	-1	5	0		stim006_animate_bird_2.png	NaN	0	0	0	30.7321884364937	30.8321890947409	0.100000658247154
44893	100	1	2	left-right	0	1	4	-1	11	-1	0	stim012_animate_face_4.png		NaN	0	0	0	30.9321926787379	31.0321987008792	0.100006022141315
45093	100	2	2	left-right	0	2	4	-1	-1	40	0		tree_5_lower	NaN	0	0	0	31.1321915572626	31.2322078193538	0.100016262091231
45293	100	3	2	left-right	0	3	4	-1	18	-1	0	stim019_inanimate_tree_3.png		NaN	0	0	0	31.3322294452228	31.4321684197057	0.0999389744829386
45493	100	4	2	left-right	0	4	4	-1	9	-1	0	stim010_animate_face_2.png		NaN	0	0	0	31.5322100379854	31.6322089896421	0.0999989516567439
45693	100	5	2	left-right	0	5	4	-1	-1	3	0		stim004_animate_fish_4.png	NaN	0	0	0	31.7322052593227	31.8322149385931	0.100009679270443
45893	100	6	2	left-right	0	6	4	-1	25	-1	0	fish_2_lower_it		NaN	0	0	0	31.9322109645	32.0322133293957	0.100002364895772
46093	100	7	2	left-right	0	7	4	-1	-1	7	0		stim008_animate_bird_4.png	NaN	0	0	0	32.1322276410647	32.2322248860146	0.0999972449499182
46293	100	8	2	left-right	0	8	4	-1	20	-1	0	stim021_inanimate_tools_1.png		NaN	0	0	0	32.3322292014491	32.4322140120785	0.0999848106293939
46493	100	9	2	left-right	0	9	4	-1	-1	11	0		stim012_animate_face_4.png	NaN	0	0	0	32.5322346627363	32.6322380029596	0.100003340223338
46693	100	10	2	left-right	0	10	4	-1	-1	15	0		stim016_inanimate_boats_4.png	NaN	0	0	0	32.7322435374372	32.8322381004691	0.0999945630319417
46893	100	11	2	left-right	0	11	4	-1	39	-1	0	boat_7_upper_it		NaN	0	0	0	32.9322438787785	33.0322452684632	0.100001389684621
47093	100	12	2	left-right	0	12	4	-1	3	-1	0	stim004_animate_fish_4.png		NaN	0	0	0	33.1322339801118	33.232418470725	0.100184490613174
47293	100	13	2	left-right	0	13	4	-1	-1	43	0		tree_8_upper_it	NaN	0	0	0	33.3322591899778	33.4322610673262	0.100001877348404
47493	100	14	2	left-right	0	14	4	-1	22	-1	0	stim023_inanimate_tools_3.png		NaN	0	0	0	33.5322590437136	33.6322636029217	0.100004559208173
47693	100	15	2	left-right	0	15	4	-1	-1	47	0		tool_9_upper_it	NaN	0	0	0	33.7322666993132	33.8322639442631	0.0999972449499182
47893	100	16	2	left-right	0	16	4	-1	-1	36	0		boat_4_lower	NaN	0	0	0	33.9322672844864	34.0322811084916	0.100013824005146
48093	100	17	2	left-right	0	17	4	-1	21	-1	0	stim022_inanimate_tools_2.png		NaN	0	0	0	34.1322707952932	34.2322899831343	0.100019187841099
48293	100	18	2	left-right	0	18	4	-1	24	-1	0	fish_1_lower		NaN	0	0	0	34.3322862528148	34.4322725263773	0.0999862735625356
48493	100	19	2	left-right	0	19	4	-1	-1	45	0		tool_7_lower_it	NaN	0	0	0	34.5322880570311	34.6322806695825	0.0999926125514321
48693	100	20	2	left-right	0	20	4	-1	-1	13	0		stim014_inanimate_boats_2.png	NaN	0	0	0	34.7322918117279	34.8322853994905	0.099993587762583
48893	100	21	2	left-right	0	21	4	-1	32	-1	0	face_3_lower		NaN	0	0	0	34.9323011739762	35.032299881801	0.0999987078248523
49093	100	22	2	left-right	0	22	4	-1	40	-1	0	tree_5_lower		NaN	0	0	0	35.1322783534415	35.2323036364396	0.100025282998104
49293	100	23	2	left-right	0	23	4	-1	-1	9	0		stim010_animate_face_2.png	NaN	0	0	0	35.3323147785268	35.4323129987461	0.0999982202192768
49493	100	24	2	left-right	0	24	4	-1	-1	24	0		fish_1_lower	NaN	0	0	0	35.532307561778	35.63231260865	0.100005046871956
49693	100	25	2	left-right	0	25	4	-1	23	-1	0	stim024_inanimate_tools_4.png		NaN	0	0	0	35.7323037583847	35.8323205080815	0.100016749696806
49893	100	26	2	left-right	0	26	4	-1	-1	2	0		stim003_animate_fish_3.png	NaN	0	0	0	35.9323284806451	36.0323174360674	0.0999889554223046
50093	100	27	2	left-right	0	27	4	-1	37	-1	0	boat_5_lower_it		NaN	0	0	0	36.1323310162406	36.2323321621516	0.100001145910937
50293	100	28	2	left-right	0	28	4	-1	2	-1	0	stim003_animate_fish_3.png		NaN	0	0	0	36.3323328204569	36.4323393301456	0.100006509688683
50493	100	29	2	left-right	0	29	4	-1	-1	30	0		bird_4_upper	NaN	0	0	0	36.5323304798803	36.6323399153189	0.100009435438551
50693	100	30	2	left-right	0	30	4	-1	29	-1	0	bird_3_lower_it		NaN	0	0	0	36.7323425240465	36.8323370871367	0.0999945630901493
50893	100	31	2	left-right	0	31	4	-1	-1	14	0		stim015_inanimate_boats_3.png	NaN	0	0	0	36.9323567625252	37.0323513256153	0.0999945630901493
51093	100	32	2	left-right	NaN	32	4	-1	-1	46	0		tool_8_upper	NaN	0	0	0	37.1323558848235	37.2323572745663	0.100001389742829
51293	100	33	2	left-right	0	33	4	-1	30	-1	0	bird_4_upper		NaN	0	0	0	37.3323674413841	37.4323680996895	0.100000658305362
51493	100	34	2	left-right	0	34	4	-1	-1	31	0		bird_5_upper_it	NaN	1	0.392272165510803	1	37.532368514163	37.6323538124561	0.099985298293177
51693	100	35	2	left-right	0	35	4	-1	6	-1	0	stim007_animate_bird_3.png		NaN	0	0	0	37.7323747069458	37.8323646375793	0.0999899306334555
51893	100	36	2	left-right	0	36	4	-1	-1	4	0		stim005_animate_bird_1.png	NaN	0	0	0	37.9323755358928	38.0323818018078	0.100006265914999
52093	100	37	2	left-right	0	37	4	-1	47	-1	0	tool_9_upper_it		NaN	0	0	0	38.1323870924534	38.2323889698018	0.100001877348404
52293	100	38	2	left-right	0	38	4	-1	-1	17	0		stim018_inanimate_tree_2.png	NaN	0	0	0	38.3323801194783	38.4323771206546	0.0999970011762343
52493	100	39	2	left-right	0	39	4	-1	36	-1	0	boat_4_lower		NaN	0	0	0	38.5323926513083	38.6323940409929	0.100001389684621
52693	100	40	2	left-right	0	40	4	-1	-1	39	0		boat_7_upper_it	NaN	0	0	0	38.7324017697829	38.8323936509551	0.0999918811721727
52893	100	41	2	left-right	0	41	4	-1	27	-1	0	fish_4_upper_it		NaN	0	0	0	38.9324047930422	39.0324069141643	0.100002121122088
53093	100	42	2	left-right	0	42	4	-1	38	-1	0	boat_6_upper		NaN	0	0	0	39.1324087915127	39.2324452897883	0.100036498275585
53293	100	43	2	left-right	0	43	4	-1	-1	1	0		stim002_animate_fish_2.png	NaN	0	0	0	39.3324171785498	39.4324129606248	0.0999957820749842
53493	100	44	2	left-right	0	44	4	-1	-1	6	0		stim007_animate_bird_3.png	NaN	0	0	0	39.5324187389342	39.6324150086148	0.0999962696805596
53693	100	45	2	left-right	NaN	45	4	-1	10	-1	0	stim011_animate_face_3.png		NaN	0	0	0	39.7324322459754	39.8324258337962	0.0999935878207907
53893	100	46	2	left-right	0	46	4	-1	-1	28	0		bird_2_lower	NaN	0	0	0	39.9324182025157	40.0324317827472	0.100013580231462
54093	100	47	2	left-right	0	47	4	-1	4	-1	0	stim005_animate_bird_1.png		NaN	0	0	0	40.1324282962596	40.2324404135579	0.10001211729832
54293	100	48	2	left-right	0	48	4	-1	-1	33	0		face_4_lower_it	NaN	1	0.492862598970532	1	40.3324442413868	40.43244002352	0.0999957821331918
54493	100	49	2	left-right	0	49	4	-1	26	-1	0	fish_3_upper		NaN	0	0	0	40.5324392188923	40.6324323191075	0.0999931002152152
54693	100	50	2	left-right	0	50	4	-1	-1	44	0		tool_6_lower	NaN	0	0	0	40.7324298078893	40.8324602108914	0.100030403002165
54893	100	51	2	left-right	0	51	4	-1	7	-1	0	stim008_animate_bird_4.png		NaN	0	0	0	40.9324586749426	41.0324586017523	0.0999999268096872
55093	100	52	2	left-right	0	52	4	-1	-1	38	0		boat_6_upper	NaN	0	0	0	41.1324638924561	41.2324640630977	0.100000170641579
55293	100	53	2	left-right	0	53	4	-1	42	-1	0	tree_7_upper		NaN	0	0	0	41.3324571633129	41.4324951244635	0.10003796115052
55493	100	54	2	left-right	0	54	4	-1	-1	19	0		stim020_inanimate_tree_4.png	NaN	0	0	0	41.5324738398776	41.6324742543511	0.10000041447347
55693	100	55	2	left-right	0	55	4	-1	1	-1	0	stim002_animate_fish_2.png		NaN	0	0	0	41.7324763754732	41.8327271823073	0.100250806834083
55893	100	56	2	left-right	0	56	4	-1	-1	42	0		tree_7_upper	NaN	0	0	0	41.9324896387407	42.032486396085	0.0999967573443428
56093	100	57	2	left-right	0	57	4	-1	35	-1	0	face_6_upper_it		NaN	0	0	0	42.1324890048127	42.2324886878487	0.0999996830360033
56293	100	58	2	left-right	0	58	4	-1	8	-1	0	stim009_animate_face_1.png		NaN	0	0	0	42.3324981232872	42.4324882977526	0.0999901744653471
56493	100	59	2	left-right	0	59	4	-1	-1	32	0		face_3_lower	NaN	0	0	0	42.532487493183	42.632499122934	0.100011629750952
56693	100	60	2	left-right	0	60	4	-1	-1	12	0		stim013_inanimate_boats_1.png	NaN	0	0	0	42.7325029507047	42.8325287213665	0.100025770661887
56893	100	61	2	left-right	0	61	4	-1	31	-1	0	bird_5_upper_it		NaN	0	0	0	42.9325025606086	43.0325129713165	0.10001041070791
57093	100	62	2	left-right	0	62	4	-1	-1	8	0		stim009_animate_face_1.png	NaN	0	0	0	43.1325138733955	43.2325064859469	0.0999926125514321
57293	100	63	2	left-right	0	63	4	-1	17	-1	0	stim018_inanimate_tree_2.png		NaN	0	0	0	43.3325246985187	43.4325226749061	0.0999979763873853
57493	100	64	2	left-right	0	64	4	-1	28	-1	0	bird_2_lower		NaN	0	0	0	43.5325262589031	43.6324715724331	0.0999453135300428
57693	100	65	2	left-right	0	65	4	-1	-1	23	0		stim024_inanimate_tools_4.png	NaN	0	0	0	43.7325244059321	43.8325296966359	0.100005290703848
57893	100	66	2	left-right	0	66	4	-1	-1	35	0		face_6_upper_it	NaN	0	0	0	43.9325408387231	44.032544666552	0.100003827828914
58094	100	67	2	left-right	0	67	4	-1	12	-1	0	stim013_inanimate_boats_1.png		NaN	0	0	0	44.1325484943227	44.232545251667	0.0999967573443428
58294	100	68	2	left-right	0	68	4	-1	-1	29	0		bird_3_lower_it	NaN	0	0	0	44.3325468851835	44.432549981575	0.100003096391447
58494	100	69	2	left-right	0	69	4	-1	33	-1	0	face_4_lower_it		NaN	0	0	0	44.5325560036581	44.6325464219553	0.0999904182972386
58694	100	70	2	left-right	0	70	4	-1	-1	10	0		stim011_animate_face_3.png	NaN	0	0	0	44.732560977398	44.8325545652187	0.0999935878207907
58894	100	71	2	left-right	0	71	4	-1	0	-1	0	stim001_animate_fish_1.png		NaN	0	0	0	44.9325652196421	45.0325585636892	0.0999933440471068
59094	100	72	2	left-right	0	72	4	-1	-1	34	0		face_5_upper	NaN	0	0	0	45.1325370352715	45.2325740212109	0.100036985939369
59294	100	73	2	left-right	0	73	4	-1	15	-1	0	stim016_inanimate_boats_4.png		NaN	0	0	0	45.3325768737704	45.4325782634551	0.100001389684621
59494	100	74	2	left-right	0	74	4	-1	-1	20	0		stim021_inanimate_tools_1.png	NaN	0	0	0	45.5325699007954	45.6325651952648	0.0999952944694087
59694	100	75	2	left-right	0	75	4	-1	14	-1	0	stim015_inanimate_boats_3.png		NaN	0	0	0	45.7325768250157	45.8325857727905	0.100008947774768
59894	100	76	2	left-right	NaN	76	4	-1	-1	25	0		fish_2_lower_it	NaN	0	0	0	45.9325817986974	46.0325914779678	0.100009679270443
60094	100	77	2	left-right	0	77	4	-1	5	-1	0	stim006_animate_bird_2.png		NaN	0	0	0	46.1325987190939	46.232580360258	0.0999816411640495
60294	100	78	2	left-right	0	78	4	-1	-1	26	0		fish_3_upper	NaN	1	0.392266557901166	1	46.3326110070921	46.4325960615533	0.0999850544612855
60494	100	79	2	left-right	0	79	4	-1	19	-1	0	stim020_inanimate_tree_4.png		NaN	0	0	0	46.5326050093863	46.6326078619459	0.100002852559555
60694	100	80	2	left-right	0	80	4	-1	-1	0	0		stim001_animate_fish_1.png	NaN	0	0	0	46.7326136402553	46.8326004013652	0.0999867611099035
60894	100	81	2	left-right	0	81	4	-1	34	-1	0	face_5_upper		NaN	0	0	0	46.9326176387258	47.0326009865385	0.0999833478126675
61094	100	82	2	left-right	0	82	4	-1	16	-1	0	stim017_inanimate_tree_1.png		NaN	0	0	0	47.1326238314505	47.2326183945406	0.0999945630901493
61294	100	83	2	left-right	0	83	4	-1	-1	41	0		tree_6_lower_it	NaN	0	0	0	47.3326049118768	47.4326292196638	0.100024307786953
61494	100	84	2	left-right	0	84	4	-1	43	-1	0	tree_8_upper_it		NaN	0	0	0	47.5326342665358	47.6326322429231	0.0999979763873853
61694	100	85	2	left-right	0	85	4	-1	-1	27	0		fish_4_upper_it	NaN	0	0	0	47.7326292440412	47.8326372166048	0.100007972563617
61894	100	86	2	left-right	0	86	4	-1	45	-1	0	tool_7_lower_it		NaN	0	0	0	47.9326481149183	48.0326499922085	0.100001877290197
62094	100	87	2	left-right	0	87	4	-1	-1	16	0		stim017_inanimate_tree_1.png	NaN	0	0	0	48.1326528448262	48.2326505773817	0.0999977325554937
62294	100	88	2	left-right	0	88	4	-1	13	-1	0	stim014_inanimate_boats_2.png		NaN	0	0	0	48.3326492852066	48.4326489682426	0.0999996830360033
62494	100	89	2	left-right	0	89	4	-1	-1	22	0		stim023_inanimate_tools_3.png	NaN	0	0	0	48.5326625484158	48.6326656448073	0.100003096391447
62694	100	90	2	left-right	0	90	4	-1	-1	18	0		stim019_inanimate_tree_3.png	NaN	0	0	0	48.7326675221557	48.8326381918741	0.0999706697184592
62894	100	91	2	left-right	0	91	4	-1	44	-1	0	tool_6_lower		NaN	0	0	0	48.9326717643999	49.0326694970136	0.0999977326137014
63094	100	92	2	left-right	0	92	4	-1	-1	21	0		stim022_inanimate_tools_2.png	NaN	0	0	0	49.1326747876592	49.2326754459646	0.100000658305362
63294	100	93	2	left-right	0	93	4	-1	41	-1	0	tree_6_lower_it		NaN	0	0	0	49.3326802490046	49.4326731053879	0.0999928563833237
63494	100	94	2	left-right	0	94	4	-1	-1	37	0		boat_5_lower_it	NaN	0	0	0	49.5326874169987	49.6326853933861	0.0999979763873853
63694	100	95	2	left-right	0	95	4	-1	46	-1	0	tool_8_upper		NaN	0	0	0	49.7326909278636	49.8326886604191	0.0999977325554937
63894	100	96	2	left-right	0	96	4	-1	-1	38	0		boat_6_upper	NaN	0	0	0	49.9326951701078	50.0326950969757	0.0999999268678948
64094	100	97	2	left-right	0	97	4	-1	42	-1	0	tree_7_upper		NaN	0	0	0	50.1327091648127	50.2327010459267	0.0999918811139651
64294	100	98	2	left-right	0	98	4	-1	-1	22	0		stim023_inanimate_tools_3.png	NaN	0	0	0	50.3327007289627	50.4327126024873	0.100011873524636
64494	100	99	2	left-right	NaN	99	4	-1	26	-1	0	fish_3_upper		NaN	0	0	0	50.5327044836595	50.6327180638327	0.100013580173254
64694	100	100	2	left-right	0	100	4	-1	39	-1	0	boat_7_upper_it		NaN	0	0	0	50.7327138459077	50.8326818337664	0.0999679878586903
64894	100	101	2	left-right	0	101	4	-1	-1	43	0		tree_8_upper_it	NaN	1	0.392293133132625	1	50.9327112615574	51.032721916039	0.100010654481594
65094	100	102	2	left-right	0	102	4	-1	46	-1	0	tool_8_upper		NaN	0	0	0	51.1327303762082	51.2327203068999	0.0999899306916632
65294	100	103	2	left-right	0	103	4	-1	-1	24	0		fish_1_lower	NaN	0	0	0	51.332732911862	51.4327250368078	0.0999921249458566
65494	100	104	2	left-right	0	104	4	-1	4	-1	0	stim005_animate_bird_1.png		NaN	0	0	0	51.5327247198438	51.632738543849	0.100013824005146
65694	100	105	2	left-right	0	105	4	-1	-1	28	0		bird_2_lower	NaN	0	0	0	51.7327445659321	51.8327359594405	0.0999913935083896
65894	100	106	2	left-right	0	106	4	-1	-1	41	0		tree_6_lower_it	NaN	0	0	0	51.9327119929949	52.0327348379069	0.100022844912019
66094	100	107	2	left-right	0	107	4	-1	2	-1	0	stim003_animate_fish_3.png		NaN	0	0	0	52.1327547571855	52.2327529773465	0.0999982201610692
66294	100	108	2	left-right	0	108	4	-1	31	-1	0	bird_5_upper_it		NaN	0	0	0	52.3327867937624	52.432766240614	0.0999794468516484
66494	100	109	2	left-right	0	109	4	-1	-1	44	0		tool_6_lower	NaN	0	0	0	52.5327598283766	52.6327665819554	0.100006753578782
66694	100	110	2	left-right	0	110	4	-1	13	-1	0	stim014_inanimate_boats_2.png		NaN	0	0	0	52.7327570001944	52.8327732622856	0.100016262091231
66894	100	111	2	left-right	0	111	4	-1	-1	7	0		stim008_animate_bird_4.png	NaN	0	0	0	52.9327807472437	53.0327816493809	0.100000902137253
67094	100	112	2	left-right	0	112	4	-1	-1	22	0		stim023_inanimate_tools_3.png	NaN	0	0	0	53.1327642657561	53.2327534649521	0.0999891991959885
67294	100	113	2	left-right	0	113	4	-1	32	-1	0	face_3_lower		NaN	0	0	0	53.332758755656	53.4327586825239	0.0999999268678948
67494	100	114	2	left-right	0	114	4	-1	41	-1	0	tree_6_lower_it		NaN	0	0	0	53.5327642170014	53.6327626809943	0.0999984639929608
67694	100	115	2	left-right	0	115	4	-1	-1	2	0		stim003_animate_fish_3.png	NaN	0	0	0	53.7327687030775	53.8327686299453	0.0999999268678948
67894	100	116	2	left-right	0	116	4	-1	-1	35	0		face_6_upper_it	NaN	0	0	0	53.932777821552	54.0327728721895	0.0999950506375171
68094	100	117	2	left-right	0	117	4	-1	46	-1	0	tool_8_upper		NaN	0	0	0	54.1327815761906	54.2328002764261	0.100018700235523
68294	100	118	2	left-right	0	118	4	-1	45	-1	0	tool_7_lower_it		NaN	0	0	0	54.3328350679949	54.432815246284	0.0999801782891154
68494	100	119	2	left-right	0	119	4	-1	-1	24	0		fish_1_lower	NaN	0	0	0	54.5328217560309	54.6328133933712	0.0999916373402812
68694	100	120	2	left-right	0	120	4	-1	-1	5	0		stim006_animate_bird_2.png	NaN	0	0	0	54.7328194154543	54.8328159289667	0.0999965135124512
68894	100	121	2	left-right	0	121	4	-1	39	-1	0	boat_7_upper_it		NaN	0	0	0	54.9328231700929	55.0328274855274	0.100004315434489
69094	100	122	2	left-right	0	122	4	-1	-1	31	0		bird_5_upper_it	NaN	0	0	0	55.1328322885674	55.2328288021381	0.0999965135706589
69294	100	123	2	left-right	0	123	4	-1	23	-1	0	stim024_inanimate_tools_4.png		NaN	0	0	0	55.3328418947058	55.4328262177296	0.0999843230238184
69494	100	124	2	left-right	NaN	124	4	-1	16	-1	0	stim017_inanimate_tree_1.png		NaN	0	0	0	55.5328446741332	55.6328472828609	0.100002608727664
69694	100	125	2	left-right	0	125	4	-1	-1	36	0		boat_4_lower	NaN	0	0	0	55.7328552554245	55.8328507937258	0.0999955383013003
69894	100	126	2	left-right	0	126	4	-1	16	-1	0	stim017_inanimate_tree_1.png		NaN	1	0.392287037917413	1	55.9328577910783	56.0328582055517	0.10000041447347
70094	100	127	2	left-right	0	127	4	-1	-1	30	0		bird_4_upper	NaN	0	0	0	56.1328632523655	56.2328641545027	0.100000902137253
70294	100	128	2	left-right	0	128	4	-1	-1	33	0		face_4_lower_it	NaN	0	0	0	56.3328682261053	56.4328691281844	0.100000902079046
70494	100	129	2	left-right	0	129	4	-1	29	-1	0	bird_3_lower_it		NaN	0	0	0	56.5328778321855	56.6328633743105	0.0999855421250686
70694	100	130	2	left-right	0	130	4	-1	-1	12	0		stim013_inanimate_boats_1.png	NaN	0	0	0	56.7328810992185	56.832886633696	0.100005534477532
70894	100	131	2	left-right	0	131	4	-1	6	-1	0	stim007_animate_bird_3.png		NaN	0	0	0	56.9328860729584	57.0328840493457	0.0999979763873853
71094	100	132	2	left-right	0	132	4	-1	-1	25	0		fish_2_lower_it	NaN	0	0	0	57.1328893399914	57.2328929239884	0.100003583997022
71294	100	133	2	left-right	0	133	4	-1	9	-1	0	stim010_animate_face_2.png		NaN	0	0	0	57.3328926070826	57.432884000591	0.0999913935083896
71494	100	134	2	left-right	0	134	4	-1	-1	42	0		tree_7_upper	NaN	0	0	0	57.5328851465019	57.6328858047491	0.100000658247154
71694	100	135	2	left-right	0	135	4	-1	9	-1	0	stim010_animate_face_2.png		NaN	0	0	0	57.7328984097112	57.8328800508752	0.0999816411640495
71894	100	136	2	left-right	0	136	4	-1	-1	15	0		stim016_inanimate_boats_4.png	NaN	0	0	0	57.9328841224778	58.0328903883928	0.100006265914999
72094	100	137	2	left-right	0	137	4	-1	21	-1	0	stim022_inanimate_tools_2.png		NaN	0	0	0	58.1328895838233	58.2329031639965	0.100013580173254
72294	100	138	2	left-right	0	138	4	-1	14	-1	0	stim015_inanimate_boats_3.png		NaN	0	0	0	58.3328962642117	58.4329022862948	0.100006022083107
72494	100	139	2	left-right	0	139	4	-1	-1	34	0		face_5_upper	NaN	0	0	0	58.5329061141238	58.6329036028474	0.0999974887236021
72694	100	140	2	left-right	0	140	4	-1	-1	10	0		stim011_animate_face_3.png	NaN	0	0	0	58.7329064554069	58.8329227175564	0.100016262149438
72894	100	141	2	left-right	0	141	4	-1	36	-1	0	boat_4_lower		NaN	0	0	0	58.9329155738815	59.0329113560147	0.0999957821331918
73094	100	142	2	left-right	0	142	4	-1	-1	28	0		bird_2_lower	NaN	0	0	0	59.1329173780978	59.2329282764113	0.100010898313485
73294	100	143	2	left-right	0	143	4	-1	7	-1	0	stim008_animate_bird_4.png		NaN	0	0	0	59.3329238146544	59.4329295929638	0.100005778309423
73494	100	144	2	left-right	0	144	4	-1	-1	34	0		face_5_upper	NaN	0	0	0	59.5329816950252	59.6329387114383	0.0999570164131001
73694	100	145	2	left-right	0	145	4	-1	35	-1	0	face_6_upper_it		NaN	0	0	0	59.7329681392293	59.8329590451322	0.0999909059028141
73894	100	146	2	left-right	0	146	4	-1	-1	19	0		stim020_inanimate_tree_4.png	NaN	0	0	0	59.9329645796097	60.0329647503095	0.100000170699786
74094	100	147	2	left-right	0	147	4	-1	13	-1	0	stim014_inanimate_boats_2.png		NaN	0	0	0	60.1329488295014	60.2329682611162	0.100019431614783
74294	100	148	2	left-right	0	148	4	-1	-1	18	0		stim019_inanimate_tree_3.png	NaN	0	0	0	60.3329803784727	60.4329761605477	0.0999957820749842
74494	100	149	2	left-right	0	149	4	-1	47	-1	0	tool_9_upper_it		NaN	0	0	0	60.5329765750212	60.6329821094987	0.100005534477532
74694	100	150	2	left-right	0	150	4	-1	-1	3	0		stim004_animate_fish_4.png	NaN	0	0	0	60.7329832554096	60.8329563632142	0.0999731078045443
74894	100	151	2	left-right	0	151	4	-1	37	-1	0	boat_5_lower_it		NaN	0	0	0	60.9329952996341	61.0329908378772	0.0999955382430926
75094	100	152	2	left-right	NaN	152	4	-1	-1	0	0		stim001_animate_fish_1.png	NaN	0	0	0	61.1329990542727	61.2330094649224	0.100010410649702
75294	100	153	2	left-right	0	153	4	-1	40	-1	0	tree_5_lower		NaN	0	0	0	61.3329976889654	61.4330012729624	0.100003583997022
75494	100	154	2	left-right	0	154	4	-1	20	-1	0	stim021_inanimate_tools_1.png		NaN	1	0.392316051234957	1	61.5330077826511	61.6329935685499	0.0999857858987525
75694	100	155	2	left-right	0	155	4	-1	-1	27	0		fish_4_upper_it	NaN	0	0	0	61.7330169011257	61.8329978108522	0.0999809097265825
75894	100	156	2	left-right	0	156	4	-1	-1	47	0		tool_9_upper_it	NaN	0	0	0	61.933023825346	62.033016925503	0.0999931001570076
76094	100	157	2	left-right	0	157	4	-1	33	-1	0	face_4_lower_it		NaN	0	0	0	62.1330224599806	62.2330092211487	0.0999867611681111
76294	100	158	2	left-right	0	158	4	-1	-1	19	0		stim020_inanimate_tree_4.png	NaN	0	0	0	62.3330276774941	62.4329703091644	0.0999426316702738
76494	100	159	2	left-right	0	159	4	-1	18	-1	0	stim019_inanimate_tree_3.png		NaN	0	0	0	62.5330182664911	62.6330357476254	0.100017481134273
76694	100	160	2	left-right	0	160	4	-1	45	-1	0	tool_7_lower_it		NaN	0	0	0	62.7330395753961	62.8330607137177	0.100021138321608
76894	100	161	2	left-right	0	161	4	-1	-1	8	0		stim009_animate_face_1.png	NaN	0	0	0	62.933043086261	63.0330181445461	0.0999750582850538
77094	100	162	2	left-right	0	162	4	-1	-1	10	0		stim011_animate_face_3.png	NaN	0	0	0	63.1330497666495	63.2330372592551	0.0999874926055782
77294	100	163	2	left-right	0	163	4	-1	23	-1	0	stim024_inanimate_tools_4.png		NaN	0	0	0	63.3330571784754	63.4330575929489	0.10000041447347
77494	100	164	2	left-right	0	164	4	-1	-1	17	0		stim018_inanimate_tree_2.png	NaN	0	0	0	63.5330584950279	63.6330503762001	0.0999918811721727
77694	100	165	2	left-right	0	165	4	-1	11	-1	0	stim012_animate_face_4.png		NaN	0	0	0	63.733072245901	63.833553452685	0.100481206784025
77894	100	166	2	left-right	0	166	4	-1	-1	29	0		bird_3_lower_it	NaN	0	0	0	63.9330711243674	64.033071295009	0.100000170641579
78094	100	167	2	left-right	0	167	4	-1	43	-1	0	tree_8_upper_it		NaN	0	0	0	64.1330514732981	64.233061884006	0.10001041070791
78294	100	168	2	left-right	0	168	4	-1	-1	15	0		stim016_inanimate_boats_4.png	NaN	0	0	0	64.3330837537069	64.4330802672193	0.0999965135124512
78494	100	169	2	left-right	0	169	4	-1	38	-1	0	boat_6_upper		NaN	0	0	0	64.5330480112461	64.6330845095217	0.100036498275585
78694	100	170	2	left-right	0	170	4	-1	-1	6	0		stim007_animate_bird_3.png	NaN	0	0	0	64.733091506816	64.833078511816	0.0999870050000027
78894	100	171	2	left-right	0	171	4	-1	40	-1	0	tree_5_lower		NaN	0	0	0	64.9330713681993	65.0330720264465	0.100000658247154
79094	100	172	2	left-right	0	172	4	-1	-1	12	0		stim013_inanimate_boats_1.png	NaN	0	0	0	65.1330760981073	65.2330794382724	0.100003340165131
79294	100	173	2	left-right	0	173	4	-1	30	-1	0	bird_4_upper		NaN	0	0	0	65.3330839974806	65.4330829491373	0.0999989516567439
79494	100	174	2	left-right	0	174	4	-1	-1	3	0		stim004_animate_fish_4.png	NaN	0	0	0	65.5330879960093	65.6331327838125	0.100044787803199
79694	100	175	2	left-right	0	175	4	-1	5	-1	0	stim006_animate_bird_2.png		NaN	0	0	0	65.7331095487461	65.8331019175239	0.0999923687777482
79894	100	176	2	left-right	0	176	4	-1	-1	32	0		face_3_lower	NaN	0	0	0	65.9331084272126	66.0331532150158	0.100044787803199
80094	100	177	2	left-right	0	177	4	-1	0	-1	0	stim001_animate_fish_1.png		NaN	0	0	0	66.1331199837732	66.2331155220745	0.0999955383013003
80294	100	178	2	left-right	0	178	4	-1	37	-1	0	boat_5_lower_it		NaN	0	0	0	66.3331271517673	66.4331070862827	0.0999799345154315
80494	100	179	2	left-right	0	179	4	-1	-1	17	0		stim018_inanimate_tree_2.png	NaN	0	0	0	66.5331131083658	66.6331252257223	0.100012117356528
80694	100	180	2	left-right	0	180	4	-1	1	-1	0	stim002_animate_fish_2.png		NaN	0	0	0	66.7331288097193	66.8331309308414	0.100002121122088
80894	100	181	2	left-right	0	181	4	-1	-1	11	0		stim012_animate_face_4.png	NaN	0	0	0	66.933136465319	67.0331356607494	0.0999991954304278
81094	100	182	2	left-right	0	182	4	-1	4	-1	0	stim005_animate_bird_1.png		NaN	0	0	0	67.133143633313	67.2331550192321	0.100011385919061
81294	100	183	2	left-right	0	183	4	-1	-1	1	0		stim002_animate_fish_2.png	NaN	0	0	0	67.3331347098574	67.4331319548073	0.0999972449499182
81494	100	184	2	left-right	0	184	4	-1	44	-1	0	tool_6_lower		NaN	0	0	0	67.5331360264681	67.6331379038165	0.100001877348404
81694	100	185	2	left-right	0	185	4	-1	-1	26	0		fish_3_upper	NaN	0	0	0	67.7331463639857	67.833159944159	0.100013580173254
81894	100	186	2	left-right	0	186	4	-1	-1	20	0		stim021_inanimate_tools_1.png	NaN	0	0	0	67.933144267241	68.0331473635742	0.100003096333239
82094	100	187	2	left-right	0	187	4	-1	21	-1	0	stim022_inanimate_tools_2.png		NaN	0	0	0	68.1331541170948	68.2331903715967	0.100036254501902
82294	100	188	2	left-right	0	188	4	-1	-1	25	0		fish_2_lower_it	NaN	0	0	0	68.3331963936798	68.433189493895	0.0999931002152152
82494	100	189	2	left-right	0	189	4	-1	27	-1	0	fish_4_upper_it		NaN	0	0	0	68.5331686969148	68.633191541885	0.100022844970226
82694	100	190	2	left-right	0	190	4	-1	-1	8	0		stim009_animate_face_1.png	NaN	0	0	0	68.7332002458861	68.833190907957	0.0999906620709226
82894	100	191	2	left-right	0	191	4	-1	14	-1	0	stim015_inanimate_boats_3.png		NaN	0	0	0	68.9332027814817	69.0332051464356	0.10000236495398
88544	100	192	2	left-right	0	0	2	-1	42	-1	1	tree_7_upper		NaN	0	0	0	74.5833556622383	74.6833536386257	0.0999979763873853
88744	100	193	2	left-right	0	1	2	-1	-1	18	1		stim019_inanimate_tree_3.png	NaN	0	0	0	74.7833501521382	74.8833510542172	0.100000902079046
88944	100	194	2	left-right	0	2	2	-1	26	-1	1	fish_3_upper		NaN	0	0	0	74.9833553696517	75.0833540774765	0.0999987078248523
89144	100	195	2	left-right	0	3	2	-1	-1	30	1		bird_4_upper	NaN	0	0	0	75.1833542481181	75.2833622207399	0.100007972621825
89344	100	196	2	left-right	0	4	2	-1	-1	19	1		stim020_inanimate_tree_4.png	NaN	0	0	0	75.3833758009132	75.4833584172884	0.0999826163752005
89544	100	197	2	left-right	0	5	2	-1	27	-1	1	fish_4_upper_it		NaN	0	0	0	75.5833810184267	75.6833755814587	0.0999945630319417
89744	100	198	2	left-right	0	6	2	-1	-1	42	1		tree_7_upper	NaN	0	0	0	75.7833872112096	75.8833925018553	0.10000529064564
89944	100	199	2	left-right	0	7	2	-1	28	-1	1	bird_2_lower		NaN	0	0	0	75.9833977925009	76.0833921117592	0.0999943192582577
90144	100	200	2	left-right	0	8	2	-1	-1	2	1		stim003_animate_fish_3.png	NaN	0	0	0	76.1833942328813	76.2833900150144	0.0999957821331918
90344	100	201	2	left-right	0	9	2	-1	10	-1	1	stim011_animate_face_3.png		NaN	0	0	0	76.3834021323128	76.4833923067781	0.0999901744653471
90544	100	202	2	left-right	0	10	2	-1	-1	36	1		boat_4_lower	NaN	0	0	0	76.5834085688693	76.6833785072085	0.0999699383391999
90744	100	203	2	left-right	0	11	2	-1	33	-1	1	face_4_lower_it		NaN	0	0	0	76.7834115921287	76.8834161513951	0.100004559266381
90944	100	204	2	left-right	0	12	2	-1	6	-1	1	stim007_animate_bird_3.png		NaN	0	0	0	76.9834155905992	77.083420881303	0.100005290703848
91144	100	205	2	left-right	0	13	2	-1	-1	8	1		stim009_animate_face_1.png	NaN	0	0	0	77.1834227585932	77.2834314625943	0.100008704001084
91344	100	206	2	left-right	0	14	2	-1	44	-1	1	tool_6_lower		NaN	0	0	0	77.3834318770678	77.4834274153691	0.0999955383013003
91544	100	207	2	left-right	0	15	2	-1	-1	34	1		face_5_upper	NaN	0	0	0	77.5834336812841	77.6834316576715	0.0999979763873853
91744	100	208	2	left-right	0	16	2	-1	43	-1	1	tree_8_upper_it		NaN	0	0	0	77.7834250016604	77.8834483342362	0.100023332575802
91944	100	209	2	left-right	0	17	2	-1	-1	26	1		fish_3_upper	NaN	0	0	0	77.9834370458266	78.083440142218	0.100003096391447
92144	100	210	2	left-right	0	18	2	-1	-1	20	1		stim021_inanimate_tools_1.png	NaN	0	0	0	78.183446408133	78.2834458473953	0.0999994392623194
92344	100	211	2	left-right	0	19	2	-1	24	-1	1	fish_1_lower		NaN	0	0	0	78.383458939963	78.4834554534755	0.0999965135124512
92544	100	212	2	left-right	0	20	2	-1	34	-1	1	face_5_upper		NaN	0	0	0	78.5834551365115	78.6834692042903	0.100014067778829
92744	100	213	2	left-right	0	21	2	-1	-1	41	1		tree_6_lower_it	NaN	0	0	0	78.7834732759511	78.8834736904246	0.10000041447347
92944	100	214	2	left-right	0	22	2	-1	47	-1	1	tool_9_upper_it		NaN	0	0	0	78.9834563067998	79.0834552583983	0.0999989515985362
93144	100	215	2	left-right	0	23	2	-1	-1	40	1		tree_5_lower	NaN	0	0	0	79.1834605491022	79.2834980225889	0.100037473486736
93344	100	216	2	left-right	0	24	2	-1	12	-1	1	stim013_inanimate_boats_1.png		NaN	0	0	0	79.3834684485337	79.4834827601444	0.100014311610721
93544	100	217	2	left-right	0	25	2	-1	-1	27	1		fish_4_upper_it	NaN	0	0	0	79.5834858565358	79.6834940728731	0.100008216337301
93744	100	218	2	left-right	0	26	2	-1	-1	1	1		stim002_animate_fish_2.png	NaN	0	0	0	79.7834757140372	79.8834763723426	0.100000658305362
93944	100	219	2	left-right	0	27	2	-1	2	-1	1	stim003_animate_fish_3.png		NaN	0	0	0	79.9834826381993	80.0834611098398	0.0999784716404974
94144	100	220	2	left-right	0	28	2	-1	-1	5	1		stim006_animate_bird_2.png	NaN	0	0	0	80.183505897643	80.2835036301985	0.0999977325554937
94344	100	221	2	left-right	0	29	2	-1	46	-1	1	tool_8_upper		NaN	0	0	0	80.383476981835	80.4834922687151	0.10001528688008
94544	100	222	2	left-right	0	30	2	-1	-1	23	1		stim024_inanimate_tools_4.png	NaN	0	0	0	80.5835109688924	80.6835140652838	0.100003096391447
94744	100	223	2	left-right	0	31	2	-1	36	-1	1	boat_4_lower		NaN	0	0	0	80.7835347159416	80.8835231837584	0.0999884678167291
94944	100	224	2	left-right	0	32	2	-1	41	-1	1	tree_6_lower_it		NaN	0	0	0	80.9835179906222	81.0835247441428	0.100006753520574
95144	100	225	2	left-right	0	33	2	-1	-1	14	1		stim015_inanimate_boats_3.png	NaN	0	0	0	81.1835171128623	81.2835343502229	0.100017237360589
95344	100	226	2	left-right	0	34	2	-1	-1	43	1		tree_8_upper_it	NaN	0	0	0	81.3835408599116	81.4835242077243	0.0999833478126675
95544	100	227	2	left-right	0	35	2	-1	25	-1	1	fish_2_lower_it		NaN	0	0	0	81.5835285231587	81.6835433224333	0.100014799274504
95744	100	228	2	left-right	0	36	2	-1	45	-1	1	tool_7_lower_it		NaN	0	0	0	81.78354958829	81.8835458580288	0.0999962697387673
95944	100	229	2	left-right	0	37	2	-1	-1	17	1		stim018_inanimate_tree_2.png	NaN	0	0	0	81.983550417237	82.0835444926633	0.0999940754263662
96144	100	230	2	left-right	0	38	2	-1	-1	4	1		stim005_animate_bird_1.png	NaN	0	0	0	82.1835390557535	82.2835614130599	0.100022357306443
96344	100	231	2	left-right	0	39	2	-1	7	-1	1	stim008_animate_bird_4.png		NaN	0	0	0	82.3835645094514	82.4835749201011	0.100010410649702
96544	100	232	2	left-right	0	40	2	-1	4	-1	1	stim005_animate_bird_1.png		NaN	0	0	0	82.5835592431831	82.6835603890941	0.100001145910937
96744	100	233	2	left-right	0	41	2	-1	-1	44	1		tool_6_lower	NaN	0	0	0	82.7835698244744	82.8835575608537	0.0999877363792621
96944	100	234	2	left-right	0	42	2	-1	8	-1	1	stim009_animate_face_1.png		NaN	0	0	0	82.9835813810932	83.0835796012543	0.0999982201610692
97144	100	235	2	left-right	0	43	2	-1	-1	11	1		stim012_animate_face_4.png	NaN	0	0	0	83.1835583166685	83.283574334986	0.100016018317547
97344	100	236	2	left-right	0	44	2	-1	13	-1	1	stim014_inanimate_boats_2.png		NaN	0	0	0	83.3835869399481	83.4835810153745	0.0999940754263662
97544	100	237	2	left-right	0	45	2	-1	-1	3	1		stim004_animate_fish_4.png	NaN	0	0	0	83.5835811860161	83.6835937909782	0.100012604962103
97744	100	238	2	left-right	0	46	2	-1	16	-1	1	stim017_inanimate_tree_1.png		NaN	0	0	0	83.7835971311433	83.8835990084917	0.100001877348404
97944	100	239	2	left-right	0	47	2	-1	-1	35	1		face_6_upper_it	NaN	0	0	0	83.9836079563247	84.0836049574427	0.0999970011180267
98144	100	240	2	left-right	0	48	2	-1	32	-1	1	face_3_lower		NaN	0	0	0	84.1835995204747	84.2836018854287	0.10000236495398
98344	100	241	2	left-right	0	49	2	-1	-1	25	1		fish_2_lower_it	NaN	0	0	0	84.3836132713477	84.4836144172587	0.100001145910937
98544	100	242	2	left-right	0	50	2	-1	20	-1	1	stim021_inanimate_tools_1.png		NaN	0	0	0	84.5836401879205	84.6835923281033	0.0999521401827224
98744	100	243	2	left-right	0	51	2	-1	-1	15	1		stim016_inanimate_boats_4.png	NaN	0	0	0	84.7836278511677	84.8836270465981	0.0999991954304278
98944	100	244	2	left-right	0	52	2	-1	-1	22	1		stim023_inanimate_tools_3.png	NaN	0	0	0	84.9836303867633	85.0836186107481	0.0999882239848375
99144	100	245	2	left-right	NaN	53	2	-1	21	-1	1	stim022_inanimate_tools_2.png		NaN	0	0	0	85.1836421871558	85.2836265101796	0.0999843230238184
99344	100	246	2	left-right	0	54	2	-1	35	-1	1	face_6_upper_it		NaN	0	0	0	85.3836422846653	85.4836422115332	0.0999999268678948
99544	100	247	2	left-right	0	55	2	-1	-1	13	1		stim014_inanimate_boats_2.png	NaN	1	0.392275822698139	1	85.5836445764871	85.6836503547966	0.100005778309423
99744	100	248	2	left-right	0	56	2	-1	3	-1	1	stim004_animate_fish_4.png		NaN	0	0	0	85.7836317521287	85.8836526465602	0.100020894431509
99944	100	249	2	left-right	0	57	2	-1	-1	12	1		stim013_inanimate_boats_1.png	NaN	0	0	0	85.9836552553461	86.0836568888626	0.100001633516513
100144	100	250	2	left-right	0	58	2	-1	-1	6	1		stim007_animate_bird_3.png	NaN	0	0	0	86.1836685185554	86.2836538168485	0.099985298293177
100345	100	251	2	left-right	0	59	2	-1	37	-1	1	boat_5_lower_it		NaN	0	0	0	86.3836420408916	86.483642455365	0.10000041447347
100544	100	252	2	left-right	0	60	2	-1	31	-1	1	bird_5_upper_it		NaN	0	0	0	86.5836475021788	86.6836654709768	0.100017968798056
100745	100	253	2	left-right	0	61	2	-1	-1	45	1		tool_7_lower_it	NaN	0	0	0	86.7836849025916	86.8836799532291	0.0999950506375171
100944	100	254	2	left-right	0	62	2	-1	9	-1	1	stim010_animate_face_2.png		NaN	0	0	0	86.983682562015	87.0836873650551	0.100004803040065
101145	100	255	2	left-right	0	63	2	-1	-1	29	1		bird_3_lower_it	NaN	0	0	0	87.1836931433645	87.2836608873331	0.0999677439685911
101345	100	256	2	left-right	0	64	2	-1	0	-1	1	stim001_animate_fish_1.png		NaN	0	0	0	87.3836922656046	87.4836990191252	0.100006753520574
101545	100	257	2	left-right	0	65	2	-1	-1	33	1		face_4_lower_it	NaN	0	0	0	87.5836833422072	87.6836991166929	0.100015774485655
101745	100	258	2	left-right	0	66	2	-1	-1	39	1		boat_7_upper_it	NaN	0	0	0	87.783705138776	87.8836921437178	0.099987004941795
101945	100	259	2	left-right	0	67	2	-1	11	-1	1	stim012_animate_face_4.png		NaN	0	0	0	87.9837086496409	88.0836766374414	0.0999679878004827
102145	100	260	2	left-right	NaN	68	2	-1	17	-1	1	stim018_inanimate_tree_2.png		NaN	0	0	0	88.1836989947478	88.2837142816279	0.10001528688008
102345	100	261	2	left-right	0	69	2	-1	-1	28	1		bird_2_lower	NaN	0	0	0	88.3837100637029	88.483725350583	0.10001528688008
102545	100	262	2	left-right	0	70	2	-1	-1	10	1		stim011_animate_face_3.png	NaN	1	0.39232629124308	1	88.5837152812164	88.6837291052216	0.100013824005146
102745	100	263	2	left-right	0	71	2	-1	1	-1	1	stim002_animate_fish_2.png		NaN	0	0	0	88.7837339082616	88.8837340789614	0.100000170699786
102945	100	264	2	left-right	0	72	2	-1	22	-1	1	stim023_inanimate_tools_3.png		NaN	0	0	0	88.9837425391306	89.0837402716861	0.0999977325554937
103145	100	265	2	left-right	0	73	2	-1	-1	47	1		tool_9_upper_it	NaN	0	0	0	89.1837438557413	89.2837462206371	0.100002364895772
103345	100	266	2	left-right	0	74	2	-1	-1	24	1		fish_1_lower	NaN	0	0	0	89.3837502922979	89.4837490001228	0.0999987078248523
103545	100	267	2	left-right	0	75	2	-1	19	-1	1	stim020_inanimate_tree_4.png		NaN	0	0	0	89.5837562412489	89.6837566557224	0.10000041447347
103745	100	268	2	left-right	0	76	2	-1	5	-1	1	stim006_animate_bird_2.png		NaN	0	0	0	89.7837570701959	89.8837394427392	0.0999823725433089
103945	100	269	2	left-right	0	77	2	-1	-1	16	1		stim017_inanimate_tree_1.png	NaN	0	0	0	89.9837605810608	90.0837451479165	0.09998456685571
104145	100	270	2	left-right	0	78	2	-1	29	-1	1	bird_3_lower_it		NaN	0	0	0	90.1837692119298	90.2837745025754	0.10000529064564
104345	100	271	2	left-right	0	79	2	-1	-1	38	1		boat_6_upper	NaN	0	0	0	90.3837795494474	90.4837789886515	0.0999994392041117
104545	100	272	2	left-right	0	80	2	-1	40	-1	1	tree_5_lower		NaN	0	0	0	90.5837852545665	90.6837673833361	0.099982128769625
104745	100	273	2	left-right	0	81	2	-1	-1	0	1		stim001_animate_fish_1.png	NaN	0	0	0	90.7837704797275	90.8837879608618	0.100017481134273
104945	100	274	2	left-right	0	82	2	-1	-1	7	1		stim008_animate_bird_4.png	NaN	0	0	0	90.9837930077338	91.0840564926038	0.100263484870084
105145	100	275	2	left-right	0	83	2	-1	30	-1	1	bird_4_upper		NaN	0	0	0	91.1837957871612	91.2837681635283	0.0999723763670772
105345	100	276	2	left-right	0	84	2	-1	-1	32	1		face_3_lower	NaN	0	0	0	91.3837995417998	91.4838036134024	0.100004071602598
105545	100	277	2	left-right	0	85	2	-1	23	-1	1	stim024_inanimate_tools_4.png		NaN	0	0	0	91.5838079288369	91.6838061490562	0.0999982202192768
105745	100	278	2	left-right	0	86	2	-1	14	-1	1	stim015_inanimate_boats_3.png		NaN	0	0	0	91.7838090016157	91.8838169741794	0.100007972563617
105945	100	279	2	left-right	NaN	87	2	-1	-1	9	1		stim010_animate_face_2.png	NaN	0	0	0	91.9838166572154	92.0838168279151	0.100000170699786
106145	100	280	2	left-right	0	88	2	-1	-1	37	1		boat_5_lower_it	NaN	0	0	0	92.1838211433496	92.2838208263856	0.0999996830360033
106345	100	281	2	left-right	0	89	2	-1	18	-1	1	stim019_inanimate_tree_3.png		NaN	1	0.392211944563314	1	92.3837895456236	92.4838287258171	0.100039180193562
106545	100	282	2	left-right	0	90	2	-1	-1	46	1		tool_8_upper	NaN	0	0	0	92.5838342602947	92.6838356499793	0.100001389684621
106745	100	283	2	left-right	0	91	2	-1	15	-1	1	stim016_inanimate_boats_4.png		NaN	0	0	0	92.7838587387232	92.8838296522736	0.0999709135503508
106945	100	284	2	left-right	0	92	2	-1	38	-1	1	boat_6_upper		NaN	0	0	0	92.9838390877121	93.0838299936149	0.0999909059028141
107145	100	285	2	left-right	0	93	2	-1	-1	21	1		stim022_inanimate_tools_2.png	NaN	0	0	0	93.1838489376241	93.2838505711406	0.100001633516513
107345	100	286	2	left-right	0	94	2	-1	-1	31	1		bird_5_upper_it	NaN	0	0	0	93.3838607379585	93.483849693439	0.0999889554805122
107545	100	287	2	left-right	0	95	2	-1	39	-1	1	boat_7_upper_it		NaN	0	0	0	93.5838462069514	93.6838700271328	0.100023820181377
107745	100	288	2	left-right	0	96	2	-1	24	-1	1	fish_1_lower		NaN	0	0	0	93.7838731235242	93.8838825589628	0.100009435438551
107945	100	289	2	left-right	0	97	2	-1	-1	35	1		face_6_upper_it	NaN	0	0	0	93.9838698076783	94.0838699783781	0.100000170699786
108145	100	290	2	left-right	0	98	2	-1	43	-1	1	tree_8_upper_it		NaN	0	0	0	94.1838755128556	94.2838759273291	0.10000041447347
108345	100	291	2	left-right	0	99	2	-1	-1	21	1		stim022_inanimate_tools_2.png	NaN	0	0	0	94.3838802427636	94.4838821200537	0.100001877290197
108545	100	292	2	left-right	0	100	2	-1	-1	10	1		stim011_animate_face_3.png	NaN	0	0	0	94.5838861917146	94.6838802671409	0.0999940754263662
108745	100	293	2	left-right	0	101	2	-1	17	-1	1	stim018_inanimate_tree_2.png		NaN	0	0	0	94.7838840949116	94.8838842656114	0.100000170699786
108945	100	294	2	left-right	0	102	2	-1	-1	0	1		stim001_animate_fish_1.png	NaN	0	0	0	94.9838927257806	95.0838987478637	0.100006022083107
109145	100	295	2	left-right	0	103	2	-1	32	-1	1	face_3_lower		NaN	0	0	0	95.1839062328218	95.2839056720841	0.0999994392623194
109345	100	296	2	left-right	0	104	2	-1	-1	31	1		bird_5_upper_it	NaN	0	0	0	95.3839058427257	95.4839147905586	0.100008947832976
109545	100	297	2	left-right	0	105	2	-1	20	-1	1	stim021_inanimate_tools_1.png		NaN	0	0	0	95.5839078907156	95.6839109871071	0.100003096391447
109745	100	298	2	left-right	NaN	106	2	-1	-1	40	1		tree_5_lower	NaN	0	0	0	95.7839221291943	95.8839225436677	0.10000041447347
109945	100	299	2	left-right	0	107	2	-1	5	-1	1	stim006_animate_bird_2.png		NaN	0	0	0	95.9839229581412	96.0839053307427	0.0999823726015165
110145	100	300	2	left-right	0	108	2	-1	9	-1	1	stim010_animate_face_2.png		NaN	1	0.300179712008685	1	96.1839264690061	96.2839261521003	0.0999996830942109
110345	100	301	2	left-right	0	109	2	-1	-1	15	1		stim016_inanimate_boats_4.png	NaN	0	0	0	96.3839192522573	96.4839333200944	0.100014067837037
110545	100	302	2	left-right	0	110	2	-1	13	-1	1	stim014_inanimate_boats_2.png		NaN	0	0	0	96.5839395859512	96.6839397566509	0.100000170699786
110745	100	303	2	left-right	0	111	2	-1	-1	18	1		stim019_inanimate_tree_3.png	NaN	0	0	0	96.7839452911285	96.8839449741645	0.0999996830360033
110945	100	304	2	left-right	0	112	2	-1	28	-1	1	bird_2_lower		NaN	0	0	0	96.9839507524739	97.0839509231155	0.100000170641579
111145	100	305	2	left-right	0	113	2	-1	-1	19	1		stim020_inanimate_tree_4.png	NaN	0	0	0	97.1839574328042	97.283961504465	0.100004071660805
111345	100	306	2	left-right	0	114	2	-1	-1	29	1		bird_3_lower_it	NaN	0	0	0	97.3839641131926	97.483960870537	0.0999967573443428
111545	100	307	2	left-right	0	115	2	-1	39	-1	1	boat_7_upper_it		NaN	0	0	0	97.583973719331	97.6839638937963	0.0999901744653471
111745	100	308	2	left-right	0	116	2	-1	8	-1	1	stim009_animate_face_1.png		NaN	0	0	0	97.7839752796572	97.8839652103488	0.0999899306916632
111945	100	309	2	left-right	0	117	2	-1	-1	44	1		tool_6_lower	NaN	0	0	0	97.9839780591428	98.0839599440806	0.0999818849377334
112145	100	310	2	left-right	0	118	2	-1	41	-1	1	tree_6_lower_it		NaN	0	0	0	98.1839805947384	98.2839827158605	0.100002121122088
112345	100	311	2	left-right	0	119	2	-1	-1	12	1		stim013_inanimate_boats_1.png	NaN	0	0	0	98.3839687455911	98.4839862267254	0.100017481134273
112545	100	312	2	left-right	0	120	2	-1	23	-1	1	stim024_inanimate_tools_4.png		NaN	0	0	0	98.5839922488085	98.6839919319027	0.0999996830942109
112745	100	313	2	left-right	0	121	2	-1	-1	38	1		boat_6_upper	NaN	0	0	0	98.7840008796775	98.8839981246274	0.0999972449499182
112945	100	314	2	left-right	0	122	2	-1	-1	47	1		tool_9_upper_it	NaN	0	0	0	98.9840046343743	99.0839721345692	0.0999675001949072
113145	100	315	2	left-right	0	123	2	-1	32	-1	1	face_3_lower		NaN	0	0	0	99.1840142404544	99.2839944187435	0.0999801782891154
113345	100	316	2	left-right	0	124	2	-1	-1	0	1		stim001_animate_fish_1.png	NaN	0	0	0	99.3840170198819	99.4840179219609	0.100000902079046
113545	100	317	2	left-right	0	125	2	-1	18	-1	1	stim019_inanimate_tree_3.png		NaN	0	0	0	99.5840212621843	99.6840219204314	0.100000658247154
113745	100	318	2	left-right	0	126	2	-1	-1	14	1		stim015_inanimate_boats_3.png	NaN	0	0	0	99.784025992034	99.8840385969961	0.100012604962103
113945	100	319	2	left-right	0	127	2	-1	42	-1	1	tree_7_upper		NaN	0	0	0	99.9840368172154	100.084035281208	0.0999984639929608
114145	100	320	2	left-right	0	128	2	-1	46	-1	1	tool_8_upper		NaN	0	0	0	100.184029112803	100.284036841593	0.100007728789933
114345	100	321	2	left-right	0	129	2	-1	-1	36	1		boat_4_lower	NaN	0	0	0	100.384036768461	100.484035476227	0.0999987077666447
114545	100	322	2	left-right	0	130	2	-1	-1	39	1		boat_7_upper_it	NaN	0	0	0	100.584044911666	100.684048495663	0.100003583997022
114745	100	323	2	left-right	0	131	2	-1	14	-1	1	stim015_inanimate_boats_3.png		NaN	0	0	0	100.78404744732	100.884052981797	0.100005534477532
114945	100	324	2	left-right	0	132	2	-1	13	-1	1	stim014_inanimate_boats_2.png		NaN	0	0	0	100.984056565794	101.08405624883	0.0999996830360033
115145	100	325	2	left-right	0	133	2	-1	-1	25	1		fish_2_lower_it	NaN	0	0	0	101.184067147085	101.284023675893	0.0999565288075246
115345	100	326	2	left-right	0	134	2	-1	-1	1	1		stim002_animate_fish_2.png	NaN	0	0	0	101.384067000821	101.484067171463	0.100000170641579
115545	100	327	2	left-right	0	135	2	-1	22	-1	1	stim023_inanimate_tools_3.png		NaN	0	0	0	101.584074656421	101.68407848425	0.100003827828914
115745	100	328	2	left-right	0	136	2	-1	33	-1	1	face_4_lower_it		NaN	0	0	0	101.78407767968	101.884103694174	0.100026014493778
115945	100	329	2	left-right	0	137	2	-1	-1	23	1		stim024_inanimate_tools_4.png	NaN	0	0	0	101.984084360069	102.084093307843	0.100008947774768
116145	100	330	2	left-right	0	138	2	-1	28	-1	1	bird_2_lower		NaN	0	0	0	102.18407421757	102.284066342516	0.0999921249458566
116345	100	331	2	left-right	0	139	2	-1	-1	47	1		tool_9_upper_it	NaN	0	0	0	102.384069195075	102.484080337221	0.100011142145377
116545	100	332	2	left-right	0	140	2	-1	7	-1	1	stim008_animate_bird_4.png		NaN	0	0	0	102.584085627866	102.684095063305	0.100009435438551
116745	100	333	2	left-right	0	141	2	-1	-1	16	1		stim017_inanimate_tree_1.png	NaN	0	0	0	102.784091576817	102.884091747459	0.100000170641579
116945	100	334	2	left-right	0	142	2	-1	26	-1	1	fish_3_upper		NaN	0	0	0	102.984103864816	103.08408550598	0.0999816411640495
117145	100	335	2	left-right	0	143	2	-1	-1	37	1		boat_5_lower_it	NaN	0	0	0	103.184089577582	103.284095843497	0.100006265914999
117345	100	336	2	left-right	0	144	2	-1	2	-1	1	stim003_animate_fish_3.png		NaN	0	0	0	103.384096501744	103.484096184839	0.0999996830942109
117545	100	337	2	left-right	0	145	2	-1	-1	6	1		stim007_animate_bird_3.png	NaN	0	0	0	103.584099281172	103.68410408427	0.100004803098273
117745	100	338	2	left-right	0	146	2	-1	9	-1	1	stim010_animate_face_2.png		NaN	0	0	0	103.784110593959	103.884120517003	0.100009923044126
117945	100	339	2	left-right	0	147	2	-1	-1	25	1		fish_2_lower_it	NaN	0	0	0	103.984111910511	104.084112568817	0.100000658305362
118145	100	340	2	left-right	0	148	2	-1	-1	4	1		stim005_animate_bird_1.png	NaN	0	0	0	104.184122491861	104.284494959633	0.100372467772104
118345	100	341	2	left-right	0	149	2	-1	34	-1	1	face_5_upper		NaN	0	0	0	104.384123320808	104.484124466719	0.100001145910937
118545	100	342	2	left-right	NaN	150	2	-1	2	-1	1	stim003_animate_fish_3.png		NaN	0	0	0	104.584131464071	104.684128465189	0.0999970011180267
118745	100	343	2	left-right	0	151	2	-1	-1	34	1		face_5_upper	NaN	0	0	0	104.784132536792	104.88413246366	0.0999999268678948
118945	100	344	2	left-right	0	152	2	-1	11	-1	1	stim012_animate_face_4.png		NaN	1	0.392243639798835	1	104.984128977172	105.08410818025	0.0999792030779645
119145	100	345	2	left-right	0	153	2	-1	-1	1	1		stim002_animate_fish_2.png	NaN	0	0	0	105.184153943264	105.284172887274	0.100018944009207
119345	100	346	2	left-right	0	154	2	-1	-1	17	1		stim018_inanimate_tree_2.png	NaN	0	0	0	105.384159892215	105.484155674349	0.0999957821331918
119545	100	347	2	left-right	0	155	2	-1	10	-1	1	stim011_animate_face_3.png		NaN	0	0	0	105.58416437835	105.68418234709	0.100017968739849
119745	100	348	2	left-right	0	156	2	-1	6	-1	1	stim007_animate_bird_3.png		NaN	0	0	0	105.784189832048	105.884186101728	0.0999962696805596
119945	100	349	2	left-right	0	157	2	-1	-1	3	1		stim004_animate_fish_4.png	NaN	0	0	0	105.9841911486	106.084195220203	0.100004071602598
120145	100	350	2	left-right	0	158	2	-1	20	-1	1	stim021_inanimate_tools_1.png		NaN	0	0	0	106.184196366114	106.28419336729	0.0999970011762343
120345	100	351	2	left-right	0	159	2	-1	-1	37	1		boat_5_lower_it	NaN	0	0	0	106.384203046502	106.484197853366	0.0999948068638332
120545	100	352	2	left-right	0	160	2	-1	33	-1	1	face_4_lower_it		NaN	0	0	0	106.584187540226	106.684185272781	0.0999977325554937
120745	100	353	2	left-right	0	161	2	-1	-1	38	1		boat_6_upper	NaN	0	0	0	106.784187393961	106.884185614123	0.0999982201610692
120945	100	354	2	left-right	0	162	2	-1	-1	46	1		tool_8_upper	NaN	0	0	0	106.984200169565	107.084197170683	0.0999970011180267
121145	100	355	2	left-right	0	163	2	-1	8	-1	1	stim009_animate_face_1.png		NaN	0	0	0	107.184207093727	107.284197024419	0.0999899306916632
121345	100	356	2	left-right	0	164	2	-1	4	-1	1	stim005_animate_bird_1.png		NaN	0	0	0	107.384201096022	107.48420858098	0.100007484958041
121545	100	357	2	left-right	0	165	2	-1	-1	5	1		stim006_animate_bird_2.png	NaN	0	0	0	107.584225086903	107.684213310888	0.0999882239848375
121745	100	358	2	left-right	0	166	2	-1	-1	45	1		tool_7_lower_it	NaN	0	0	0	107.784213725361	107.884213896061	0.100000170699786
121945	100	359	2	left-right	0	167	2	-1	11	-1	1	stim012_animate_face_4.png		NaN	0	0	0	107.984217480058	108.084217894531	0.10000041447347
122145	100	360	2	left-right	0	168	2	-1	45	-1	1	tool_7_lower_it		NaN	0	0	0	108.184243908967	108.284224331088	0.099980422121007
122345	100	361	2	left-right	0	169	2	-1	-1	26	1		fish_3_upper	NaN	0	0	0	108.38422937796	108.484230767644	0.100001389684621
122545	100	362	2	left-right	0	170	2	-1	-1	29	1		bird_3_lower_it	NaN	0	0	0	108.584238008771	108.68426743662	0.100029427849222
122745	100	363	2	left-right	0	171	2	-1	7	-1	1	stim008_animate_bird_4.png		NaN	0	0	0	108.78427223966	108.884267046524	0.0999948068638332
122945	100	364	2	left-right	0	172	2	-1	15	-1	1	stim016_inanimate_boats_4.png		NaN	0	0	0	108.984273068607	109.084270313557	0.0999972449499182
123145	100	365	2	left-right	0	173	2	-1	-1	36	1		boat_4_lower	NaN	0	0	0	109.184280236601	109.284275774902	0.0999955383013003
123345	100	366	2	left-right	0	174	2	-1	35	-1	1	face_6_upper_it		NaN	0	0	0	109.38428325986	109.484282211459	0.0999989515985362
123545	100	367	2	left-right	0	175	2	-1	-1	22	1		stim023_inanimate_tools_3.png	NaN	0	0	0	109.584267997358	109.684287672804	0.100019675446674
123745	100	368	2	left-right	0	176	2	-1	27	-1	1	fish_4_upper_it		NaN	0	0	0	109.784289793926	109.884291915048	0.100002121122088
123945	100	369	2	left-right	0	177	2	-1	-1	31	1		bird_5_upper_it	NaN	0	0	0	109.984296230483	110.084296888788	0.100000658305362
124145	100	370	2	left-right	0	178	2	-1	-1	30	1		bird_4_upper	NaN	0	0	0	110.184304861352	110.284295767255	0.0999909059028141
124345	100	371	2	left-right	0	179	2	-1	41	-1	1	tree_6_lower_it		NaN	0	0	0	110.384308616049	110.484313662862	0.100005046813749
124545	100	372	2	left-right	0	180	2	-1	-1	16	1		stim017_inanimate_tree_1.png	NaN	0	0	0	110.58429847355	110.684317173727	0.100018700177316
124745	100	373	2	left-right	0	181	2	-1	3	-1	1	stim004_animate_fish_4.png		NaN	0	0	0	110.784295889142	110.884302398888	0.100006509746891
124945	100	374	2	left-right	0	182	2	-1	19	-1	1	stim020_inanimate_tree_4.png		NaN	0	0	0	110.984326706675	111.084311273531	0.09998456685571
125145	100	375	2	left-right	0	183	2	-1	-1	44	1		tool_6_lower	NaN	0	0	0	111.184312175668	111.28432746249	0.100015286821872
125345	100	376	2	left-right	0	184	2	-1	-1	43	1		tree_8_upper_it	NaN	0	0	0	111.384335678886	111.484310737171	0.0999750582850538
125545	100	377	2	left-right	0	185	2	-1	12	-1	1	stim013_inanimate_boats_1.png		NaN	0	0	0	111.584321391652	111.684340823267	0.100019431614783
125745	100	378	2	left-right	0	186	2	-1	-1	24	1		fish_1_lower	NaN	0	0	0	111.784345870139	111.884339214128	0.0999933439888991
125945	100	379	2	left-right	0	187	2	-1	42	-1	1	tree_7_upper		NaN	0	0	0	111.984340360039	112.0843122488	0.0999718887615018
126145	100	380	2	left-right	0	188	2	-1	40	-1	1	tree_5_lower		NaN	0	0	0	112.184327779454	112.284327218716	0.0999994392623194
126345	100	381	2	left-right	0	189	2	-1	-1	21	1		stim022_inanimate_tools_2.png	NaN	0	0	0	112.384332021757	112.484331948566	0.0999999268096872
126545	100	382	2	left-right	0	190	2	-1	-1	27	1		fish_4_upper_it	NaN	0	0	0	112.584355037368	112.684353257529	0.0999982201610692
126745	100	383	2	left-right	0	191	2	-1	30	-1	1	bird_4_upper		NaN	0	0	0	112.784343431995	112.884345309343	0.100001877348404
130995	100	384	3	left+right	0	0	3	-1	16	2	2	stim017_inanimate_tree_1.png	stim003_animate_fish_3.png	NaN	0	0	0	117.034492216771	117.134481903631	0.0999896868597716
131195	100	385	3	left+right	0	1	3	-1	6	21	2	stim007_animate_bird_3.png	stim022_inanimate_tools_2.png	NaN	0	0	0	117.23447524762	117.334492972586	0.100017724966165
131395	100	386	3	left+right	0	2	3	-1	10	35	2	stim011_animate_face_3.png	face_6_upper_it	NaN	0	0	0	117.434482415614	117.534484292963	0.100001877348404
131595	100	387	3	left+right	0	3	3	-1	19	46	2	stim020_inanimate_tree_4.png	tool_8_upper	NaN	0	0	0	117.634499823616	117.734543636208	0.100043812592048
131795	100	388	3	left+right	0	4	3	-1	43	41	2	tree_8_upper_it	tree_6_lower_it	NaN	0	0	0	117.834507235442	117.93450521183	0.0999979763873853
131995	100	389	3	left+right	0	5	3	-1	4	26	2	stim005_animate_bird_1.png	fish_3_upper	NaN	0	0	0	118.034504163428	118.134507991257	0.100003827828914
132195	100	390	3	left+right	0	6	3	-1	14	0	2	stim015_inanimate_boats_3.png	stim001_animate_fish_1.png	NaN	0	0	0	118.234519377118	118.334519547818	0.100000170699786
132395	100	391	3	left+right	0	7	3	-1	32	19	2	face_3_lower	stim020_inanimate_tree_4.png	NaN	0	0	0	118.4345170366	118.534521351976	0.100004315376282
132595	100	392	3	left+right	0	8	3	-1	33	46	2	face_4_lower_it	tool_8_upper	NaN	0	0	0	118.63452566741	118.73453047045	0.100004803040065
132795	100	393	3	left+right	0	9	3	-1	41	23	2	tree_6_lower_it	stim024_inanimate_tools_4.png	NaN	0	0	0	118.834533566842	118.934532274667	0.0999987078248523
132995	100	394	3	left+right	0	10	3	-1	39	21	2	boat_7_upper_it	stim022_inanimate_tools_2.png	NaN	0	0	0	119.03453829675	119.134536760743	0.0999984639929608
133195	100	395	3	left+right	0	11	3	-1	13	43	2	stim014_inanimate_boats_2.png	tree_8_upper_it	NaN	0	0	0	119.234547659056	119.334543928737	0.0999962696805596
133395	100	396	3	left+right	0	12	3	-1	44	16	2	tool_6_lower	stim017_inanimate_tree_1.png	NaN	0	0	0	119.434546293691	119.534544270078	0.0999979763873853
133595	100	397	3	left+right	0	13	3	-1	38	40	2	boat_6_upper	tree_5_lower	NaN	0	0	0	119.634553705517	119.734539735247	0.0999860297306441
133795	100	398	3	left+right	0	14	3	-1	9	28	2	stim010_animate_face_2.png	bird_2_lower	NaN	0	0	0	119.8345598983	119.934560556547	0.100000658247154
133995	100	399	3	left+right	0	15	3	-1	21	41	2	stim022_inanimate_tools_2.png	tree_6_lower_it	NaN	0	0	0	120.034559995809	120.134551389317	0.0999913935083896
134195	100	400	3	left+right	0	16	3	-1	36	26	2	boat_4_lower	fish_3_upper	NaN	0	0	0	120.234548878099	120.334576843015	0.10002796491608
134395	100	401	3	left+right	0	17	3	-1	3	34	2	stim004_animate_fish_4.png	face_5_upper	NaN	0	0	0	120.434578720364	120.534576696751	0.0999979763873853
134595	100	402	3	left+right	0	18	3	-1	28	26	2	bird_2_lower	fish_3_upper	NaN	0	0	0	120.634601492202	120.734580939054	0.0999794468516484
134795	100	403	3	left+right	0	19	3	-1	26	22	2	fish_3_upper	stim023_inanimate_tools_3.png	NaN	0	0	0	120.834589643055	120.934593958489	0.100004315434489
134995	100	404	3	left+right	0	20	3	-1	27	24	2	fish_4_upper_it	fish_1_lower	NaN	0	0	0	121.034589252959	121.134598932171	0.100009679212235
135195	100	405	3	left+right	0	21	3	-1	47	38	2	tool_9_upper_it	boat_6_upper	NaN	0	0	0	121.234598371433	121.334603905911	0.100005534477532
135395	100	406	3	left+right	0	22	3	-1	4	41	2	stim005_animate_bird_1.png	tree_6_lower_it	NaN	0	0	0	121.434610171826	121.53460205294	0.0999918811139651
135595	100	407	3	left+right	0	23	3	-1	43	39	2	tree_8_upper_it	boat_7_upper_it	NaN	0	0	0	121.634596615972	121.734607026679	0.10001041070791
135795	100	408	3	left+right	0	24	3	-1	24	33	2	fish_1_lower	face_4_lower_it	NaN	0	0	0	121.834613292536	121.934596152743	0.099982860207092
135995	100	409	3	left+right	0	25	3	-1	21	47	2	stim022_inanimate_tools_2.png	tool_9_upper_it	NaN	0	0	0	122.034618510108	122.134617949312	0.0999994392041117
136195	100	410	3	left+right	0	26	3	-1	13	44	2	stim014_inanimate_boats_2.png	tool_6_lower	NaN	0	0	0	122.234609830484	122.334610244958	0.10000041447347
136395	100	411	3	left+right	0	27	3	-1	22	42	2	stim023_inanimate_tools_3.png	tree_7_upper	NaN	0	0	0	122.434631139389	122.534635698656	0.100004559266381
136595	100	412	3	left+right	0	28	3	-1	6	12	2	stim007_animate_bird_3.png	stim013_inanimate_boats_1.png	NaN	0	0	0	122.63463440648	122.734626531426	0.0999921249458566
136795	100	413	3	left+right	0	29	3	-1	39	26	2	boat_7_upper_it	fish_3_upper	NaN	0	0	0	122.834648888733	122.934638087987	0.0999891992541961
136995	100	414	3	left+right	0	30	3	-1	10	15	2	stim011_animate_face_3.png	stim016_inanimate_boats_4.png	NaN	0	0	0	123.034640940547	123.134649644548	0.100008704001084
137195	100	415	3	left+right	0	31	3	-1	9	39	2	stim010_animate_face_2.png	boat_7_upper_it	NaN	0	0	0	123.234650302853	123.334648766846	0.0999984639929608
137395	100	416	3	left+right	0	32	3	-1	8	42	2	stim009_animate_face_1.png	tree_7_upper	NaN	0	0	0	123.434653813718	123.534652521485	0.0999987077666447
137595	100	417	3	left+right	0	33	3	-1	18	36	2	stim019_inanimate_tree_3.png	boat_4_lower	NaN	0	0	0	123.634668539802	123.734660177142	0.0999916373402812
137795	100	418	3	left+right	0	34	3	-1	40	46	2	tree_5_lower	tool_8_upper	NaN	0	0	0	123.83468838589	123.934662712738	0.0999743268475868
137995	100	419	3	left+right	0	35	3	-1	26	40	2	fish_3_upper	tree_5_lower	NaN	0	0	0	124.034668247215	124.134668661689	0.10000041447347
138195	100	420	3	left+right	0	36	3	-1	25	11	2	fish_2_lower_it	stim012_animate_face_4.png	NaN	0	0	0	124.234674683772	124.334677048726	0.10000236495398
138395	100	421	3	left+right	0	37	3	-1	41	0	2	tree_6_lower_it	stim001_animate_fish_1.png	NaN	0	0	0	124.434684046078	124.534679828153	0.0999957820749842
138595	100	422	3	left+right	0	38	3	-1	40	36	2	tree_5_lower	boat_4_lower	NaN	0	0	0	124.634690726467	124.734692359983	0.100001633516513
138795	100	423	3	left+right	0	39	3	-1	26	9	2	fish_3_upper	stim010_animate_face_2.png	NaN	0	0	0	124.834690580145	124.934703428939	0.100012848793995
138995	100	424	3	left+right	0	40	3	-1	32	30	2	face_3_lower	bird_4_upper	NaN	0	0	0	125.0347016491	125.134707427409	0.100005778309423
139195	100	425	3	left+right	0	41	3	-1	40	2	2	tree_5_lower	stim003_animate_fish_3.png	NaN	0	0	0	125.234713693324	125.334709231567	0.0999955382430926
139395	100	426	3	left+right	0	42	3	-1	28	31	2	bird_2_lower	bird_5_upper_it	NaN	0	0	0	125.434721592756	125.534710060572	0.0999884678167291
139595	100	427	3	left+right	0	43	3	-1	46	34	2	tool_8_upper	face_5_upper	NaN	0	0	0	125.634718520741	125.734722104738	0.100003583997022
139795	100	428	3	left+right	0	44	3	-1	35	27	2	face_6_upper_it	fish_4_upper_it	NaN	0	0	0	125.834725444904	125.934720251767	0.0999948068638332
139995	100	429	3	left+right	0	45	3	-1	31	41	2	bird_5_upper_it	tree_6_lower_it	NaN	0	0	0	126.034717740549	126.134731808328	0.100014067778829
140195	100	430	3	left+right	0	46	3	-1	28	21	2	bird_2_lower	stim022_inanimate_tools_2.png	NaN	0	0	0	126.234734417114	126.334731174458	0.0999967573443428
140395	100	431	3	left+right	0	47	3	-1	15	1	2	stim016_inanimate_boats_4.png	stim002_animate_fish_2.png	NaN	0	0	0	126.434719886049	126.534737854847	0.100017968798056
140595	100	432	3	left+right	NaN	48	3	-1	33	36	2	face_4_lower_it	boat_4_lower	NaN	0	0	0	126.634743389324	126.73474307236	0.0999996830360033
140795	100	433	3	left+right	0	49	3	-1	40	12	2	tree_5_lower	stim013_inanimate_boats_1.png	NaN	0	0	0	126.834745193482	126.934761943237	0.100016749755014
140995	100	434	3	left+right	0	50	3	-1	20	47	2	stim021_inanimate_tools_1.png	tool_9_upper_it	NaN	1	0.392253879806958	1	127.034738951945	127.134744730254	0.100005778309423
141195	100	435	3	left+right	0	51	3	-1	40	6	2	tree_5_lower	stim007_animate_bird_3.png	NaN	0	0	0	127.234761723783	127.334760675381	0.0999989515985362
141395	100	436	3	left+right	0	52	3	-1	44	46	2	tool_6_lower	tool_8_upper	NaN	0	0	0	127.434771086089	127.534753214801	0.0999821287114173
141595	100	437	3	left+right	0	53	3	-1	34	12	2	face_5_upper	stim013_inanimate_boats_1.png	NaN	0	0	0	127.634733149316	127.734767697111	0.100034547795076
141795	100	438	3	left+right	0	54	3	-1	4	29	2	stim005_animate_bird_1.png	bird_3_lower_it	NaN	0	0	0	127.834771768714	127.934769257496	0.0999974887818098
141995	100	439	3	left+right	0	55	3	-1	37	10	2	boat_5_lower_it	stim011_animate_face_3.png	NaN	0	0	0	128.034778936708	128.134779351181	0.10000041447347
142195	100	440	3	left+right	0	56	3	-1	34	2	2	face_5_upper	stim003_animate_fish_3.png	NaN	0	0	0	128.234782203799	128.334806267754	0.100024063955061
142395	100	441	3	left+right	0	57	3	-1	4	37	2	stim005_animate_bird_1.png	boat_5_lower_it	NaN	0	0	0	128.434786933707	128.534784666263	0.0999977325554937
142595	100	442	3	left+right	0	58	3	-1	10	46	2	stim011_animate_face_3.png	tool_8_upper	NaN	0	0	0	128.634797514998	128.734795978991	0.0999984639929608
142796	100	443	3	left+right	NaN	59	3	-1	41	44	2	tree_6_lower_it	tool_6_lower	NaN	0	0	0	128.834801513469	128.934796320333	0.0999948068638332
142995	100	444	3	left+right	0	60	3	-1	12	28	2	stim013_inanimate_boats_1.png	bird_2_lower	NaN	0	0	0	129.034804292896	129.134813728335	0.100009435438551
143196	100	445	3	left+right	0	61	3	-1	28	13	2	bird_2_lower	stim014_inanimate_boats_2.png	NaN	0	0	0	129.23481438664	129.334807974461	0.0999935878207907
143396	100	446	3	left+right	0	62	3	-1	8	23	2	stim009_animate_face_1.png	stim024_inanimate_tools_4.png	NaN	1	0.592299325915519	1	129.434811070794	129.534789298661	0.0999782278668135
143596	100	447	3	left+right	0	63	3	-1	24	26	2	fish_1_lower	fish_3_upper	NaN	0	0	0	129.63481945789	129.734818409488	0.0999989515985362
143796	100	448	3	left+right	0	64	3	-1	39	3	2	boat_7_upper_it	stim004_animate_fish_4.png	NaN	0	0	0	129.83482613822	129.934823383228	0.0999972450081259
143996	100	449	3	left+right	0	65	3	-1	7	21	2	stim008_animate_bird_4.png	stim022_inanimate_tools_2.png	NaN	0	0	0	130.034830868128	130.135135800694	0.10030493256636
144196	100	450	3	left+right	0	66	3	-1	37	20	2	boat_5_lower_it	stim021_inanimate_tools_1.png	NaN	0	0	0	130.234827308508	130.334833818255	0.100006509746891
144396	100	451	3	left+right	0	67	3	-1	40	18	2	tree_5_lower	stim019_inanimate_tree_3.png	NaN	0	0	0	130.434839108901	130.534838304331	0.0999991954304278
144596	100	452	3	left+right	0	68	3	-1	35	19	2	face_6_upper_it	stim020_inanimate_tree_4.png	NaN	0	0	0	130.634848958813	130.734845228551	0.0999962697387673
144796	100	453	3	left+right	0	69	3	-1	42	1	2	tree_7_upper	stim002_animate_fish_2.png	NaN	0	0	0	130.834858077287	130.93485751655	0.0999994392623194
144996	100	454	3	left+right	0	70	3	-1	35	24	2	face_6_upper_it	fish_1_lower	NaN	0	0	0	131.034862563363	131.134858345496	0.0999957821331918
145196	100	455	3	left+right	0	71	3	-1	39	33	2	boat_7_upper_it	face_4_lower_it	NaN	0	0	0	131.234863148537	131.334865025885	0.100001877348404
145396	100	456	3	left+right	0	72	3	-1	41	14	2	tree_6_lower_it	stim015_inanimate_boats_3.png	NaN	0	0	0	131.434871047968	131.534868536692	0.0999974887236021
145596	100	457	3	left+right	0	73	3	-1	27	20	2	fish_4_upper_it	stim021_inanimate_tools_1.png	NaN	0	0	0	131.634879922611	131.734876923787	0.0999970011762343
145796	100	458	3	left+right	0	74	3	-1	28	32	2	bird_2_lower	face_3_lower	NaN	0	0	0	131.834886115394	131.934886042261	0.0999999268678948
145996	100	459	3	left+right	0	75	3	-1	9	11	2	stim010_animate_face_2.png	stim012_animate_face_4.png	NaN	0	0	0	132.034890113864	132.134888090251	0.0999979763873853
146196	100	460	3	left+right	0	76	3	-1	33	22	2	face_4_lower_it	stim023_inanimate_tools_3.png	NaN	0	0	0	132.234895818983	132.334895989683	0.100000170699786
146396	100	461	3	left+right	0	77	3	-1	4	11	2	stim005_animate_bird_1.png	stim012_animate_face_4.png	NaN	0	0	0	132.434880556539	132.534896574798	0.100016018259339
146596	100	462	3	left+right	0	78	3	-1	42	45	2	tree_7_upper	tool_7_lower_it	NaN	0	0	0	132.634902596881	132.734902523749	0.0999999268678948
146796	100	463	3	left+right	0	79	3	-1	24	8	2	fish_1_lower	stim009_animate_face_1.png	NaN	0	0	0	132.834920980153	132.934910179407	0.0999891992541961
146996	100	464	3	left+right	0	80	3	-1	32	3	2	face_3_lower	stim004_animate_fish_4.png	NaN	0	0	0	133.034910106217	133.134913690214	0.100003583997022
147196	100	465	3	left+right	0	81	3	-1	15	28	2	stim016_inanimate_boats_4.png	bird_2_lower	NaN	0	0	0	133.234919224691	133.334923540126	0.100004315434489
147396	100	466	3	left+right	0	82	3	-1	10	45	2	stim011_animate_face_3.png	tool_7_lower_it	NaN	0	0	0	133.434925417474	133.534923393861	0.0999979763873853
147596	100	467	3	left+right	0	83	3	-1	26	26	2	fish_3_upper	fish_3_upper	NaN	0	0	0	133.634930147382	133.73493202473	0.100001877348404
147796	100	468	3	left+right	0	84	3	-1	39	11	2	boat_7_upper_it	stim012_animate_face_4.png	NaN	0	0	0	133.834939753462	133.934938705119	0.0999989516567439
147996	100	469	3	left+right	0	85	3	-1	23	19	2	stim024_inanimate_tools_4.png	stim020_inanimate_tree_4.png	NaN	0	0	0	134.034922784311	134.134922223573	0.0999994392623194
148196	100	470	3	left+right	0	86	3	-1	7	14	2	stim008_animate_bird_4.png	stim015_inanimate_boats_3.png	NaN	0	0	0	134.234965304728	134.334947921103	0.0999826163752005
148396	100	471	3	left+right	0	87	3	-1	6	0	2	stim007_animate_bird_3.png	stim001_animate_fish_1.png	NaN	0	0	0	134.435318682168	134.534951919573	0.0996332374052145
148596	100	472	3	left+right	0	88	3	-1	0	15	2	stim001_animate_fish_1.png	stim016_inanimate_boats_4.png	NaN	0	0	0	134.634957941656	134.734958843736	0.100000902079046
148796	100	473	3	left+right	0	89	3	-1	46	3	2	tool_8_upper	stim004_animate_fish_4.png	NaN	0	0	0	134.834958282998	134.934963086038	0.100004803040065
148996	100	474	3	left+right	0	90	3	-1	26	10	2	fish_3_upper	stim011_animate_face_3.png	NaN	0	0	0	135.034944239596	135.134966109297	0.100021869700868
149196	100	475	3	left+right	0	91	3	-1	18	18	2	stim019_inanimate_tree_3.png	stim019_inanimate_tree_3.png	NaN	0	0	0	135.234975788509	135.334971570584	0.0999957820749842
149396	100	476	3	left+right	0	92	3	-1	17	33	2	stim018_inanimate_tree_2.png	face_4_lower_it	NaN	0	0	0	135.434984906984	135.534975325281	0.0999904182972386
149596	100	477	3	left+right	0	93	3	-1	24	5	2	fish_1_lower	stim006_animate_bird_2.png	NaN	0	0	0	135.634978909278	135.734985906631	0.100006997352466
149796	100	478	3	left+right	0	94	3	-1	23	39	2	stim024_inanimate_tools_4.png	boat_7_upper_it	NaN	0	0	0	135.834989734401	135.934984785097	0.0999950506957248
149996	100	479	3	left+right	0	95	3	-1	11	37	2	stim012_animate_face_4.png	boat_5_lower_it	NaN	0	0	0	136.03499080718	136.134999755013	0.100008947832976
150196	100	480	3	left+right	0	96	3	-1	12	34	2	stim013_inanimate_boats_1.png	face_5_upper	NaN	0	0	0	136.234996512299	136.334999608691	0.100003096391447
150396	100	481	3	left+right	0	97	3	-1	15	29	2	stim016_inanimate_boats_4.png	bird_3_lower_it	NaN	0	0	0	136.435007093649	136.535003119556	0.0999960259068757
150596	100	482	3	left+right	0	98	3	-1	28	18	2	bird_2_lower	stim019_inanimate_tree_3.png	NaN	0	0	0	136.635013286432	136.734996878018	0.0999835915863514
150796	100	483	3	left+right	0	99	3	-1	14	30	2	stim015_inanimate_boats_3.png	bird_4_upper	NaN	0	0	0	136.835014115379	136.935012579372	0.0999984639929608
150996	100	484	3	left+right	0	100	3	-1	44	12	2	tool_6_lower	stim013_inanimate_boats_1.png	NaN	0	0	0	137.035017626244	137.135019991198	0.10000236495398
151196	100	485	3	left+right	0	101	3	-1	41	6	2	tree_6_lower_it	stim007_animate_bird_3.png	NaN	0	0	0	137.23502211232	137.335022282961	0.100000170641579
151396	100	486	3	left+right	0	102	3	-1	44	26	2	tool_6_lower	fish_3_upper	NaN	0	0	0	137.435030255583	137.53505261289	0.100022357306443
151596	100	487	3	left+right	0	103	3	-1	25	20	2	fish_2_lower_it	stim021_inanimate_tools_1.png	NaN	0	0	0	137.635048394965	137.735040763742	0.0999923687777482
151796	100	488	3	left+right	0	104	3	-1	6	17	2	stim007_animate_bird_3.png	stim018_inanimate_tree_2.png	NaN	0	0	0	137.835038008692	137.935038910771	0.100000902079046
151996	100	489	3	left+right	0	105	3	-1	9	24	2	stim010_animate_face_2.png	fish_1_lower	NaN	0	0	0	138.035046151956	138.135044372117	0.0999982201610692
152196	100	490	3	left+right	0	106	3	-1	28	20	2	bird_2_lower	stim021_inanimate_tools_1.png	NaN	0	0	0	138.23505331995	138.335049345857	0.0999960259068757
152396	100	491	3	left+right	0	107	3	-1	13	2	2	stim014_inanimate_boats_2.png	stim003_animate_fish_3.png	NaN	0	0	0	138.435052442248	138.535009214771	0.0999567725230008
152596	100	492	3	left+right	0	108	3	-1	17	13	2	stim018_inanimate_tree_2.png	stim014_inanimate_boats_2.png	NaN	0	0	0	138.635065461625	138.735371125629	0.100305664003827
152796	100	493	3	left+right	0	109	3	-1	1	37	2	stim002_animate_fish_2.png	boat_5_lower_it	NaN	0	0	0	138.835065559193	138.935064998397	0.0999994392041117
152996	100	494	3	left+right	0	110	3	-1	35	26	2	face_6_upper_it	fish_3_upper	NaN	0	0	0	139.03506907	139.135070215911	0.100001145910937
153196	100	495	3	left+right	0	111	3	-1	14	38	2	stim015_inanimate_boats_3.png	boat_6_upper	NaN	0	0	0	139.235077944701	139.335076652525	0.0999987078248523
153396	100	496	3	left+right	0	112	3	-1	21	29	2	stim022_inanimate_tools_2.png	bird_3_lower_it	NaN	0	0	0	139.435080480296	139.535080163332	0.0999996830360033
153596	100	497	3	left+right	0	113	3	-1	42	3	2	tree_7_upper	stim004_animate_fish_4.png	NaN	0	0	0	139.635084478767	139.735087575158	0.100003096391447
153796	100	498	3	left+right	0	114	3	-1	18	37	2	stim019_inanimate_tree_3.png	boat_5_lower_it	NaN	0	0	0	139.835094816284	139.935094011715	0.0999991954304278
153996	100	499	3	left+right	0	115	3	-1	4	1	2	stim005_animate_bird_1.png	stim002_animate_fish_2.png	NaN	0	0	0	140.035094426188	140.135098254017	0.100003827828914
154196	100	500	3	left+right	0	116	3	-1	37	29	2	boat_5_lower_it	bird_3_lower_it	NaN	0	0	0	140.23510232562	140.335103471531	0.100001145910937
154396	100	501	3	left+right	0	117	3	-1	45	17	2	tool_7_lower_it	stim018_inanimate_tree_2.png	NaN	0	0	0	140.435107786965	140.535110883357	0.100003096391447
154596	100	502	3	left+right	0	118	3	-1	33	23	2	face_4_lower_it	stim024_inanimate_tools_4.png	NaN	0	0	0	140.635112516873	140.735117319913	0.100004803040065
154796	100	503	3	left+right	0	119	3	-1	11	47	2	stim012_animate_face_4.png	tool_9_upper_it	NaN	0	0	0	140.835121391574	140.935118636524	0.0999972449499182
154996	100	504	3	left+right	0	120	3	-1	33	32	2	face_4_lower_it	face_3_lower	NaN	0	0	0	141.03513148526	141.135112394986	0.0999809097265825
155196	100	505	3	left+right	0	121	3	-1	39	25	2	boat_7_upper_it	fish_2_lower_it	NaN	0	0	0	141.235131582769	141.335137117247	0.100005534477532
155396	100	506	3	left+right	0	122	3	-1	19	42	2	stim020_inanimate_tree_4.png	tree_7_upper	NaN	0	0	0	141.435138019326	141.5351396529	0.10000163357472
155596	100	507	3	left+right	0	123	3	-1	10	32	2	stim011_animate_face_3.png	face_3_lower	NaN	0	0	0	141.635148600675	141.735144870414	0.0999962697387673
155796	100	508	3	left+right	0	124	3	-1	42	47	2	tree_7_upper	tool_9_upper_it	NaN	0	0	0	141.835146747762	141.935147893615	0.10000114585273
155996	100	509	3	left+right	0	125	3	-1	30	29	2	bird_4_upper	bird_3_lower_it	NaN	0	0	0	142.035151721444	142.135157499753	0.100005778309423
156196	100	510	3	left+right	0	126	3	-1	26	30	2	fish_3_upper	bird_4_upper	NaN	0	0	0	142.235162302793	142.335160035349	0.0999977325554937
156396	100	511	3	left+right	0	127	3	-1	46	23	2	tool_8_upper	stim024_inanimate_tools_4.png	NaN	0	0	0	142.435164594615	142.535165009089	0.10000041447347
156596	100	512	3	left+right	0	128	3	-1	30	0	2	bird_4_upper	stim001_animate_fish_1.png	NaN	0	0	0	142.635170299734	142.735165594204	0.0999952944694087
156796	100	513	3	left+right	0	129	3	-1	9	21	2	stim010_animate_face_2.png	stim022_inanimate_tools_2.png	NaN	0	0	0	142.835172591556	142.93517300603	0.10000041447347
156996	100	514	3	left+right	0	130	3	-1	33	42	2	face_4_lower_it	tree_7_upper	NaN	0	0	0	143.035174151941	143.135182855942	0.100008704001084
157196	100	515	3	left+right	0	131	3	-1	3	41	2	stim004_animate_fish_4.png	tree_6_lower_it	NaN	0	0	0	143.235186927544	143.335180759139	0.0999938315944746
157396	100	516	3	left+right	0	132	3	-1	20	28	2	stim021_inanimate_tools_1.png	bird_2_lower	NaN	0	0	0	143.435194826976	143.535160132858	0.0999653058825061
157596	100	517	3	left+right	0	133	3	-1	45	2	2	tool_7_lower_it	stim003_animate_fish_3.png	NaN	0	0	0	143.635198094009	143.735192413267	0.0999943192582577
157796	100	518	3	left+right	0	134	3	-1	47	12	2	tool_9_upper_it	stim013_inanimate_boats_1.png	NaN	0	0	0	143.835194046784	143.935199825035	0.100005778251216
157996	100	519	3	left+right	0	135	3	-1	22	41	2	stim023_inanimate_tools_3.png	tree_6_lower_it	NaN	0	0	0	144.035203896696	144.135204067337	0.100000170641579
158196	100	520	3	left+right	0	136	3	-1	25	38	2	fish_2_lower_it	boat_6_upper	NaN	0	0	0	144.235196192283	144.335211479163	0.10001528688008
158396	100	521	3	left+right	0	137	3	-1	16	16	2	stim017_inanimate_tree_1.png	stim017_inanimate_tree_1.png	NaN	0	0	0	144.435213356512	144.535215233802	0.100001877290197
158596	100	522	3	left+right	0	138	3	-1	3	0	2	stim004_animate_fish_4.png	stim001_animate_fish_1.png	NaN	0	0	0	144.635227107327	144.735218988499	0.0999918811721727
158796	100	523	3	left+right	0	139	3	-1	26	29	2	fish_3_upper	bird_3_lower_it	NaN	0	0	0	144.83522208489	144.935234689794	0.100012604903895
158996	100	524	3	left+right	0	140	3	-1	11	34	2	stim012_animate_face_4.png	face_5_upper	NaN	0	0	0	145.035235104267	145.135240394971	0.100005290703848
159196	100	525	3	left+right	0	141	3	-1	14	28	2	stim015_inanimate_boats_3.png	bird_2_lower	NaN	0	0	0	145.235230325605	145.335233909602	0.100003583997022
159396	100	526	3	left+right	0	142	3	-1	32	45	2	face_3_lower	tool_7_lower_it	NaN	0	0	0	145.435249440314	145.535221572849	0.0999721325351857
159596	100	527	3	left+right	0	143	3	-1	9	25	2	stim010_animate_face_2.png	fish_2_lower_it	NaN	0	0	0	145.635251732077	145.735248245648	0.0999965135706589
159796	100	528	3	left+right	0	144	3	-1	19	10	2	stim020_inanimate_tree_4.png	stim011_animate_face_3.png	NaN	0	0	0	145.835254755337	145.935254438373	0.0999996830360033
159996	100	529	3	left+right	0	145	3	-1	0	3	2	stim001_animate_fish_1.png	stim004_animate_fish_4.png	NaN	0	0	0	146.035258997639	146.135263313074	0.100004315434489
160196	100	530	3	left+right	0	146	3	-1	5	47	2	stim006_animate_bird_2.png	tool_9_upper_it	NaN	0	0	0	146.235264458985	146.335274138197	0.100009679212235
160396	100	531	3	left+right	0	147	3	-1	19	27	2	stim020_inanimate_tree_4.png	fish_4_upper_it	NaN	0	0	0	146.435274796502	146.535263995698	0.0999891991959885
160596	100	532	3	left+right	0	148	3	-1	5	20	2	stim006_animate_bird_2.png	stim021_inanimate_tools_1.png	NaN	0	0	0	146.635273674969	146.735277502739	0.100003827770706
160796	100	533	3	left+right	0	149	3	-1	22	29	2	stim023_inanimate_tools_3.png	bird_3_lower_it	NaN	0	0	0	146.835275235353	146.935281257436	0.100006022083107
160996	100	534	3	left+right	0	150	3	-1	42	36	2	tree_7_upper	boat_4_lower	NaN	0	0	0	147.035286791914	147.135287693993	0.100000902079046
161196	100	535	3	left+right	0	151	3	-1	0	1	2	stim001_animate_fish_1.png	stim002_animate_fish_2.png	NaN	0	0	0	147.235292009427	147.335294130549	0.100002121122088
161396	100	536	3	left+right	0	152	3	-1	15	44	2	stim016_inanimate_boats_4.png	tool_6_lower	NaN	0	0	0	147.435302103171	147.535282769066	0.0999806658946909
161596	100	537	3	left+right	0	153	3	-1	40	10	2	tree_5_lower	stim011_animate_face_3.png	NaN	0	0	0	147.635272699699	147.735304077971	0.100031378271524
161796	100	538	3	left+right	0	154	3	-1	27	17	2	fish_4_upper_it	stim018_inanimate_tree_2.png	NaN	0	0	0	147.835306930589	147.935308807879	0.100001877290197
161996	100	539	3	left+right	0	155	3	-1	1	41	2	stim002_animate_fish_2.png	tree_6_lower_it	NaN	0	0	0	148.035313367145	148.135307930177	0.0999945630319417
162196	100	540	3	left+right	0	156	3	-1	8	27	2	stim009_animate_face_1.png	fish_4_upper_it	NaN	0	0	0	148.235317609448	148.335316804878	0.0999991954304278
162396	100	541	3	left+right	0	157	3	-1	34	36	2	face_5_upper	boat_4_lower	NaN	0	0	0	148.435320876481	148.535324948083	0.100004071602598
162596	100	542	3	left+right	0	158	3	-1	43	2	2	tree_8_upper_it	stim003_animate_fish_3.png	NaN	0	0	0	148.635330970166	148.735328946554	0.0999979763873853
162796	100	543	3	left+right	0	159	3	-1	28	24	2	bird_2_lower	fish_1_lower	NaN	0	0	0	148.835332530551	148.935338065028	0.100005534477532
162996	100	544	3	left+right	0	160	3	-1	33	10	2	face_4_lower_it	stim011_animate_face_3.png	NaN	0	0	0	149.035338967165	149.135338162596	0.0999991954304278
163196	100	545	3	left+right	0	161	3	-1	41	46	2	tree_6_lower_it	tool_8_upper	NaN	0	0	0	149.235357594211	149.335348987719	0.0999913935083896
163396	100	546	3	left+right	0	162	3	-1	34	37	2	face_5_upper	boat_5_lower_it	NaN	0	0	0	149.435345501231	149.53534737858	0.100001877348404
163596	100	547	3	left+right	0	163	3	-1	10	41	2	stim011_animate_face_3.png	tree_6_lower_it	NaN	0	0	0	149.635353400663	149.735348938964	0.0999955383013003
163796	100	548	3	left+right	0	164	3	-1	32	38	2	face_3_lower	boat_6_upper	NaN	0	0	0	149.835360812489	149.935364152654	0.100003340165131
163996	100	549	3	left+right	0	165	3	-1	4	5	2	stim005_animate_bird_1.png	stim006_animate_bird_2.png	NaN	0	0	0	150.035369199526	150.135352791112	0.0999835915863514
164196	100	550	3	left+right	0	166	3	-1	0	31	2	stim001_animate_fish_1.png	bird_5_upper_it	NaN	0	0	0	150.235372710391	150.33535752102	0.0999848106293939
164396	100	551	3	left+right	0	167	3	-1	9	0	2	stim010_animate_face_2.png	stim001_animate_fish_1.png	NaN	0	0	0	150.435376221256	150.535367127159	0.0999909059028141
164596	100	552	3	left+right	0	168	3	-1	16	47	2	stim017_inanimate_tree_1.png	tool_9_upper_it	NaN	0	0	0	150.635386802547	150.735377464676	0.0999906621291302
164796	100	553	3	left+right	NaN	169	3	-1	10	6	2	stim011_animate_face_3.png	stim007_animate_bird_3.png	NaN	0	0	0	150.835385681014	150.93539779837	0.100012117356528
164996	100	554	3	left+right	0	170	3	-1	5	0	2	stim006_animate_bird_2.png	stim001_animate_fish_1.png	NaN	0	0	0	151.035367736651	151.135393751145	0.100026014493778
165196	100	555	3	left+right	0	171	3	-1	42	14	2	tree_7_upper	stim015_inanimate_boats_3.png	NaN	0	0	0	151.235397822747	151.335400187701	0.10000236495398
165396	100	556	3	left+right	0	172	3	-1	38	10	2	boat_6_upper	stim011_animate_face_3.png	NaN	1	0.493140785605647	1	151.435404990742	151.535404673778	0.0999996830360033
165596	100	557	3	left+right	0	173	3	-1	4	30	2	stim005_animate_bird_1.png	bird_4_upper	NaN	0	0	0	151.635407282563	151.735408184642	0.100000902079046
165796	100	558	3	left+right	0	174	3	-1	36	9	2	boat_4_lower	stim010_animate_face_2.png	NaN	0	0	0	151.835414206726	151.935417546949	0.100003340223338
165996	100	559	3	left+right	0	175	3	-1	6	3	2	stim007_animate_bird_3.png	stim004_animate_fish_4.png	NaN	0	0	0	152.035422349989	152.135391800664	0.0999694506754167
166196	100	560	3	left+right	0	176	3	-1	20	42	2	stim021_inanimate_tools_1.png	tree_7_upper	NaN	0	0	0	152.235426592291	152.33541993628	0.0999933439888991
166396	100	561	3	left+right	0	177	3	-1	35	20	2	face_6_upper_it	stim021_inanimate_tools_1.png	NaN	0	0	0	152.435430590762	152.535416620434	0.0999860296724364
166596	100	562	3	left+right	0	178	3	-1	13	0	2	stim014_inanimate_boats_2.png	stim001_animate_fish_1.png	NaN	0	0	0	152.635416547302	152.735449632281	0.10003308497835
166796	100	563	3	left+right	0	179	3	-1	46	9	2	tool_8_upper	stim010_animate_face_2.png	NaN	0	0	0	152.835437612433	152.935437051696	0.0999994392623194
166996	100	564	3	left+right	0	180	3	-1	4	12	2	stim005_animate_bird_1.png	stim013_inanimate_boats_1.png	NaN	0	0	0	153.035443073779	153.135439831123	0.0999967573443428
167196	100	565	3	left+right	0	181	3	-1	2	6	2	stim003_animate_fish_3.png	stim007_animate_bird_3.png	NaN	0	0	0	153.235449266562	153.335446511512	0.0999972449499182
167396	100	566	3	left+right	0	182	3	-1	44	15	2	tool_6_lower	stim016_inanimate_boats_4.png	NaN	0	0	0	153.435457409767	153.535453923338	0.0999965135706589
167596	100	567	3	left+right	0	183	3	-1	33	18	2	face_4_lower_it	stim019_inanimate_tree_3.png	NaN	0	0	0	153.635473354952	153.735459384625	0.0999860296724364
167796	100	568	3	left+right	0	184	3	-1	31	2	2	bird_5_upper_it	stim003_animate_fish_3.png	NaN	0	0	0	153.835464187723	153.935465577408	0.100001389684621
167996	100	569	3	left+right	0	185	3	-1	38	32	2	boat_6_upper	face_3_lower	NaN	0	0	0	154.035733938508	154.135470794921	0.0997368564130738
168196	100	570	3	left+right	0	186	3	-1	21	19	2	stim022_inanimate_tools_2.png	stim020_inanimate_tree_4.png	NaN	0	0	0	154.235476817004	154.335480401001	0.100003583997022
168396	100	571	3	left+right	0	187	3	-1	24	23	2	fish_1_lower	stim024_inanimate_tools_4.png	NaN	0	0	0	154.435478377389	154.535479279526	0.100000902137253
168596	100	572	3	left+right	0	188	3	-1	32	16	2	face_3_lower	stim017_inanimate_tree_1.png	NaN	0	0	0	154.635488471133	154.735466211336	0.0999777402030304
168796	100	573	3	left+right	0	189	3	-1	14	39	2	stim015_inanimate_boats_3.png	boat_7_upper_it	NaN	0	0	0	154.835493444814	154.935495565995	0.100002121180296
168996	100	574	3	left+right	0	190	3	-1	29	17	2	bird_3_lower_it	stim018_inanimate_tree_2.png	NaN	0	0	0	155.035496224242	155.135498589196	0.10000236495398
169196	100	575	3	left+right	0	191	3	-1	3	19	2	stim004_animate_fish_4.png	stim020_inanimate_tree_4.png	NaN	0	0	0	155.235502417025	155.335506244854	0.100003827828914
176663	100	576	1	center	0	0	5	34	-1	-1	3			NaN	0	0	0	162.702375411522	162.802342667943	0.0999672564212233
176863	100	577	1	center	0	1	5	17	-1	-1	3			NaN	0	0	0	162.902369413816	163.002370072121	0.100000658305362
177063	100	578	1	center	0	2	5	33	-1	-1	3			NaN	0	0	0	163.102377069416	163.20238626108	0.100009191664867
177263	100	579	1	center	0	3	5	16	-1	-1	3			NaN	0	0	0	163.302657791704	163.402385627152	0.0997278354479931
177463	100	580	1	center	0	4	5	30	-1	-1	3			NaN	0	0	0	163.502389942587	163.602392307541	0.10000236495398
177663	100	581	1	center	0	5	5	8	-1	-1	3			NaN	0	0	0	163.702391746745	163.802398256492	0.100006509746891
177863	100	582	1	center	0	6	5	25	-1	-1	3			NaN	0	0	0	163.902400377614	164.002399085439	0.0999987078248523
178063	100	583	1	center	0	7	5	6	-1	-1	3			NaN	0	0	0	164.102406326565	164.202403327741	0.0999970011762343
178263	100	584	1	center	0	8	5	23	-1	-1	3			NaN	0	0	0	164.302371315542	164.402410983341	0.100039667799138
178463	100	585	1	center	0	9	5	4	-1	-1	3			NaN	0	0	0	164.502429195913	164.602413518936	0.0999843230238184
178663	100	586	1	center	0	10	5	47	-1	-1	3			NaN	0	0	0	164.702424661082	164.802400450746	0.0999757896643132
178863	100	587	1	center	0	11	5	39	-1	-1	3			NaN	0	0	0	164.90240769193	165.002413470182	0.100005778251216
179063	100	588	1	center	0	12	5	37	-1	-1	3			NaN	0	0	0	165.102425587538	165.202436973457	0.100011385919061
179263	100	589	1	center	0	13	5	32	-1	-1	3			NaN	0	0	0	165.302439094579	165.402433901443	0.0999948068638332
179463	100	590	1	center	0	14	5	1	-1	-1	3			NaN	0	0	0	165.502452357789	165.60245082184	0.0999984640511684
179663	100	591	1	center	0	15	5	19	-1	-1	3			NaN	0	0	0	165.702449529606	165.802441654552	0.0999921249458566
179863	100	592	1	center	NaN	16	5	28	-1	-1	3			NaN	0	0	0	165.902448651905	166.002451016859	0.10000236495398
180063	100	593	1	center	0	17	5	21	-1	-1	3			NaN	0	0	0	166.10245972086	166.202462329646	0.100002608785871
180263	100	594	1	center	0	18	5	38	-1	-1	3			NaN	1	0.403122175601311	1	166.302466401248	166.402451211936	0.0999848106876016
180463	100	595	1	center	0	19	5	29	-1	-1	3			NaN	0	0	0	166.502450407366	166.60247910372	0.100028696353547
180663	100	596	1	center	0	20	5	2	-1	-1	3			NaN	0	0	0	166.702472203935	166.802473349788	0.10000114585273
180863	100	597	1	center	0	21	5	18	-1	-1	3			NaN	0	0	0	166.902482053789	167.002478811133	0.0999967573443428
181063	100	598	1	center	0	22	5	31	-1	-1	3			NaN	0	0	0	167.102491416095	167.202498657221	0.10000724112615
181263	100	599	1	center	0	23	5	43	-1	-1	3			NaN	0	0	0	167.302489075519	167.402493390953	0.100004315434489
181463	100	600	1	center	0	24	5	40	-1	-1	3			NaN	0	0	0	167.502494049259	167.602777282707	0.100283233448863
181663	100	601	1	center	0	25	5	15	-1	-1	3			NaN	0	0	0	167.702503411507	167.802505288855	0.100001877348404
181863	100	602	1	center	0	26	5	10	-1	-1	3			NaN	0	0	0	167.902505947161	168.002473203524	0.0999672563630156
182063	100	603	1	center	0	27	5	11	-1	-1	3			NaN	0	0	0	168.102497998974	168.202515236277	0.100017237302382
182263	100	604	1	center	0	28	5	9	-1	-1	3			NaN	0	0	0	168.302521014586	168.402518259536	0.0999972449499182
182463	100	605	1	center	0	29	5	5	-1	-1	3			NaN	0	0	0	168.502524525451	168.60251031135	0.0999857858987525
182663	100	606	1	center	0	30	5	41	-1	-1	3			NaN	0	0	0	168.702527061047	168.802528206958	0.100001145910937
182863	100	607	1	center	0	31	5	12	-1	-1	3			NaN	0	0	0	168.902531059517	169.002537325432	0.100006265914999
183063	100	608	1	center	0	32	5	14	-1	-1	3			NaN	0	0	0	169.10253993416	169.202537666773	0.0999977326137014
183263	100	609	1	center	0	33	5	36	-1	-1	3			NaN	0	0	0	169.302542957419	169.402530693798	0.0999877363792621
183463	100	610	1	center	0	34	5	45	-1	-1	3			NaN	0	0	0	169.502550125413	169.602546882757	0.0999967573443428
183663	100	611	1	center	0	35	5	35	-1	-1	3			NaN	0	0	0	169.70255948772	169.8025557574	0.0999962696805596
183863	100	612	1	center	0	36	5	27	-1	-1	3			NaN	0	0	0	169.902564461401	170.002562925394	0.0999984639929608
184063	100	613	1	center	0	37	5	46	-1	-1	3			NaN	0	0	0	170.102570410352	170.202537910547	0.0999675001949072
184263	100	614	1	center	0	38	5	24	-1	-1	3			NaN	0	0	0	170.302568069776	170.40257238521	0.100004315434489
184463	100	615	1	center	0	39	5	0	-1	-1	3			NaN	0	0	0	170.502578651125	170.602530791308	0.0999521401827224
184663	100	616	1	center	0	40	5	42	-1	-1	3			NaN	0	0	0	170.702588501037	170.802587452636	0.0999989515985362
184863	100	617	1	center	0	41	5	22	-1	-1	3			NaN	0	0	0	170.902585916629	171.002591451106	0.100005534477532
185063	100	618	1	center	0	42	5	26	-1	-1	3			NaN	0	0	0	171.102596010373	171.202594961971	0.0999989515985362
185263	100	619	1	center	0	43	5	13	-1	-1	3			NaN	0	0	0	171.302594645007	171.402601398586	0.100006753578782
185463	100	620	1	center	0	44	5	3	-1	-1	3			NaN	0	0	0	171.502605957794	171.602606128436	0.100000170641579
185663	100	621	1	center	0	45	5	20	-1	-1	3			NaN	0	0	0	171.702580699115	171.802607201214	0.100026502099354
185863	100	622	1	center	0	46	5	7	-1	-1	3			NaN	0	0	0	171.90261541761	172.002617782564	0.10000236495398
186063	100	623	1	center	0	47	5	44	-1	-1	3			NaN	0	0	0	172.102620147518	172.202621537203	0.100001389684621
186263	100	624	1	center	0	48	5	1	-1	-1	3			NaN	0	0	0	172.302619025984	172.402624072856	0.100005046871956
186463	100	625	1	center	0	49	5	27	-1	-1	3			NaN	0	0	0	172.502625462541	172.602629046538	0.100003583997022
186663	100	626	1	center	0	50	5	38	-1	-1	3			NaN	0	0	0	172.702635068621	172.802611589781	0.0999765211599879
186863	100	627	1	center	NaN	51	5	43	-1	-1	3			NaN	0	0	0	172.902635409962	173.002641919709	0.100006509746891
187063	100	628	1	center	0	52	5	46	-1	-1	3			NaN	0	0	0	173.102635019866	173.20264299243	0.100007972563617
187263	100	629	1	center	0	53	5	17	-1	-1	3			NaN	1	0.400177932169754	1	173.302654134575	173.402655768092	0.100001633516513
187463	100	630	1	center	0	54	5	23	-1	-1	3			NaN	0	0	0	173.502658133046	173.602656597039	0.0999984639929608
187663	100	631	1	center	0	55	5	26	-1	-1	3			NaN	0	0	0	173.702659205766	173.802669128811	0.100009923044126
187863	100	632	1	center	0	56	5	25	-1	-1	3			NaN	0	0	0	173.902652720455	174.002656304452	0.100003583997022
188063	100	633	1	center	0	57	5	45	-1	-1	3			NaN	0	0	0	174.102650867484	174.202656889625	0.100006022141315
188263	100	634	1	center	0	58	5	29	-1	-1	3			NaN	0	0	0	174.302709966898	174.402667958522	0.099957991624251
188463	100	635	1	center	0	59	5	3	-1	-1	3			NaN	0	0	0	174.502683245402	174.602684878919	0.100001633516513
188663	100	636	1	center	0	60	5	6	-1	-1	3			NaN	0	0	0	174.702687000099	174.802687170741	0.100000170641579
188863	100	637	1	center	NaN	61	5	30	-1	-1	3			NaN	0	0	0	174.902691242343	175.002689950168	0.0999987078248523
189063	100	638	1	center	0	62	5	2	-1	-1	3			NaN	0	0	0	175.102696216083	175.202699312475	0.100003096391447
189263	100	639	1	center	0	63	5	0	-1	-1	3			NaN	0	0	0	175.302703384077	175.402686000452	0.0999826163752005
189463	100	640	1	center	0	64	5	33	-1	-1	3			NaN	1	0.492762880865484	1	175.502709089196	175.602707065584	0.0999979763873853
189663	100	641	1	center	0	65	5	40	-1	-1	3			NaN	0	0	0	175.702720158151	175.802718378371	0.0999982202192768
189863	100	642	1	center	0	66	5	36	-1	-1	3			NaN	0	0	0	175.902725619497	176.002749439678	0.100023820181377
190063	100	643	1	center	0	67	5	18	-1	-1	3			NaN	0	0	0	176.102727667487	176.202730763878	0.100003096391447
190263	100	644	1	center	0	68	5	4	-1	-1	3			NaN	0	0	0	176.30272825266	176.402743051876	0.100014799216297
190463	100	645	1	center	0	69	5	16	-1	-1	3			NaN	0	0	0	176.502724205377	176.6027407113	0.100016505923122
190663	100	646	1	center	0	70	5	34	-1	-1	3			NaN	0	0	0	176.702746001945	176.802738126949	0.0999921250040643
190863	100	647	1	center	0	71	5	24	-1	-1	3			NaN	0	0	0	176.902746587119	177.002751390159	0.100004803040065
191063	100	648	1	center	0	72	5	11	-1	-1	3			NaN	0	0	0	177.102752292238	177.202753194375	0.100000902137253
191263	100	649	1	center	0	73	5	42	-1	-1	3			NaN	0	0	0	177.302767993591	177.4027593871	0.0999913935083896
191463	100	650	1	center	0	74	5	8	-1	-1	3			NaN	0	0	0	177.502762483491	177.602737541776	0.0999750582850538
191663	100	651	1	center	0	75	5	28	-1	-1	3			NaN	0	0	0	177.702767944837	177.80276835931	0.10000041447347
191863	100	652	1	center	0	76	5	41	-1	-1	3			NaN	0	0	0	177.902778038522	178.00274968351	0.0999716449878179
192063	100	653	1	center	0	77	5	15	-1	-1	3			NaN	0	0	0	178.10278081795	178.202798542916	0.100017724966165
192263	100	654	1	center	0	78	5	7	-1	-1	3			NaN	0	0	0	178.30278213456	178.402782792808	0.100000658247154
192463	100	655	1	center	0	79	5	22	-1	-1	3			NaN	0	0	0	178.502787108242	178.602793130325	0.100006022083107
192663	100	656	1	center	0	80	5	37	-1	-1	3			NaN	0	0	0	178.702799640072	178.802797128796	0.0999974887236021
192863	100	657	1	center	0	81	5	21	-1	-1	3			NaN	0	0	0	178.902787303319	179.002800639661	0.100013336341362
193063	100	658	1	center	0	82	5	5	-1	-1	3			NaN	0	0	0	179.102807149407	179.20280927053	0.100002121122088
193263	100	659	1	center	0	83	5	31	-1	-1	3			NaN	0	0	0	179.302777014556	179.402811806125	0.10003479156876
193463	100	660	1	center	0	84	5	47	-1	-1	3			NaN	0	0	0	179.502817584435	179.602817511302	0.0999999268678948
193663	100	661	1	center	0	85	5	32	-1	-1	3			NaN	0	0	0	179.702826702909	179.802829067863	0.10000236495398
193863	100	662	1	center	0	86	5	13	-1	-1	3			NaN	0	0	0	179.902831920423	180.002833066334	0.100001145910937
194063	100	663	1	center	0	87	5	35	-1	-1	3			NaN	0	0	0	180.102834456076	180.202818047663	0.0999835915863514
194263	100	664	1	center	0	88	5	9	-1	-1	3			NaN	0	0	0	180.302826995496	180.402832286141	0.10000529064564
194463	100	665	1	center	0	89	5	12	-1	-1	3			NaN	0	0	0	180.502843428229	180.602851157018	0.100007728789933
194663	100	666	1	center	0	90	5	39	-1	-1	3			NaN	0	0	0	180.702848158136	180.802845159313	0.0999970011762343
194863	100	667	1	center	0	91	5	10	-1	-1	3			NaN	0	0	0	180.902855569962	181.002845744428	0.0999901744653471
195063	100	668	1	center	0	92	5	20	-1	-1	3			NaN	0	0	0	181.102861275082	181.202866078122	0.100004803040065
195263	100	669	1	center	0	93	5	19	-1	-1	3			NaN	0	0	0	181.302865029778	181.40286812617	0.100003096391447
195463	100	670	1	center	0	94	5	14	-1	-1	3			NaN	0	0	0	181.502871222503	181.602873099851	0.100001877348404
195663	100	671	1	center	0	95	5	44	-1	-1	3			NaN	0	0	0	181.702868150547	181.80287417263	0.100006022083107
195863	100	672	1	center	0	96	5	0	-1	-1	3			NaN	0	0	0	181.90287897567	182.002881340624	0.10000236495398
196063	100	673	1	center	0	97	5	24	-1	-1	3			NaN	0	0	0	182.102879560785	182.202892165747	0.100012604962103
196263	100	674	1	center	0	98	5	26	-1	-1	3			NaN	0	0	0	182.302887460217	182.402878122346	0.0999906621291302
196463	100	675	1	center	0	99	5	6	-1	-1	3			NaN	0	0	0	182.502889020601	182.60290601413	0.100016993528698
196663	100	676	1	center	0	100	5	1	-1	-1	3			NaN	0	0	0	182.702901552431	182.80290538026	0.100003827828914
196863	100	677	1	center	0	101	5	41	-1	-1	3			NaN	0	0	0	182.902906769945	183.002869881573	0.0999631116283126
197063	100	678	1	center	0	102	5	4	-1	-1	3			NaN	0	0	0	183.102918814111	183.202918009541	0.0999991954304278
197263	100	679	1	center	NaN	103	5	11	-1	-1	3			NaN	0	0	0	183.30292183737	183.402919569926	0.0999977325554937
197463	100	680	1	center	0	104	5	29	-1	-1	3			NaN	0	0	0	183.502925835841	183.602936002717	0.100010166876018
197663	100	681	1	center	0	105	5	46	-1	-1	3			NaN	1	0.392277529346757	1	183.702930565749	183.802932199265	0.100001633516513
197863	100	682	1	center	0	106	5	32	-1	-1	3			NaN	0	0	0	183.902937733743	184.002918643469	0.0999809097265825
198063	100	683	1	center	0	107	5	18	-1	-1	3			NaN	0	0	0	184.102942951256	184.202951411484	0.1000084602274
198263	100	684	1	center	0	108	5	9	-1	-1	3			NaN	0	0	0	184.302949875477	184.402947120427	0.0999972449499182
198463	100	685	1	center	0	109	5	35	-1	-1	3			NaN	0	0	0	184.502936075849	184.602950631292	0.100014555442613
198663	100	686	1	center	0	110	5	33	-1	-1	3			NaN	0	0	0	184.702980302915	184.802956336411	0.0999760334962048
198863	100	687	1	center	0	111	5	44	-1	-1	3			NaN	0	0	0	184.902964065201	185.002928395872	0.0999643306713551
199063	100	688	1	center	0	112	5	16	-1	-1	3			NaN	0	0	0	185.102965381753	185.202977986715	0.100012604962103
199263	100	689	1	center	0	113	5	47	-1	-1	3			NaN	0	0	0	185.302979620232	185.4029795471	0.0999999268678948
199463	100	690	1	center	0	114	5	14	-1	-1	3			NaN	0	0	0	185.50298435014	185.60299671127	0.100012361130212
199663	100	691	1	center	0	115	5	12	-1	-1	3			NaN	0	0	0	185.702986154298	185.802990713564	0.100004559266381
199863	100	692	1	center	0	116	5	25	-1	-1	3			NaN	0	0	0	185.902994785167	186.002995931078	0.100001145910937
200063	100	693	1	center	0	117	5	20	-1	-1	3			NaN	0	0	0	186.103003172204	186.203000904818	0.0999977326137014
200263	100	694	1	center	0	118	5	22	-1	-1	3			NaN	0	0	0	186.303005220194	186.403004415624	0.0999991954304278
200463	100	695	1	center	0	119	5	23	-1	-1	3			NaN	0	0	0	186.502991176792	186.602990128391	0.0999989515985362
200664	100	696	1	center	0	120	5	7	-1	-1	3			NaN	0	0	0	186.703002977185	186.803014119272	0.100011142087169
200864	100	697	1	center	0	121	5	17	-1	-1	3			NaN	0	0	0	186.903012827097	187.003019336786	0.100006509688683
201064	100	698	1	center	0	122	5	28	-1	-1	3			NaN	0	0	0	187.103029747435	187.203016752435	0.0999870050000027
201264	100	699	1	center	0	123	5	30	-1	-1	3			NaN	0	0	0	187.303019361163	187.403027577559	0.100008216395508
201464	100	700	1	center	0	124	5	27	-1	-1	3			NaN	0	0	0	187.503026529157	187.60303352651	0.100006997352466
201664	100	701	1	center	0	125	5	38	-1	-1	3			NaN	0	0	0	187.703040036198	187.803039231629	0.0999991954304278
201864	100	702	1	center	0	126	5	13	-1	-1	3			NaN	0	0	0	187.90303476993	188.003044449142	0.100009679212235
202064	100	703	1	center	0	127	5	5	-1	-1	3			NaN	0	0	0	188.10305290937	188.203032112389	0.0999792030197568
202264	100	704	1	center	NaN	128	5	31	-1	-1	3			NaN	0	0	0	188.303053250711	188.403065855673	0.100012604962103
202464	100	705	1	center	0	129	5	15	-1	-1	3			NaN	0	0	0	188.503061150142	188.603067659831	0.100006509688683
202664	100	706	1	center	0	130	5	10	-1	-1	3			NaN	0	0	0	188.703063441906	188.803058980207	0.0999955383013003
202864	100	707	1	center	0	131	5	3	-1	-1	3			NaN	1	0.49259245803114	1	188.903066952771	189.003071512037	0.100004559266381
203064	100	708	1	center	0	132	5	43	-1	-1	3			NaN	0	0	0	189.103076802683	189.203075510508	0.0999987078248523
203264	100	709	1	center	0	133	5	8	-1	-1	3			NaN	0	0	0	189.303080313548	189.403077070892	0.0999967573443428
203464	100	710	1	center	0	134	5	19	-1	-1	3			NaN	0	0	0	189.503087725374	189.603334875021	0.100247149646748
203664	100	711	1	center	0	135	5	2	-1	-1	3			NaN	0	0	0	189.703088798095	189.803092138318	0.100003340223338
203864	100	712	1	center	0	136	5	34	-1	-1	3			NaN	0	0	0	189.903093040397	190.003092723433	0.0999996830360033
204064	100	713	1	center	0	137	5	21	-1	-1	3			NaN	0	0	0	190.10310386552	190.203093796212	0.0999899306916632
204264	100	714	1	center	0	138	5	42	-1	-1	3			NaN	0	0	0	190.303103475424	190.403102427081	0.0999989516567439
204464	100	715	1	center	0	139	5	45	-1	-1	3			NaN	0	0	0	190.503111131082	190.603096916981	0.0999857858987525
204664	100	716	1	center	0	140	5	40	-1	-1	3			NaN	0	0	0	190.703144386702	190.803114081151	0.0999696944491006
204864	100	717	1	center	0	141	5	37	-1	-1	3			NaN	0	0	0	190.903121809941	191.00312271202	0.100000902079046
205064	100	718	1	center	0	142	5	39	-1	-1	3			NaN	0	0	0	191.103125808411	191.203131342889	0.100005534477532
205264	100	719	1	center	0	143	5	36	-1	-1	3			NaN	0	0	0	191.303132001136	191.403142411844	0.10001041070791
205464	100	720	1	center	0	144	5	33	-1	-1	3			NaN	0	0	0	191.503130879661	191.603144703608	0.100013823946938
205664	100	721	1	center	0	145	5	46	-1	-1	3			NaN	0	0	0	191.703132196213	191.803144557343	0.100012361130212
205864	100	722	1	center	0	146	5	12	-1	-1	3			NaN	0	0	0	191.90315374895	192.003154651087	0.100000902137253
206064	100	723	1	center	0	147	5	44	-1	-1	3			NaN	0	0	0	192.103176033183	192.203158649558	0.0999826163752005
206264	100	724	1	center	0	148	5	32	-1	-1	3			NaN	0	0	0	192.303161502117	192.403158747067	0.0999972449499182
206464	100	725	1	center	0	149	5	39	-1	-1	3			NaN	0	0	0	192.503184761561	192.603165183624	0.0999804220627993
206664	100	726	1	center	0	150	5	41	-1	-1	3			NaN	0	0	0	192.703167060972	192.803167963051	0.100000902079046
206864	100	727	1	center	0	151	5	34	-1	-1	3			NaN	0	0	0	192.903158381348	193.003170254873	0.100011873524636
207064	100	728	1	center	NaN	152	5	4	-1	-1	3			NaN	0	0	0	193.10315774742	193.203157430515	0.0999996830942109
207264	100	729	1	center	0	153	5	15	-1	-1	3			NaN	0	0	0	193.303161258285	193.403160453716	0.0999991954304278
207464	100	730	1	center	0	154	5	25	-1	-1	3			NaN	0	0	0	193.503185249167	193.603170059796	0.0999848106293939
207664	100	731	1	center	0	155	5	29	-1	-1	3			NaN	1	0.592286647763103	1	193.703178032418	193.803179665934	0.100001633516513
207864	100	732	1	center	0	156	5	7	-1	-1	3			NaN	0	0	0	193.903202754678	194.003211214847	0.100008460169192
208064	100	733	1	center	0	157	5	3	-1	-1	3			NaN	0	0	0	194.103214067407	194.203227403807	0.10001333639957
208264	100	734	1	center	0	158	5	24	-1	-1	3			NaN	0	0	0	194.3032127021	194.403212872741	0.100000170641579
208464	100	735	1	center	0	159	5	5	-1	-1	3			NaN	0	0	0	194.503203778702	194.603220528399	0.100016749696806
208664	100	736	1	center	0	160	5	6	-1	-1	3			NaN	0	0	0	194.703218504786	194.803220625909	0.100002121122088
208864	100	737	1	center	0	161	5	20	-1	-1	3			NaN	0	0	0	194.903229573742	195.003227550129	0.0999979763873853
209064	100	738	1	center	0	162	5	26	-1	-1	3			NaN	0	0	0	195.103234791255	195.203231060936	0.0999962696805596
209264	100	739	1	center	0	163	5	38	-1	-1	3			NaN	0	0	0	195.30322781828	195.403240423242	0.100012604962103
209464	100	740	1	center	0	164	5	1	-1	-1	3			NaN	0	0	0	195.503247176763	195.603243934107	0.0999967573443428
209664	100	741	1	center	0	165	5	16	-1	-1	3			NaN	0	0	0	195.703251906671	195.803258416359	0.100006509688683
209864	100	742	1	center	0	166	5	35	-1	-1	3			NaN	0	0	0	195.903243470879	196.003242178645	0.0999987077666447
210064	100	743	1	center	0	167	5	47	-1	-1	3			NaN	0	0	0	196.103253564565	196.203263243835	0.100009679270443
210264	100	744	1	center	0	168	5	0	-1	-1	3			NaN	0	0	0	196.303276336403	196.40327138704	0.0999950506375171
210464	100	745	1	center	0	169	5	23	-1	-1	3			NaN	0	0	0	196.503256197728	196.603273922694	0.100017724966165
210664	100	746	1	center	0	170	5	9	-1	-1	3			NaN	0	0	0	196.703273849504	196.803282309731	0.1000084602274
210864	100	747	1	center	0	171	5	14	-1	-1	3			NaN	0	0	0	196.903279798455	197.003276312025	0.0999965135706589
211064	100	748	1	center	0	172	5	8	-1	-1	3			NaN	0	0	0	197.103290135972	197.203272020968	0.0999818849959411
211264	100	749	1	center	0	173	5	13	-1	-1	3			NaN	0	0	0	197.303278043051	197.403286015615	0.100007972563617
211464	100	750	1	center	0	174	5	43	-1	-1	3			NaN	0	0	0	197.503295938659	197.603284162644	0.0999882239848375
211664	100	751	1	center	0	175	5	42	-1	-1	3			NaN	0	0	0	197.703307251446	197.803305471607	0.0999982201610692
211864	100	752	1	center	0	176	5	10	-1	-1	3			NaN	0	0	0	197.903312956565	198.003307519597	0.0999945630319417
212064	100	753	1	center	0	177	5	45	-1	-1	3			NaN	0	0	0	198.103312078863	198.203291038109	0.0999789592460729
212264	100	754	1	center	0	178	5	19	-1	-1	3			NaN	0	0	0	198.303319978295	198.40332331846	0.100003340165131
212464	100	755	1	center	0	179	5	28	-1	-1	3			NaN	0	0	0	198.503333485336	198.603329023637	0.0999955383013003
212664	100	756	1	center	0	180	5	37	-1	-1	3			NaN	0	0	0	198.703329925716	198.803345943976	0.100016018259339
212864	100	757	1	center	0	181	5	18	-1	-1	3			NaN	0	0	0	198.903334899398	199.003336289141	0.100001389742829
213064	100	758	1	center	0	182	5	31	-1	-1	3			NaN	0	0	0	199.10330037598	199.203348333307	0.100047957326751
213264	100	759	1	center	0	183	5	30	-1	-1	3			NaN	0	0	0	199.303353136347	199.403345748957	0.0999926126096398
213464	100	760	1	center	0	184	5	2	-1	-1	3			NaN	0	0	0	199.50335177104	199.603345115029	0.0999933439888991
213664	100	761	1	center	0	185	5	17	-1	-1	3			NaN	0	0	0	199.703326024755	199.80336057255	0.100034547795076
213864	100	762	1	center	0	186	5	40	-1	-1	3			NaN	0	0	0	199.903363668942	200.003347748192	0.0999840792501345
214064	100	763	1	center	0	187	5	21	-1	-1	3			NaN	0	0	0	200.103365716932	200.203376371413	0.100010654481594
214264	100	764	1	center	0	188	5	27	-1	-1	3			NaN	0	0	0	200.30337800493	200.403375981317	0.0999979763873853
214464	100	765	1	center	0	189	5	36	-1	-1	3			NaN	0	0	0	200.503381271963	200.603379492182	0.0999982202192768
214664	100	766	1	center	0	190	5	11	-1	-1	3			NaN	0	0	0	200.703385758097	200.803386172571	0.10000041447347
214864	100	767	1	center	0	191	5	22	-1	-1	3			NaN	0	0	0	200.903384148958	201.003387001518	0.100002852559555
217997	100	768	2	left-right	0	0	11	-1	0	-1	4	stim001_animate_fish_1.png		NaN	0	0	0	204.036809869809	204.136802482361	0.0999926125514321
218197	100	769	2	left-right	0	1	11	-1	-1	13	4		stim014_inanimate_boats_2.png	NaN	0	0	0	204.236786317837	204.336815258022	0.100028940185439
