"trial_type","trial_index","time_elapsed","internal_node_id","subject","success","timeout","failed_images","failed_audio","failed_video","test_part","rt","stimulus","response","end_time","button_pressed","stim0","stim1","stim2","trialnr"
"pavlovia","0","17","0.0-0.0","75991","","","","","","","","","","","","","","",""
"preload","1","1821","0.0-1.0","75991","true","false","[]","[]","[]","preload","","","","","","","","",""
"html-button-response","2","16344","0.0-2.0","75991","","","","","","","14522.09999999404","<p>Welcome to the experiment. To begin, please read the following and press the button at the bottom of the screen.</p><p></p><p><strong>Project Name: A study on cognitive processes involved in visual perception</p></strong><p></p><p><strong>PARTICIPANT INFORMATION STATEMENT</strong></p><p></p><strong>(1) What is the study about?</strong><br>You are invited to participate in a study that investigates the cognitive processes involved in perceiving and recognizing visual stimuli.If you decide to participate, you will be asked to complete a task in which you will view pictures, letters, numbers, or words presented on a computer screen.<br><strong>(2) Who can participate?</strong><br>Anyone aged 18 years or over with access to a computer (not a phone/tablet)<br><strong>(3) Where is the study located?</strong><br>The study will be conducted in your browser<br><strong>(4) Who is carrying out the study?</strong><br>The study is being conducted by Sophia Shatek from the Computational Cognitive Neuroscience laboratory at the University of Sydney.<br><strong>(5) What does the study involve?</strong><br>In this study, you will be asked to perform tasks where you will see different stimuli appear on the computer screen.You will respond by pressing a key or using a computer mouse.<br><strong>(6) How much time will the study take?</strong><br>The study takes about 30 minutes<br><strong>(7)	Can I withdraw from the study?</strong><br>Being in this study is completely voluntary - you are not under any obligation to consent. You can withdraw at any time without having to give a reason and without penalty.<br><strong>(8) Will anyone else know the results?</strong><br>All aspects of the study, including results, will be strictly confidential and only the researchers will have access to information on participants.The results and data from the study may be submitted for publication or shared with other research labs, but individual participants will not be identifiable.<br><strong>(9) Will the study benefit me?</strong><br>You will be awarded 0.5 credits for your participation.<br><strong>(10) Can I tell other people about the study?</strong><br>Yes, please tell them to contact Dr Thomas Carlson by email at thomas.carlson@sydney.edu.au.<br><strong>(11) What if I require further information about the study or my involvement in it?</strong><br>When you have read this information, the investigator will discuss it with you further and answer any questions you may have.If you would like to know more at any stage, please feel free to contact Dr Thomas Carlson directly by email at thomas.carlson@sydney.edu.au.If you would like to be informed about the outcomes of the study, contact Dr Thomas Carlson directly by email at thomas.carlson@sydney.edu.au.<br><strong>(12) What if I have a complaint or any concerns?</strong><br>Any person with concerns or complaints about the conduct of a research study can contact The Manager,Human Ethics Administration, University of Sydney on +61 2 8627 8176 (Telephone); +61 2 8627 8177 (Facsimile) or ro.humanethics@sydney.edu.au (Email).</p><p></p><strong>By participating in this experiment, you consent to participate in this study and acknowledge that:</strong><br>1. The procedures required for the project and the times involved have been explained to me, and any questions I have about the project have been answered to my satisfaction.<br>2.	I have read the Above Information Statement and have been given the opportunity to discuss the information and my involvement in the project with the researcher/s.<br>3. I understand that allowing my data to be used in research reports is completely voluntary - I am not under any obligation to consent.<br>4. I understand that my involvement is strictly confidential. I understand that any research data gathered from the results of the study may be publishedhowever no information about me will be used in any way that is identifiable.</p><p></p>","0","","","","","",""
"html-button-response","3","44589","0.0-3.0","75991","","","","","","opening_instructions","28243.29999999702","<p>In this experiment, you will see three images appear on the screen.</p><p>You need to click the 'odd one out', or the image </p><p>that is MOST CONCEPTUALLY DIFFERENT to the other two. </p><p>(e.g., the word 'tree' and a picture of a tree are conceptually SIMILAR, </p><p> but the word 'tree' and the word 'boat' are conceptually DIFFERENT even though they look similar) </p><p>Just go with your intuition, don't spend too long thinking about each one.</p>","0","51100.39999999851","","","","",""
"html-button-response-mod","4","46185","0.0-4.0","75991","","","","","","triplet","1593.7000000029802","","","","1","stimuli/stim014_inanimate_boats_2.png","stimuli/tools_lowercase.png","stimuli/stim001_animate_fish_1.png","0"
"html-button-response-mod","5","48738","0.0-5.0","75991","","","","","","triplet","2049","","","","1","stimuli/stim011_animate_face_3.png","stimuli/bird_uppercase.png","stimuli/face_lowercase.png","1"
"html-button-response-mod","6","50811","0.0-6.0","75991","","","","","","triplet","1566.3999999985099","","","","2","stimuli/stim013_inanimate_boats_1.png","stimuli/fish_uppercase.png","stimuli/bird_uppercase.png","2"
"html-button-response-mod","7","53201","0.0-7.0","75991","","","","","","triplet","1887","","","","0","stimuli/fish_uppercase.png","stimuli/stim015_inanimate_boats_3.png","stimuli/boats_lowercase.png","3"
"html-button-response-mod","8","55117","0.0-8.0","75991","","","","","","triplet","1414.6999999955297","","","","1","stimuli/stim007_animate_bird_3.png","stimuli/stim023_inanimate_tools_3.png","stimuli/stim020_inanimate_tree_4.png","4"
"html-button-response-mod","9","57717","0.0-9.0","75991","","","","","","triplet","2096.7000000029802","","","","2","stimuli/stim019_inanimate_tree_3.png","stimuli/stim015_inanimate_boats_3.png","stimuli/stim009_animate_face_1.png","5"
"html-button-response-mod","10","59607","0.0-10.0","75991","","","","","","triplet","1386.6000000014901","","","","1","stimuli/stim009_animate_face_1.png","stimuli/tree_uppercase.png","stimuli/face_uppercase.png","6"
"html-button-response-mod","11","62959","0.0-11.0","75991","","","","","","triplet","2849","","","","2","stimuli/boats_uppercase.png","stimuli/tools_uppercase.png","stimuli/face_lowercase.png","7"
"html-button-response-mod","12","65304","0.0-12.0","75991","","","","","","triplet","1841","","","","2","stimuli/stim016_inanimate_boats_4.png","stimuli/fish_uppercase.png","stimuli/face_uppercase.png","8"
"html-button-response-mod","13","67037","0.0-13.0","75991","","","","","","triplet","1232","","","","1","stimuli/tools_lowercase.png","stimuli/stim013_inanimate_boats_1.png","stimuli/tools_uppercase.png","9"
"html-button-response-mod","14","69784","0.0-14.0","75991","","","","","","triplet","2245.2000000029802","","","","2","stimuli/fish_lowercase.png","stimuli/boats_lowercase.png","stimuli/stim020_inanimate_tree_4.png","10"
"html-button-response-mod","15","71343","0.0-15.0","75991","","","","","","triplet","1042.6000000014901","","","","0","stimuli/stim009_animate_face_1.png","stimuli/stim005_animate_bird_1.png","stimuli/stim008_animate_bird_4.png","11"
"html-button-response-mod","16","73094","0.0-16.0","75991","","","","","","triplet","1248.2999999970198","","","","2","stimuli/stim004_animate_fish_4.png","stimuli/boats_lowercase.png","stimuli/stim022_inanimate_tools_2.png","12"
"html-button-response-mod","17","74642","0.0-17.0","75991","","","","","","triplet","1046.1999999955297","","","","0","stimuli/stim023_inanimate_tools_3.png","stimuli/stim018_inanimate_tree_2.png","stimuli/stim013_inanimate_boats_1.png","13"
"html-button-response-mod","18","76190","0.0-18.0","75991","","","","","","triplet","1044.7999999970198","","","","2","stimuli/stim013_inanimate_boats_1.png","stimuli/stim014_inanimate_boats_2.png","stimuli/stim010_animate_face_2.png","14"
"html-button-response-mod","19","77739","0.0-19.0","75991","","","","","","triplet","1045.2999999970198","","","","2","stimuli/stim002_animate_fish_2.png","stimuli/stim005_animate_bird_1.png","stimuli/stim013_inanimate_boats_1.png","15"
"html-button-response-mod","20","79709","0.0-20.0","75991","","","","","","triplet","1467.5","","","","0","stimuli/stim014_inanimate_boats_2.png","stimuli/tools_uppercase.png","stimuli/stim022_inanimate_tools_2.png","16"
"html-button-response-mod","21","82842","0.0-21.0","75991","","","","","","triplet","2629.3000000044703","","","","2","stimuli/stim004_animate_fish_4.png","stimuli/bird_lowercase.png","stimuli/stim024_inanimate_tools_4.png","17"
"html-button-response-mod","22","84994","0.0-22.0","75991","","","","","","triplet","1649.6000000014901","","","","1","stimuli/face_lowercase.png","stimuli/stim021_inanimate_tools_1.png","stimuli/stim014_inanimate_boats_2.png","18"
"html-button-response-mod","23","87034","0.0-23.0","75991","","","","","","triplet","1537.8000000044703","","","","2","stimuli/stim003_animate_fish_3.png","stimuli/stim019_inanimate_tree_3.png","stimuli/tools_uppercase.png","19"
"html-button-response-mod","24","88539","0.0-24.0","75991","","","","","","triplet","997.8999999985099","","","","0","stimuli/stim023_inanimate_tools_3.png","stimuli/fish_uppercase.png","stimuli/stim019_inanimate_tree_3.png","20"
"html-button-response-mod","25","90349","0.0-25.0","75991","","","","","","triplet","1308.5","","","","0","stimuli/stim011_animate_face_3.png","stimuli/stim017_inanimate_tree_1.png","stimuli/fish_lowercase.png","21"
"html-button-response-mod","26","93317","0.0-26.0","75991","","","","","","triplet","2462.2999999970198","","","","2","stimuli/stim002_animate_fish_2.png","stimuli/fish_lowercase.png","stimuli/boats_uppercase.png","22"
"html-button-response-mod","27","95311","0.0-27.0","75991","","","","","","triplet","1489.1999999955297","","","","1","stimuli/stim024_inanimate_tools_4.png","stimuli/stim019_inanimate_tree_3.png","stimuli/stim023_inanimate_tools_3.png","23"
"html-button-response-mod","28","96721","0.0-28.0","75991","","","","","","triplet","908.3999999985099","","","","1","stimuli/stim005_animate_bird_1.png","stimuli/stim013_inanimate_boats_1.png","stimuli/stim008_animate_bird_4.png","24"
"html-button-response-mod","29","101159","0.0-29.0","75991","","","","","","triplet","3925.2000000029802","","","","1","stimuli/boats_uppercase.png","stimuli/stim020_inanimate_tree_4.png","stimuli/stim004_animate_fish_4.png","25"
"html-button-response-mod","30","103285","0.0-30.0","75991","","","","","","triplet","1613.6000000014901","","","","0","stimuli/stim024_inanimate_tools_4.png","stimuli/stim011_animate_face_3.png","stimuli/bird_uppercase.png","26"
"html-button-response-mod","31","105989","0.0-31.0","75991","","","","","","triplet","2199.8000000044703","","","","0","stimuli/tree_lowercase.png","stimuli/stim004_animate_fish_4.png","stimuli/fish_lowercase.png","27"
"html-button-response-mod","32","108326","0.0-32.0","75991","","","","","","triplet","1834.0999999940395","","","","1","stimuli/face_lowercase.png","stimuli/stim011_animate_face_3.png","stimuli/face_uppercase.png","28"
"html-button-response-mod","33","110531","0.0-33.0","75991","","","","","","triplet","1700","","","","2","stimuli/stim019_inanimate_tree_3.png","stimuli/tree_uppercase.png","stimuli/stim023_inanimate_tools_3.png","29"
"html-button-response-mod","34","112665","0.0-34.0","75991","","","","","","triplet","1626.1000000014901","","","","2","stimuli/bird_lowercase.png","stimuli/stim016_inanimate_boats_4.png","stimuli/stim022_inanimate_tools_2.png","30"
"html-button-response-mod","35","115625","0.0-35.0","75991","","","","","","triplet","2455.7999999970198","","","","1","stimuli/face_lowercase.png","stimuli/stim014_inanimate_boats_2.png","stimuli/stim006_animate_bird_2.png","31"
"html-button-response-mod","36","118170","0.0-36.0","75991","","","","","","triplet","2036.8000000044703","","","","0","stimuli/tree_uppercase.png","stimuli/bird_lowercase.png","stimuli/stim001_animate_fish_1.png","32"
"html-button-response-mod","37","119694","0.0-37.0","75991","","","","","","triplet","1015.2000000029802","","","","0","stimuli/stim023_inanimate_tools_3.png","stimuli/stim007_animate_bird_3.png","stimuli/fish_uppercase.png","33"
"html-button-response-mod","38","121216","0.0-38.0","75991","","","","","","triplet","1005.7999999970198","","","","0","stimuli/stim023_inanimate_tools_3.png","stimuli/stim011_animate_face_3.png","stimuli/stim016_inanimate_boats_4.png","34"
"html-button-response-mod","39","124561","0.0-39.0","75991","","","","","","triplet","2833","","","","2","stimuli/stim002_animate_fish_2.png","stimuli/stim014_inanimate_boats_2.png","stimuli/stim020_inanimate_tree_4.png","35"
"html-button-response-mod","40","125994","0.0-40.0","75991","","","","","","triplet","928.3000000044703","","","","0","stimuli/stim016_inanimate_boats_4.png","stimuli/stim019_inanimate_tree_3.png","stimuli/stim017_inanimate_tree_1.png","36"
"html-button-response-mod","41","128121","0.0-41.0","75991","","","","","","triplet","1617.8999999985099","","","","2","stimuli/stim004_animate_fish_4.png","stimuli/fish_uppercase.png","stimuli/boats_uppercase.png","37"
"html-button-response-mod","42","129593","0.0-42.0","75991","","","","","","triplet","967.7999999970198","","","","0","stimuli/stim022_inanimate_tools_2.png","stimuli/stim007_animate_bird_3.png","stimuli/stim008_animate_bird_4.png","38"
"html-button-response-mod","43","131220","0.0-43.0","75991","","","","","","triplet","1112.7999999970198","","","","0","stimuli/stim009_animate_face_1.png","stimuli/stim007_animate_bird_3.png","stimuli/stim018_inanimate_tree_2.png","39"
"html-button-response-mod","44","134090","0.0-44.0","75991","","","","","","triplet","2356.60000000149","","","","2","stimuli/boats_uppercase.png","stimuli/bird_uppercase.png","stimuli/stim003_animate_fish_3.png","40"
"html-button-response-mod","45","136943","0.0-45.0","75991","","","","","","triplet","2351.2000000029802","","","","0","stimuli/boats_lowercase.png","stimuli/stim005_animate_bird_1.png","stimuli/face_lowercase.png","41"
"html-button-response-mod","46","138580","0.0-46.0","75991","","","","","","triplet","1121.9000000059605","","","","0","stimuli/tools_lowercase.png","stimuli/stim011_animate_face_3.png","stimuli/fish_lowercase.png","42"
"html-button-response-mod","47","140986","0.0-47.0","75991","","","","","","triplet","1898.8999999985099","","","","1","stimuli/stim010_animate_face_2.png","stimuli/tools_uppercase.png","stimuli/stim001_animate_fish_1.png","43"
"html-button-response-mod","48","142351","0.0-48.0","75991","","","","","","triplet","850.3000000044703","","","","1","stimuli/stim001_animate_fish_1.png","stimuli/stim013_inanimate_boats_1.png","stimuli/stim003_animate_fish_3.png","44"
"html-button-response-mod","49","144225","0.0-49.0","75991","","","","","","triplet","1371.8999999985099","","","","2","stimuli/stim007_animate_bird_3.png","stimuli/stim001_animate_fish_1.png","stimuli/stim016_inanimate_boats_4.png","45"
"html-button-response-mod","50","146105","0.0-50.0","75991","","","","","","triplet","1376.8999999985099","","","","1","stimuli/stim010_animate_face_2.png","stimuli/stim021_inanimate_tools_1.png","stimuli/stim005_animate_bird_1.png","46"
"html-button-response-mod","51","147418","0.0-51.0","75991","","","","","","triplet","811.2999999970198","","","","1","stimuli/stim008_animate_bird_4.png","stimuli/stim022_inanimate_tools_2.png","stimuli/stim003_animate_fish_3.png","47"
"html-button-response-mod","52","149238","0.0-52.0","75991","","","","","","triplet","1312.3999999985099","","","","0","stimuli/boats_uppercase.png","stimuli/stim018_inanimate_tree_2.png","stimuli/tree_lowercase.png","48"
"html-button-response-mod","53","150841","0.0-53.0","75991","","","","","","triplet","1087.4000000059605","","","","2","stimuli/fish_uppercase.png","stimuli/stim003_animate_fish_3.png","stimuli/stim023_inanimate_tools_3.png","49"
"html-button-response","54","155190","0.0-54.0","75991","","","","","","break","3846.60000000149","<p>BREAK</p><p>Take a break for as long as you need</p><p>Click the button to continue</p>","0","","","","","",""
"html-button-response-mod","55","156134","0.0-55.0","75991","","","","","","triplet","941.3999999985099","","","","0","stimuli/tools_uppercase.png","stimuli/stim005_animate_bird_1.png","stimuli/stim006_animate_bird_2.png","50"
"html-button-response-mod","56","157684","0.0-56.0","75991","","","","","","triplet","1036.8999999985099","","","","1","stimuli/stim002_animate_fish_2.png","stimuli/boats_uppercase.png","stimuli/stim010_animate_face_2.png","51"
"html-button-response-mod","57","159031","0.0-57.0","75991","","","","","","triplet","844.6999999955297","","","","0","stimuli/stim011_animate_face_3.png","stimuli/stim018_inanimate_tree_2.png","stimuli/stim016_inanimate_boats_4.png","52"
"html-button-response-mod","58","160676","0.0-58.0","75991","","","","","","triplet","1142.2000000029802","","","","1","stimuli/stim009_animate_face_1.png","stimuli/bird_uppercase.png","stimuli/face_uppercase.png","53"
"html-button-response-mod","59","162541","0.0-59.0","75991","","","","","","triplet","1363.2000000029802","","","","0","stimuli/stim017_inanimate_tree_1.png","stimuli/fish_uppercase.png","stimuli/stim002_animate_fish_2.png","54"
"html-button-response-mod","60","164168","0.0-60.0","75991","","","","","","triplet","1124.2999999970198","","","","0","stimuli/boats_uppercase.png","stimuli/stim017_inanimate_tree_1.png","stimuli/face_uppercase.png","55"
"html-button-response-mod","61","165533","0.0-61.0","75991","","","","","","triplet","863.2999999970198","","","","1","stimuli/stim001_animate_fish_1.png","stimuli/stim023_inanimate_tools_3.png","stimuli/stim005_animate_bird_1.png","56"
"html-button-response-mod","62","166793","0.0-62.0","75991","","","","","","triplet","756.2000000029802","","","","1","stimuli/stim007_animate_bird_3.png","stimuli/stim015_inanimate_boats_3.png","stimuli/stim020_inanimate_tree_4.png","57"
"html-button-response-mod","63","168299","0.0-63.0","75991","","","","","","triplet","1004.7000000029802","","","","1","stimuli/tools_lowercase.png","stimuli/stim024_inanimate_tools_4.png","stimuli/stim003_animate_fish_3.png","58"
"html-button-response-mod","64","169603","0.0-64.0","75991","","","","","","triplet","800.8999999985099","","","","1","stimuli/stim005_animate_bird_1.png","stimuli/stim019_inanimate_tree_3.png","stimuli/stim008_animate_bird_4.png","59"
"html-button-response-mod","65","171362","0.0-65.0","75991","","","","","","triplet","1256.3000000044703","","","","0","stimuli/face_uppercase.png","stimuli/fish_lowercase.png","stimuli/stim019_inanimate_tree_3.png","60"
"html-button-response-mod","66","173436","0.0-66.0","75991","","","","","","triplet","1570.7999999970198","","","","2","stimuli/stim005_animate_bird_1.png","stimuli/face_uppercase.png","stimuli/stim021_inanimate_tools_1.png","61"
"html-button-response-mod","67","174881","0.0-67.0","75991","","","","","","triplet","936.5","","","","1","stimuli/tree_lowercase.png","stimuli/stim021_inanimate_tools_1.png","stimuli/stim004_animate_fish_4.png","62"
"html-button-response-mod","68","176429","0.0-68.0","75991","","","","","","triplet","1045.1000000014901","","","","1","stimuli/boats_lowercase.png","stimuli/stim023_inanimate_tools_3.png","stimuli/fish_uppercase.png","63"
"html-button-response-mod","69","178686","0.0-69.0","75991","","","","","","triplet","1754.2000000029802","","","","0","stimuli/stim024_inanimate_tools_4.png","stimuli/stim005_animate_bird_1.png","stimuli/stim015_inanimate_boats_3.png","64"
"html-button-response-mod","70","180980","0.0-70.0","75991","","","","","","triplet","1790.5","","","","2","stimuli/stim002_animate_fish_2.png","stimuli/stim015_inanimate_boats_3.png","stimuli/tree_uppercase.png","65"
"html-button-response-mod","71","183344","0.0-71.0","75991","","","","","","triplet","1848.0999999940395","","","","2","stimuli/bird_lowercase.png","stimuli/stim014_inanimate_boats_2.png","stimuli/stim024_inanimate_tools_4.png","66"
"html-button-response-mod","72","184751","0.0-72.0","75991","","","","","","triplet","905.2999999970198","","","","0","stimuli/boats_lowercase.png","stimuli/stim012_animate_face_4.png","stimuli/stim005_animate_bird_1.png","67"
"html-button-response-mod","73","187201","0.0-73.0","75991","","","","","","triplet","1947.5999999940395","","","","2","stimuli/stim015_inanimate_boats_3.png","stimuli/stim014_inanimate_boats_2.png","stimuli/stim010_animate_face_2.png","68"
"html-button-response-mod","74","189486","0.0-74.0","75991","","","","","","triplet","1772.9000000059605","","","","0","stimuli/stim012_animate_face_4.png","stimuli/stim002_animate_fish_2.png","stimuli/bird_uppercase.png","69"
"html-button-response-mod","75","191210","0.0-75.0","75991","","","","","","triplet","1209.7999999970198","","","","2","stimuli/stim023_inanimate_tools_3.png","stimuli/stim021_inanimate_tools_1.png","stimuli/tree_lowercase.png","70"
"html-button-response-mod","76","192812","0.0-76.0","75991","","","","","","triplet","1092.5","","","","1","stimuli/stim004_animate_fish_4.png","stimuli/stim020_inanimate_tree_4.png","stimuli/stim003_animate_fish_3.png","71"
"html-button-response-mod","77","194676","0.0-77.0","75991","","","","","","triplet","1361.3999999985099","","","","2","stimuli/stim001_animate_fish_1.png","stimuli/bird_lowercase.png","stimuli/stim024_inanimate_tools_4.png","72"
"html-button-response-mod","78","196120","0.0-78.0","75991","","","","","","triplet","941.5","","","","2","stimuli/face_lowercase.png","stimuli/stim011_animate_face_3.png","stimuli/tools_uppercase.png","73"
"html-button-response-mod","79","197643","0.0-79.0","75991","","","","","","triplet","1014.2000000029802","","","","0","stimuli/tools_uppercase.png","stimuli/stim010_animate_face_2.png","stimuli/stim011_animate_face_3.png","74"
"html-button-response-mod","80","198929","0.0-80.0","75991","","","","","","triplet","782.3999999985099","","","","2","stimuli/stim010_animate_face_2.png","stimuli/stim007_animate_bird_3.png","stimuli/tools_lowercase.png","75"
"html-button-response-mod","81","200451","0.0-81.0","75991","","","","","","triplet","1017.8000000044703","","","","2","stimuli/stim018_inanimate_tree_2.png","stimuli/stim011_animate_face_3.png","stimuli/stim022_inanimate_tools_2.png","76"
"html-button-response-mod","82","201904","0.0-82.0","75991","","","","","","triplet","951.7000000029802","","","","1","stimuli/tree_uppercase.png","stimuli/face_lowercase.png","stimuli/stim017_inanimate_tree_1.png","77"
"html-button-response-mod","83","203322","0.0-83.0","75991","","","","","","triplet","915.7000000029802","","","","2","stimuli/boats_uppercase.png","stimuli/boats_lowercase.png","stimuli/stim023_inanimate_tools_3.png","78"
"html-button-response-mod","84","205230","0.0-84.0","75991","","","","","","triplet","1404.4000000059605","","","","2","stimuli/stim018_inanimate_tree_2.png","stimuli/tree_uppercase.png","stimuli/stim016_inanimate_boats_4.png","79"
"html-button-response-mod","85","207672","0.0-85.0","75991","","","","","","triplet","1939.2999999970198","","","","0","stimuli/face_uppercase.png","stimuli/boats_lowercase.png","stimuli/stim003_animate_fish_3.png","80"
"html-button-response-mod","86","209649","0.0-86.0","75991","","","","","","triplet","1474.8000000044703","","","","2","stimuli/face_lowercase.png","stimuli/stim006_animate_bird_2.png","stimuli/boats_lowercase.png","81"
"html-button-response-mod","87","211584","0.0-87.0","75991","","","","","","triplet","1421.2999999970198","","","","1","stimuli/stim014_inanimate_boats_2.png","stimuli/stim021_inanimate_tools_1.png","stimuli/face_uppercase.png","82"
"html-button-response-mod","88","213142","0.0-88.0","75991","","","","","","triplet","1053.7000000029802","","","","0","stimuli/stim022_inanimate_tools_2.png","stimuli/stim012_animate_face_4.png","stimuli/stim020_inanimate_tree_4.png","83"
"html-button-response-mod","89","221543","0.0-89.0","75991","","","","","","triplet","7898.5","","","","2","stimuli/stim011_animate_face_3.png","stimuli/boats_lowercase.png","stimuli/stim018_inanimate_tree_2.png","84"
"html-button-response-mod","90","223222","0.0-90.0","75991","","","","","","triplet","1176.7999999970198","","","","0","stimuli/tools_lowercase.png","stimuli/bird_lowercase.png","stimuli/stim005_animate_bird_1.png","85"
"html-button-response-mod","91","224632","0.0-91.0","75991","","","","","","triplet","907.2999999970198","","","","2","stimuli/stim004_animate_fish_4.png","stimuli/stim001_animate_fish_1.png","stimuli/fish_uppercase.png","86"
"html-button-response-mod","92","225979","0.0-92.0","75991","","","","","","triplet","843.6000000014901","","","","0","stimuli/stim021_inanimate_tools_1.png","stimuli/stim012_animate_face_4.png","stimuli/stim024_inanimate_tools_4.png","87"
"html-button-response-mod","93","228684","0.0-93.0","75991","","","","","","triplet","2202.7000000029802","","","","0","stimuli/bird_uppercase.png","stimuli/stim024_inanimate_tools_4.png","stimuli/tools_lowercase.png","88"
"html-button-response-mod","94","230303","0.0-94.0","75991","","","","","","triplet","1115.8000000044703","","","","0","stimuli/stim018_inanimate_tree_2.png","stimuli/stim016_inanimate_boats_4.png","stimuli/fish_uppercase.png","89"
"html-button-response-mod","95","231773","0.0-95.0","75991","","","","","","triplet","955.7999999970198","","","","1","stimuli/stim023_inanimate_tools_3.png","stimuli/stim007_animate_bird_3.png","stimuli/stim022_inanimate_tools_2.png","90"
"html-button-response-mod","96","233566","0.0-96.0","75991","","","","","","triplet","1291","","","","0","stimuli/stim020_inanimate_tree_4.png","stimuli/fish_lowercase.png","stimuli/stim001_animate_fish_1.png","91"
"html-button-response-mod","97","234793","0.0-97.0","75991","","","","","","triplet","723.2000000029802","","","","1","stimuli/stim008_animate_bird_4.png","stimuli/stim010_animate_face_2.png","stimuli/stim013_inanimate_boats_1.png","92"
"html-button-response-mod","98","236236","0.0-98.0","75991","","","","","","triplet","941.5","","","","0","stimuli/stim023_inanimate_tools_3.png","stimuli/face_lowercase.png","stimuli/tree_uppercase.png","93"
"html-button-response-mod","99","237689","0.0-99.0","75991","","","","","","triplet","949.7999999970198","","","","2","stimuli/stim018_inanimate_tree_2.png","stimuli/tree_lowercase.png","stimuli/stim016_inanimate_boats_4.png","94"
"html-button-response-mod","100","239543","0.0-100.0","75991","","","","","","triplet","1352","","","","0","stimuli/stim022_inanimate_tools_2.png","stimuli/bird_lowercase.png","stimuli/stim008_animate_bird_4.png","95"
"html-button-response-mod","101","241197","0.0-101.0","75991","","","","","","triplet","1151.6000000014901","","","","1","stimuli/tree_uppercase.png","stimuli/stim022_inanimate_tools_2.png","stimuli/stim020_inanimate_tree_4.png","96"
"html-button-response-mod","102","242667","0.0-102.0","75991","","","","","","triplet","968.8999999985099","","","","2","stimuli/fish_lowercase.png","stimuli/stim006_animate_bird_2.png","stimuli/stim010_animate_face_2.png","97"
"html-button-response-mod","103","244252","0.0-103.0","75991","","","","","","triplet","1081.1999999955297","","","","1","stimuli/tree_uppercase.png","stimuli/tools_uppercase.png","stimuli/stim018_inanimate_tree_2.png","98"
"html-button-response-mod","104","246090","0.0-104.0","75991","","","","","","triplet","1335.8999999985099","","","","0","stimuli/bird_lowercase.png","stimuli/stim012_animate_face_4.png","stimuli/face_lowercase.png","99"
"html-button-response","105","249967","0.0-105.0","75991","","","","","","break","3360.10000000149","<p>BREAK</p><p>Take a break for as long as you need</p><p>Click the button to continue</p>","0","","","","","",""
"html-button-response-mod","106","251104","0.0-106.0","75991","","","","","","triplet","1134.1000000014901","","","","1","stimuli/stim009_animate_face_1.png","stimuli/bird_uppercase.png","stimuli/face_lowercase.png","100"
"html-button-response-mod","107","252364","0.0-107.0","75991","","","","","","triplet","758.3999999985099","","","","1","stimuli/face_uppercase.png","stimuli/fish_uppercase.png","stimuli/stim014_inanimate_boats_2.png","101"
"html-button-response-mod","108","253825","0.0-108.0","75991","","","","","","triplet","959.3000000044703","","","","0","stimuli/face_lowercase.png","stimuli/stim006_animate_bird_2.png","stimuli/stim002_animate_fish_2.png","102"
"html-button-response-mod","109","255112","0.0-109.0","75991","","","","","","triplet","778.5","","","","1","stimuli/stim016_inanimate_boats_4.png","stimuli/stim019_inanimate_tree_3.png","stimuli/stim013_inanimate_boats_1.png","103"
"html-button-response-mod","110","256741","0.0-110.0","75991","","","","","","triplet","1125.8999999985099","","","","1","stimuli/boats_lowercase.png","stimuli/tools_lowercase.png","stimuli/stim011_animate_face_3.png","104"
"html-button-response-mod","111","258497","0.0-111.0","75991","","","","","","triplet","1253.7000000029802","","","","2","stimuli/stim010_animate_face_2.png","stimuli/face_uppercase.png","stimuli/stim008_animate_bird_4.png","105"
"html-button-response-mod","112","259892","0.0-112.0","75991","","","","","","triplet","893.2000000029802","","","","0","stimuli/stim022_inanimate_tools_2.png","stimuli/face_uppercase.png","stimuli/stim007_animate_bird_3.png","106"
"html-button-response-mod","113","261423","0.0-113.0","75991","","","","","","triplet","1015.8000000044703","","","","0","stimuli/boats_uppercase.png","stimuli/stim012_animate_face_4.png","stimuli/stim020_inanimate_tree_4.png","107"
"html-button-response-mod","114","263129","0.0-114.0","75991","","","","","","triplet","1202.8000000044703","","","","2","stimuli/stim003_animate_fish_3.png","stimuli/stim008_animate_bird_4.png","stimuli/stim013_inanimate_boats_1.png","108"
"html-button-response-mod","115","265089","0.0-115.0","75991","","","","","","triplet","1458.5","","","","0","stimuli/stim006_animate_bird_2.png","stimuli/tree_uppercase.png","stimuli/stim019_inanimate_tree_3.png","109"
"html-button-response-mod","116","266508","0.0-116.0","75991","","","","","","triplet","916","","","","1","stimuli/stim017_inanimate_tree_1.png","stimuli/stim024_inanimate_tools_4.png","stimuli/stim005_animate_bird_1.png","110"
"html-button-response-mod","117","268186","0.0-117.0","75991","","","","","","triplet","1173.7000000029802","","","","1","stimuli/stim020_inanimate_tree_4.png","stimuli/stim024_inanimate_tools_4.png","stimuli/stim011_animate_face_3.png","111"
"html-button-response-mod","118","270532","0.0-118.0","75991","","","","","","triplet","1831.3000000044703","","","","1","stimuli/stim017_inanimate_tree_1.png","stimuli/face_lowercase.png","stimuli/stim002_animate_fish_2.png","112"
"html-button-response-mod","119","272440","0.0-119.0","75991","","","","","","triplet","1406.5","","","","1","stimuli/stim012_animate_face_4.png","stimuli/stim020_inanimate_tree_4.png","stimuli/face_uppercase.png","113"
"html-button-response-mod","120","275091","0.0-120.0","75991","","","","","","triplet","2147.10000000149","","","","1","stimuli/bird_uppercase.png","stimuli/stim014_inanimate_boats_2.png","stimuli/face_uppercase.png","114"
"html-button-response-mod","121","276956","0.0-121.0","75991","","","","","","triplet","1362.2999999970198","","","","1","stimuli/stim004_animate_fish_4.png","stimuli/bird_uppercase.png","stimuli/fish_lowercase.png","115"
"html-button-response-mod","122","278427","0.0-122.0","75991","","","","","","triplet","969.1000000014901","","","","2","stimuli/tree_lowercase.png","stimuli/stim017_inanimate_tree_1.png","stimuli/stim022_inanimate_tools_2.png","116"
"html-button-response-mod","123","280194","0.0-123.0","75991","","","","","","triplet","1253.2999999970198","","","","0","stimuli/tools_lowercase.png","stimuli/stim001_animate_fish_1.png","stimuli/stim010_animate_face_2.png","117"
"html-button-response-mod","124","282075","0.0-124.0","75991","","","","","","triplet","1377.5999999940395","","","","1","stimuli/stim021_inanimate_tools_1.png","stimuli/fish_uppercase.png","stimuli/stim024_inanimate_tools_4.png","118"
"html-button-response-mod","125","284018","0.0-125.0","75991","","","","","","triplet","1439.3999999985099","","","","2","stimuli/bird_lowercase.png","stimuli/stim022_inanimate_tools_2.png","stimuli/stim014_inanimate_boats_2.png","119"
"html-button-response-mod","126","286408","0.0-126.0","75991","","","","","","triplet","1886.7999999970198","","","","0","stimuli/face_lowercase.png","stimuli/stim017_inanimate_tree_1.png","stimuli/boats_uppercase.png","120"
"html-button-response-mod","127","288402","0.0-127.0","75991","","","","","","triplet","1492.2000000029802","","","","0","stimuli/stim013_inanimate_boats_1.png","stimuli/tools_uppercase.png","stimuli/stim012_animate_face_4.png","121"
"html-button-response-mod","128","291108","0.0-128.0","75991","","","","","","triplet","2203.10000000149","","","","1","stimuli/boats_lowercase.png","stimuli/fish_lowercase.png","stimuli/tools_uppercase.png","122"
"html-button-response-mod","129","293058","0.0-129.0","75991","","","","","","triplet","1429.6000000014901","","","","1","stimuli/stim007_animate_bird_3.png","stimuli/boats_lowercase.png","stimuli/bird_lowercase.png","123"
"html-button-response-mod","130","294414","0.0-130.0","75991","","","","","","triplet","846.8000000044703","","","","0","stimuli/stim010_animate_face_2.png","stimuli/stim006_animate_bird_2.png","stimuli/stim019_inanimate_tree_3.png","124"
"html-button-response-mod","131","296129","0.0-131.0","75991","","","","","","triplet","1213.5","","","","0","stimuli/tools_lowercase.png","stimuli/stim003_animate_fish_3.png","stimuli/bird_uppercase.png","125"
"html-button-response-mod","132","297652","0.0-132.0","75991","","","","","","triplet","1019.5","","","","2","stimuli/stim002_animate_fish_2.png","stimuli/stim008_animate_bird_4.png","stimuli/stim014_inanimate_boats_2.png","126"
"html-button-response-mod","133","299035","0.0-133.0","75991","","","","","","triplet","879.7999999970198","","","","0","stimuli/tools_uppercase.png","stimuli/fish_lowercase.png","stimuli/stim010_animate_face_2.png","127"
"html-button-response-mod","134","300541","0.0-134.0","75991","","","","","","triplet","1000.6000000014901","","","","1","stimuli/stim012_animate_face_4.png","stimuli/stim024_inanimate_tools_4.png","stimuli/stim001_animate_fish_1.png","128"
"html-button-response-mod","135","302116","0.0-135.0","75991","","","","","","triplet","1072","","","","0","stimuli/stim018_inanimate_tree_2.png","stimuli/stim009_animate_face_1.png","stimuli/bird_uppercase.png","129"
"html-button-response-mod","136","304025","0.0-136.0","75991","","","","","","triplet","1407.3999999985099","","","","0","stimuli/stim023_inanimate_tools_3.png","stimuli/boats_uppercase.png","stimuli/stim017_inanimate_tree_1.png","130"
"html-button-response-mod","137","306124","0.0-137.0","75991","","","","","","triplet","1597.9000000059605","","","","0","stimuli/stim013_inanimate_boats_1.png","stimuli/fish_lowercase.png","stimuli/stim006_animate_bird_2.png","131"
"html-button-response-mod","138","307674","0.0-138.0","75991","","","","","","triplet","1048","","","","0","stimuli/tree_uppercase.png","stimuli/stim012_animate_face_4.png","stimuli/stim009_animate_face_1.png","132"
"html-button-response-mod","139","310010","0.0-139.0","75991","","","","","","triplet","1817.2999999970198","","","","2","stimuli/stim024_inanimate_tools_4.png","stimuli/boats_uppercase.png","stimuli/bird_uppercase.png","133"
"html-button-response-mod","140","312248","0.0-140.0","75991","","","","","","triplet","1735.7000000029802","","","","2","stimuli/boats_uppercase.png","stimuli/boats_lowercase.png","stimuli/fish_uppercase.png","134"
"html-button-response-mod","141","313956","0.0-141.0","75991","","","","","","triplet","1198.7999999970198","","","","0","stimuli/tools_uppercase.png","stimuli/bird_lowercase.png","stimuli/stim008_animate_bird_4.png","135"
"html-button-response-mod","142","315979","0.0-142.0","75991","","","","","","triplet","1519.8000000044703","","","","2","stimuli/stim023_inanimate_tools_3.png","stimuli/tools_lowercase.png","stimuli/stim008_animate_bird_4.png","136"
"html-button-response-mod","143","317518","0.0-143.0","75991","","","","","","triplet","1036","","","","2","stimuli/stim012_animate_face_4.png","stimuli/stim010_animate_face_2.png","stimuli/fish_uppercase.png","137"
"html-button-response-mod","144","319654","0.0-144.0","75991","","","","","","triplet","1631.6000000014901","","","","2","stimuli/bird_lowercase.png","stimuli/stim007_animate_bird_3.png","stimuli/stim024_inanimate_tools_4.png","138"
"html-button-response-mod","145","321300","0.0-145.0","75991","","","","","","triplet","1142","","","","2","stimuli/stim002_animate_fish_2.png","stimuli/stim007_animate_bird_3.png","stimuli/stim014_inanimate_boats_2.png","139"
"html-button-response-mod","146","323460","0.0-146.0","75991","","","","","","triplet","1646","","","","0","stimuli/stim021_inanimate_tools_1.png","stimuli/face_uppercase.png","stimuli/tree_uppercase.png","140"
"html-button-response-mod","147","325246","0.0-147.0","75991","","","","","","triplet","1282.2000000029802","","","","0","stimuli/face_uppercase.png","stimuli/tools_lowercase.png","stimuli/stim002_animate_fish_2.png","141"
"html-button-response-mod","148","326970","0.0-148.0","75991","","","","","","triplet","1221.1000000014901","","","","1","stimuli/stim004_animate_fish_4.png","stimuli/stim016_inanimate_boats_4.png","stimuli/stim020_inanimate_tree_4.png","142"
"html-button-response-mod","149","328333","0.0-149.0","75991","","","","","","triplet","860.1000000014901","","","","1","stimuli/stim001_animate_fish_1.png","stimuli/stim010_animate_face_2.png","stimuli/stim016_inanimate_boats_4.png","143"
"html-button-response-mod","150","329831","0.0-150.0","75991","","","","","","triplet","993.8000000044703","","","","0","stimuli/tools_uppercase.png","stimuli/stim012_animate_face_4.png","stimuli/stim006_animate_bird_2.png","144"
"html-button-response-mod","151","331643","0.0-151.0","75991","","","","","","triplet","1308.7000000029802","","","","0","stimuli/stim005_animate_bird_1.png","stimuli/tools_uppercase.png","stimuli/stim015_inanimate_boats_3.png","145"
"html-button-response-mod","152","333253","0.0-152.0","75991","","","","","","triplet","1107.7999999970198","","","","2","stimuli/bird_lowercase.png","stimuli/stim006_animate_bird_2.png","stimuli/boats_lowercase.png","146"
"html-button-response-mod","153","334776","0.0-153.0","75991","","","","","","triplet","1019","","","","2","stimuli/boats_lowercase.png","stimuli/stim015_inanimate_boats_3.png","stimuli/face_lowercase.png","147"
"html-button-response-mod","154","335974","0.0-154.0","75991","","","","","","triplet","695.7000000029802","","","","0","stimuli/stim006_animate_bird_2.png","stimuli/stim017_inanimate_tree_1.png","stimuli/stim020_inanimate_tree_4.png","148"
"html-button-response-mod","155","337480","0.0-155.0","75991","","","","","","triplet","997.5999999940395","","","","2","stimuli/stim017_inanimate_tree_1.png","stimuli/tools_lowercase.png","stimuli/stim010_animate_face_2.png","149"
"html-button-response","156","339520","0.0-156.0","75991","","","","","","break","1537.3000000044703","<p>BREAK</p><p>Take a break for as long as you need</p><p>Click the button to continue</p>","0","","","","","",""
"html-button-response-mod","157","340569","0.0-157.0","75991","","","","","","triplet","1047.7999999970198","","","","1","stimuli/stim002_animate_fish_2.png","stimuli/stim018_inanimate_tree_2.png","stimuli/face_lowercase.png","150"
"html-button-response-mod","158","341838","0.0-158.0","75991","","","","","","triplet","766.3000000044703","","","","0","stimuli/stim016_inanimate_boats_4.png","stimuli/stim003_animate_fish_3.png","stimuli/stim012_animate_face_4.png","151"
"html-button-response-mod","159","343334","0.0-159.0","75991","","","","","","triplet","985.0999999940395","","","","1","stimuli/face_uppercase.png","stimuli/boats_uppercase.png","stimuli/stim009_animate_face_1.png","152"
"html-button-response-mod","160","344700","0.0-160.0","75991","","","","","","triplet","863.5","","","","2","stimuli/stim002_animate_fish_2.png","stimuli/stim004_animate_fish_4.png","stimuli/stim021_inanimate_tools_1.png","153"
"html-button-response-mod","161","346161","0.0-161.0","75991","","","","","","triplet","958.7000000029802","","","","0","stimuli/stim023_inanimate_tools_3.png","stimuli/tree_lowercase.png","stimuli/stim005_animate_bird_1.png","154"
"html-button-response-mod","162","347947","0.0-162.0","75991","","","","","","triplet","1281.6999999955297","","","","0","stimuli/fish_uppercase.png","stimuli/tools_lowercase.png","stimuli/stim024_inanimate_tools_4.png","155"
"html-button-response-mod","163","349233","0.0-163.0","75991","","","","","","triplet","784.5","","","","1","stimuli/bird_lowercase.png","stimuli/stim023_inanimate_tools_3.png","stimuli/stim008_animate_bird_4.png","156"
"html-button-response-mod","164","350729","0.0-164.0","75991","","","","","","triplet","994.2999999970198","","","","2","stimuli/tree_uppercase.png","stimuli/stim019_inanimate_tree_3.png","stimuli/fish_uppercase.png","157"
"html-button-response-mod","165","352068","0.0-165.0","75991","","","","","","triplet","835.7000000029802","","","","1","stimuli/stim021_inanimate_tools_1.png","stimuli/boats_uppercase.png","stimuli/stim023_inanimate_tools_3.png","158"
"html-button-response-mod","166","353879","0.0-166.0","75991","","","","","","triplet","1308.5","","","","1","stimuli/stim020_inanimate_tree_4.png","stimuli/stim014_inanimate_boats_2.png","stimuli/fish_uppercase.png","159"
"html-button-response-mod","167","355481","0.0-167.0","75991","","","","","","triplet","1099","","","","0","stimuli/boats_uppercase.png","stimuli/stim005_animate_bird_1.png","stimuli/face_uppercase.png","160"
"html-button-response-mod","168","357188","0.0-168.0","75991","","","","","","triplet","1197.3000000044703","","","","0","stimuli/stim010_animate_face_2.png","stimuli/stim006_animate_bird_2.png","stimuli/stim018_inanimate_tree_2.png","161"
"html-button-response-mod","169","358658","0.0-169.0","75991","","","","","","triplet","968.2999999970198","","","","2","stimuli/stim008_animate_bird_4.png","stimuli/stim010_animate_face_2.png","stimuli/stim024_inanimate_tools_4.png","162"
"html-button-response-mod","170","360374","0.0-170.0","75991","","","","","","triplet","1213.3999999985099","","","","1","stimuli/bird_lowercase.png","stimuli/fish_lowercase.png","stimuli/stim013_inanimate_boats_1.png","163"
"html-button-response-mod","171","362255","0.0-171.0","75991","","","","","","triplet","1364.6999999955297","","","","0","stimuli/stim016_inanimate_boats_4.png","stimuli/face_uppercase.png","stimuli/stim023_inanimate_tools_3.png","164"
"html-button-response-mod","172","363621","0.0-172.0","75991","","","","","","triplet","863.5","","","","2","stimuli/stim019_inanimate_tree_3.png","stimuli/stim018_inanimate_tree_2.png","stimuli/tree_lowercase.png","165"
"html-button-response-mod","173","365065","0.0-173.0","75991","","","","","","triplet","942","","","","1","stimuli/stim019_inanimate_tree_3.png","stimuli/stim015_inanimate_boats_3.png","stimuli/face_uppercase.png","166"
"html-button-response-mod","174","366850","0.0-174.0","75991","","","","","","triplet","1280.5","","","","0","stimuli/stim018_inanimate_tree_2.png","stimuli/stim008_animate_bird_4.png","stimuli/fish_lowercase.png","167"
"html-button-response-mod","175","368696","0.0-175.0","75991","","","","","","triplet","1334.2000000029802","","","","2","stimuli/tools_uppercase.png","stimuli/boats_uppercase.png","stimuli/stim008_animate_bird_4.png","168"
"html-button-response-mod","176","370422","0.0-176.0","75991","","","","","","triplet","1223","","","","2","stimuli/stim014_inanimate_boats_2.png","stimuli/tools_lowercase.png","stimuli/stim007_animate_bird_3.png","169"
"html-button-response-mod","177","372449","0.0-177.0","75991","","","","","","triplet","1524.5","","","","1","stimuli/stim002_animate_fish_2.png","stimuli/boats_lowercase.png","stimuli/stim020_inanimate_tree_4.png","170"
"html-button-response-mod","178","374647","0.0-178.0","75991","","","","","","triplet","1684.6000000014901","","","","1","stimuli/stim001_animate_fish_1.png","stimuli/stim019_inanimate_tree_3.png","stimuli/stim015_inanimate_boats_3.png","171"
"html-button-response-mod","179","377036","0.0-179.0","75991","","","","","","triplet","1876.1000000014901","","","","1","stimuli/stim002_animate_fish_2.png","stimuli/stim008_animate_bird_4.png","stimuli/fish_lowercase.png","172"
"html-button-response-mod","180","378437","0.0-180.0","75991","","","","","","triplet","895.6999999955297","","","","0","stimuli/tools_lowercase.png","stimuli/stim020_inanimate_tree_4.png","stimuli/stim005_animate_bird_1.png","173"
"html-button-response-mod","181","380109","0.0-181.0","75991","","","","","","triplet","1161.2000000029802","","","","0","stimuli/stim020_inanimate_tree_4.png","stimuli/stim012_animate_face_4.png","stimuli/stim014_inanimate_boats_2.png","174"
"html-button-response-mod","182","381946","0.0-182.0","75991","","","","","","triplet","1328.7999999970198","","","","2","stimuli/stim009_animate_face_1.png","stimuli/fish_uppercase.png","stimuli/stim023_inanimate_tools_3.png","175"
"html-button-response-mod","183","383425","0.0-183.0","75991","","","","","","triplet","977.3999999985099","","","","0","stimuli/stim023_inanimate_tools_3.png","stimuli/stim013_inanimate_boats_1.png","stimuli/stim001_animate_fish_1.png","176"
"html-button-response-mod","184","385070","0.0-184.0","75991","","","","","","triplet","1131.3999999985099","","","","2","stimuli/stim014_inanimate_boats_2.png","stimuli/boats_lowercase.png","stimuli/stim024_inanimate_tools_4.png","177"
"html-button-response-mod","185","386935","0.0-185.0","75991","","","","","","triplet","1361.2000000029802","","","","2","stimuli/fish_lowercase.png","stimuli/boats_uppercase.png","stimuli/stim009_animate_face_1.png","178"
"html-button-response-mod","186","388456","0.0-186.0","75991","","","","","","triplet","1018.1999999955297","","","","0","stimuli/stim011_animate_face_3.png","stimuli/stim001_animate_fish_1.png","stimuli/fish_lowercase.png","179"
"html-button-response-mod","187","390198","0.0-187.0","75991","","","","","","triplet","1233.8999999985099","","","","1","stimuli/stim018_inanimate_tree_2.png","stimuli/face_lowercase.png","stimuli/stim004_animate_fish_4.png","180"
"html-button-response-mod","188","391529","0.0-188.0","75991","","","","","","triplet","827.4000000059605","","","","1","stimuli/stim019_inanimate_tree_3.png","stimuli/stim004_animate_fish_4.png","stimuli/stim020_inanimate_tree_4.png","181"
"html-button-response-mod","189","392999","0.0-189.0","75991","","","","","","triplet","967.3999999985099","","","","0","stimuli/stim012_animate_face_4.png","stimuli/stim004_animate_fish_4.png","stimuli/stim006_animate_bird_2.png","182"
"html-button-response-mod","190","394365","0.0-190.0","75991","","","","","","triplet","864.2000000029802","","","","1","stimuli/stim006_animate_bird_2.png","stimuli/stim022_inanimate_tools_2.png","stimuli/tree_uppercase.png","183"
"html-button-response-mod","191","396097","0.0-191.0","75991","","","","","","triplet","1229.6000000014901","","","","1","stimuli/stim021_inanimate_tools_1.png","stimuli/stim016_inanimate_boats_4.png","stimuli/fish_lowercase.png","184"
"html-button-response-mod","192","397778","0.0-192.0","75991","","","","","","triplet","1175.8999999985099","","","","2","stimuli/stim010_animate_face_2.png","stimuli/stim012_animate_face_4.png","stimuli/stim006_animate_bird_2.png","185"
"html-button-response-mod","193","400035","0.0-193.0","75991","","","","","","triplet","1754.3999999985099","","","","1","stimuli/stim007_animate_bird_3.png","stimuli/stim009_animate_face_1.png","stimuli/fish_uppercase.png","186"
"html-button-response-mod","194","401716","0.0-194.0","75991","","","","","","triplet","1178.2999999970198","","","","2","stimuli/tools_lowercase.png","stimuli/stim022_inanimate_tools_2.png","stimuli/tree_lowercase.png","187"
"html-button-response-mod","195","403081","0.0-195.0","75991","","","","","","triplet","862.1999999955297","","","","1","stimuli/boats_uppercase.png","stimuli/stim001_animate_fish_1.png","stimuli/stim015_inanimate_boats_3.png","188"
"html-button-response-mod","196","404708","0.0-196.0","75991","","","","","","triplet","1124.8999999985099","","","","2","stimuli/stim024_inanimate_tools_4.png","stimuli/stim022_inanimate_tools_2.png","stimuli/boats_lowercase.png","189"
"html-button-response-mod","197","406283","0.0-197.0","75991","","","","","","triplet","1072.1000000014901","","","","1","stimuli/stim012_animate_face_4.png","stimuli/stim024_inanimate_tools_4.png","stimuli/stim005_animate_bird_1.png","190"
"html-button-response-mod","198","407885","0.0-198.0","75991","","","","","","triplet","1098.6999999955297","","","","1","stimuli/stim008_animate_bird_4.png","stimuli/tree_lowercase.png","stimuli/bird_uppercase.png","191"
"html-button-response-mod","199","409626","0.0-199.0","75991","","","","","","triplet","1237.1999999955297","","","","1","stimuli/tree_uppercase.png","stimuli/stim016_inanimate_boats_4.png","stimuli/stim004_animate_fish_4.png","192"
"html-button-response-mod","200","411089","0.0-200.0","75991","","","","","","triplet","960.1000000014901","","","","1","stimuli/stim003_animate_fish_3.png","stimuli/stim012_animate_face_4.png","stimuli/stim001_animate_fish_1.png","193"
"html-button-response-mod","201","412269","0.0-201.0","75991","","","","","","triplet","666.8999999985099","","","","1","stimuli/stim018_inanimate_tree_2.png","stimuli/stim007_animate_bird_3.png","stimuli/stim019_inanimate_tree_3.png","194"
"html-button-response-mod","202","414054","0.0-202.0","75991","","","","","","triplet","1268.5999999940395","","","","0","stimuli/boats_uppercase.png","stimuli/stim003_animate_fish_3.png","stimuli/stim005_animate_bird_1.png","195"
"html-button-response-mod","203","416049","0.0-203.0","75991","","","","","","triplet","1492.2000000029802","","","","2","stimuli/face_uppercase.png","stimuli/stim012_animate_face_4.png","stimuli/fish_uppercase.png","196"
"html-button-response-mod","204","417549","0.0-204.0","75991","","","","","","triplet","997.2999999970198","","","","2","stimuli/face_lowercase.png","stimuli/stim011_animate_face_3.png","stimuli/stim006_animate_bird_2.png","197"
"html-button-response-mod","205","419158","0.0-205.0","75991","","","","","","triplet","1105.2999999970198","","","","2","stimuli/fish_lowercase.png","stimuli/stim007_animate_bird_3.png","stimuli/tools_lowercase.png","198"
"html-button-response-mod","206","421721","0.0-206.0","75991","","","","","","triplet","2058.7000000029802","","","","0","stimuli/tools_uppercase.png","stimuli/face_uppercase.png","stimuli/stim003_animate_fish_3.png","199"
"html-button-response","207","423662","0.0-207.0","75991","","","","","","break","1432.2999999970198","<p>BREAK</p><p>Take a break for as long as you need</p><p>Click the button to continue</p>","0","","","","","",""
"html-button-response-mod","208","425110","0.0-208.0","75991","","","","","","triplet","1445.1000000014901","","","","0","stimuli/bird_uppercase.png","stimuli/face_uppercase.png","stimuli/face_lowercase.png","200"
"html-button-response-mod","209","426579","0.0-209.0","75991","","","","","","triplet","965.8999999985099","","","","0","stimuli/face_uppercase.png","stimuli/bird_uppercase.png","stimuli/stim013_inanimate_boats_1.png","201"
"html-button-response-mod","210","427969","0.0-210.0","75991","","","","","","triplet","886.2999999970198","","","","1","stimuli/stim024_inanimate_tools_4.png","stimuli/stim017_inanimate_tree_1.png","stimuli/stim008_animate_bird_4.png","202"
"html-button-response-mod","211","429791","0.0-211.0","75991","","","","","","triplet","1319.5999999940395","","","","2","stimuli/stim013_inanimate_boats_1.png","stimuli/bird_lowercase.png","stimuli/stim010_animate_face_2.png","203"
"html-button-response-mod","212","431461","0.0-212.0","75991","","","","","","triplet","1167.5","","","","1","stimuli/fish_lowercase.png","stimuli/stim009_animate_face_1.png","stimuli/tools_lowercase.png","204"
"html-button-response-mod","213","433545","0.0-213.0","75991","","","","","","triplet","1581.0999999940395","","","","0","stimuli/stim015_inanimate_boats_3.png","stimuli/bird_lowercase.png","stimuli/stim010_animate_face_2.png","205"
"html-button-response-mod","214","435161","0.0-214.0","75991","","","","","","triplet","1102.6000000014901","","","","1","stimuli/stim006_animate_bird_2.png","stimuli/stim022_inanimate_tools_2.png","stimuli/stim010_animate_face_2.png","206"
"html-button-response-mod","215","436686","0.0-215.0","75991","","","","","","triplet","1020.5","","","","2","stimuli/stim008_animate_bird_4.png","stimuli/stim012_animate_face_4.png","stimuli/tools_lowercase.png","207"
"html-button-response-mod","216","438103","0.0-216.0","75991","","","","","","triplet","914.7000000029802","","","","1","stimuli/stim024_inanimate_tools_4.png","stimuli/face_lowercase.png","stimuli/stim022_inanimate_tools_2.png","208"
"html-button-response-mod","217","439547","0.0-217.0","75991","","","","","","triplet","940.8999999985099","","","","0","stimuli/stim022_inanimate_tools_2.png","stimuli/face_uppercase.png","stimuli/face_lowercase.png","209"
"html-button-response-mod","218","441577","0.0-218.0","75991","","","","","","triplet","1526.1000000014901","","","","1","stimuli/stim008_animate_bird_4.png","stimuli/tools_uppercase.png","stimuli/fish_uppercase.png","210"
"html-button-response-mod","219","442986","0.0-219.0","75991","","","","","","triplet","906.0999999940395","","","","2","stimuli/stim011_animate_face_3.png","stimuli/stim009_animate_face_1.png","stimuli/stim006_animate_bird_2.png","211"
"html-button-response-mod","220","444562","0.0-220.0","75991","","","","","","triplet","1071.8000000044703","","","","1","stimuli/stim003_animate_fish_3.png","stimuli/stim018_inanimate_tree_2.png","stimuli/tools_lowercase.png","212"
"html-button-response-mod","221","446268","0.0-221.0","75991","","","","","","triplet","1202.8999999985099","","","","1","stimuli/bird_lowercase.png","stimuli/tree_lowercase.png","stimuli/stim003_animate_fish_3.png","213"
"html-button-response-mod","222","449311","0.0-222.0","75991","","","","","","triplet","2541.5","","","","2","stimuli/bird_uppercase.png","stimuli/stim005_animate_bird_1.png","stimuli/stim020_inanimate_tree_4.png","214"
"html-button-response-mod","223","450783","0.0-223.0","75991","","","","","","triplet","961.6000000014901","","","","1","stimuli/stim020_inanimate_tree_4.png","stimuli/stim009_animate_face_1.png","stimuli/tree_lowercase.png","215"
"html-button-response-mod","224","452053","0.0-224.0","75991","","","","","","triplet","766.5","","","","0","stimuli/stim010_animate_face_2.png","stimuli/stim002_animate_fish_2.png","stimuli/stim015_inanimate_boats_3.png","216"
"html-button-response-mod","225","453803","0.0-225.0","75991","","","","","","triplet","1247.3000000044703","","","","0","stimuli/tree_uppercase.png","stimuli/bird_uppercase.png","stimuli/stim002_animate_fish_2.png","217"
"html-button-response-mod","226","456201","0.0-226.0","75991","","","","","","triplet","1895.4000000059605","","","","2","stimuli/tree_uppercase.png","stimuli/stim013_inanimate_boats_1.png","stimuli/stim023_inanimate_tools_3.png","218"
"html-button-response-mod","227","457855","0.0-227.0","75991","","","","","","triplet","1151.3000000044703","","","","2","stimuli/stim015_inanimate_boats_3.png","stimuli/boats_lowercase.png","stimuli/tree_lowercase.png","219"
"html-button-response-mod","228","459457","0.0-228.0","75991","","","","","","triplet","1099.5","","","","0","stimuli/stim022_inanimate_tools_2.png","stimuli/stim019_inanimate_tree_3.png","stimuli/bird_lowercase.png","220"
"html-button-response-mod","229","461076","0.0-229.0","75991","","","","","","triplet","1115.6000000014901","","","","0","stimuli/bird_lowercase.png","stimuli/stim004_animate_fish_4.png","stimuli/stim021_inanimate_tools_1.png","221"
"html-button-response-mod","230","462834","0.0-230.0","75991","","","","","","triplet","1242.7000000029802","","","","0","stimuli/stim021_inanimate_tools_1.png","stimuli/stim001_animate_fish_1.png","stimuli/fish_uppercase.png","222"
"html-button-response-mod","231","465024","0.0-231.0","75991","","","","","","triplet","1681.1000000014901","","","","1","stimuli/face_uppercase.png","stimuli/stim021_inanimate_tools_1.png","stimuli/fish_uppercase.png","223"
"html-button-response-mod","232","466590","0.0-232.0","75991","","","","","","triplet","1064.1999999955297","","","","0","stimuli/tools_uppercase.png","stimuli/stim001_animate_fish_1.png","stimuli/stim009_animate_face_1.png","224"
"html-button-response-mod","233","467953","0.0-233.0","75991","","","","","","triplet","861.6000000014901","","","","2","stimuli/stim019_inanimate_tree_3.png","stimuli/stim015_inanimate_boats_3.png","stimuli/stim021_inanimate_tools_1.png","225"
"html-button-response-mod","234","469976","0.0-234.0","75991","","","","","","triplet","1519.6999999955297","","","","0","stimuli/stim020_inanimate_tree_4.png","stimuli/boats_uppercase.png","stimuli/face_lowercase.png","226"
"html-button-response-mod","235","472128","0.0-235.0","75991","","","","","","triplet","1635.7000000029802","","","","1","stimuli/stim002_animate_fish_2.png","stimuli/stim019_inanimate_tree_3.png","stimuli/stim012_animate_face_4.png","227"
"html-button-response-mod","236","473809","0.0-236.0","75991","","","","","","triplet","1177.6999999955297","","","","1","stimuli/stim016_inanimate_boats_4.png","stimuli/face_uppercase.png","stimuli/tree_uppercase.png","228"
"html-button-response-mod","237","475174","0.0-237.0","75991","","","","","","triplet","863.3999999985099","","","","2","stimuli/fish_uppercase.png","stimuli/stim004_animate_fish_4.png","stimuli/stim024_inanimate_tools_4.png","229"
"html-button-response-mod","238","476645","0.0-238.0","75991","","","","","","triplet","968.1000000014901","","","","1","stimuli/stim021_inanimate_tools_1.png","stimuli/stim009_animate_face_1.png","stimuli/stim022_inanimate_tools_2.png","230"
"html-button-response-mod","239","477983","0.0-239.0","75991","","","","","","triplet","835.3999999985099","","","","0","stimuli/stim015_inanimate_boats_3.png","stimuli/stim023_inanimate_tools_3.png","stimuli/stim013_inanimate_boats_1.png","231"
"html-button-response-mod","240","479541","0.0-240.0","75991","","","","","","triplet","1054.0999999940395","","","","0","stimuli/stim012_animate_face_4.png","stimuli/stim016_inanimate_boats_4.png","stimuli/stim002_animate_fish_2.png","232"
"html-button-response-mod","241","482026","0.0-241.0","75991","","","","","","triplet","1980.6000000014901","","","","1","stimuli/bird_lowercase.png","stimuli/stim015_inanimate_boats_3.png","stimuli/tree_uppercase.png","233"
"html-button-response-mod","242","483417","0.0-242.0","75991","","","","","","triplet","888.1000000014901","","","","1","stimuli/face_lowercase.png","stimuli/bird_lowercase.png","stimuli/stim015_inanimate_boats_3.png","234"
"html-button-response-mod","243","486464","0.0-243.0","75991","","","","","","triplet","2543.5","","","","1","stimuli/stim003_animate_fish_3.png","stimuli/tools_lowercase.png","stimuli/bird_lowercase.png","235"
"html-button-response-mod","244","488406","0.0-244.0","75991","","","","","","triplet","1432.2999999970198","","","","0","stimuli/face_uppercase.png","stimuli/stim007_animate_bird_3.png","stimuli/bird_uppercase.png","236"
"html-button-response-mod","245","490453","0.0-245.0","75991","","","","","","triplet","1545.3000000044703","","","","1","stimuli/boats_lowercase.png","stimuli/tools_lowercase.png","stimuli/stim020_inanimate_tree_4.png","237"
"html-button-response-mod","246","492457","0.0-246.0","75991","","","","","","triplet","1492.5","","","","0","stimuli/stim011_animate_face_3.png","stimuli/bird_uppercase.png","stimuli/stim020_inanimate_tree_4.png","238"
"html-button-response-mod","247","494234","0.0-247.0","75991","","","","","","triplet","1269.5","","","","0","stimuli/stim013_inanimate_boats_1.png","stimuli/stim003_animate_fish_3.png","stimuli/stim006_animate_bird_2.png","239"
"html-button-response-mod","248","495626","0.0-248.0","75991","","","","","","triplet","889.2999999970198","","","","1","stimuli/stim008_animate_bird_4.png","stimuli/stim011_animate_face_3.png","stimuli/stim003_animate_fish_3.png","240"
"html-button-response-mod","249","497420","0.0-249.0","75991","","","","","","triplet","1290.5","","","","0","stimuli/stim015_inanimate_boats_3.png","stimuli/tools_lowercase.png","stimuli/stim023_inanimate_tools_3.png","241"
"html-button-response-mod","250","498943","0.0-250.0","75991","","","","","","triplet","1020.3000000044703","","","","0","stimuli/stim024_inanimate_tools_4.png","stimuli/stim015_inanimate_boats_3.png","stimuli/stim007_animate_bird_3.png","242"
"html-button-response-mod","251","500745","0.0-251.0","75991","","","","","","triplet","1300.1000000014901","","","","1","stimuli/bird_uppercase.png","stimuli/stim023_inanimate_tools_3.png","stimuli/face_uppercase.png","243"
"html-button-response-mod","252","502407","0.0-252.0","75991","","","","","","triplet","1159","","","","1","stimuli/stim018_inanimate_tree_2.png","stimuli/stim023_inanimate_tools_3.png","stimuli/stim011_animate_face_3.png","244"
"html-button-response-mod","253","504762","0.0-253.0","75991","","","","","","triplet","1838.7000000029802","","","","1","stimuli/stim022_inanimate_tools_2.png","stimuli/stim009_animate_face_1.png","stimuli/boats_lowercase.png","245"
"html-button-response-mod","254","506374","0.0-254.0","75991","","","","","","triplet","1109.6999999955297","","","","1","stimuli/stim018_inanimate_tree_2.png","stimuli/stim006_animate_bird_2.png","stimuli/stim013_inanimate_boats_1.png","246"
"html-button-response-mod","255","508070","0.0-255.0","75991","","","","","","triplet","1193.6999999955297","","","","2","stimuli/stim002_animate_fish_2.png","stimuli/stim003_animate_fish_3.png","stimuli/face_uppercase.png","247"
"html-button-response-mod","256","509567","0.0-256.0","75991","","","","","","triplet","993.8999999985099","","","","1","stimuli/stim001_animate_fish_1.png","stimuli/tools_uppercase.png","stimuli/stim016_inanimate_boats_4.png","248"
"html-button-response-mod","257","511756","0.0-257.0","75991","","","","","","triplet","1678.6999999955297","","","","2","stimuli/tree_uppercase.png","stimuli/tools_lowercase.png","stimuli/stim008_animate_bird_4.png","249"
"html-button-response","258","513716","0.0-258.0","75991","","","","","","break","1455.1000000014901","<p>BREAK</p><p>Take a break for as long as you need</p><p>Click the button to continue</p>","0","","","","","",""
"html-button-response-mod","259","515027","0.0-259.0","75991","","","","","","triplet","1308.3999999985099","","","","1","stimuli/bird_lowercase.png","stimuli/stim017_inanimate_tree_1.png","stimuli/stim008_animate_bird_4.png","250"
"html-button-response-mod","260","516470","0.0-260.0","75991","","","","","","triplet","940.5","","","","1","stimuli/stim008_animate_bird_4.png","stimuli/stim012_animate_face_4.png","stimuli/stim020_inanimate_tree_4.png","251"
"html-button-response-mod","261","517811","0.0-261.0","75991","","","","","","triplet","838.5","","","","1","stimuli/stim024_inanimate_tools_4.png","stimuli/stim015_inanimate_boats_3.png","stimuli/stim021_inanimate_tools_1.png","252"
"html-button-response-mod","262","519265","0.0-262.0","75991","","","","","","triplet","949.8000000044703","","","","1","stimuli/stim003_animate_fish_3.png","stimuli/stim015_inanimate_boats_3.png","stimuli/tools_uppercase.png","253"
"html-button-response-mod","263","520882","0.0-263.0","75991","","","","","","triplet","1110.3999999985099","","","","1","stimuli/stim014_inanimate_boats_2.png","stimuli/stim020_inanimate_tree_4.png","stimuli/stim007_animate_bird_3.png","254"
"html-button-response-mod","264","522956","0.0-264.0","75991","","","","","","triplet","1571.4000000059605","","","","0","stimuli/stim020_inanimate_tree_4.png","stimuli/face_lowercase.png","stimuli/stim015_inanimate_boats_3.png","255"
"html-button-response-mod","265","525083","0.0-265.0","75991","","","","","","triplet","1624.3999999985099","","","","2","stimuli/stim007_animate_bird_3.png","stimuli/tree_uppercase.png","stimuli/stim021_inanimate_tools_1.png","256"
"html-button-response-mod","266","526947","0.0-266.0","75991","","","","","","triplet","1361.5","","","","1","stimuli/stim013_inanimate_boats_1.png","stimuli/stim018_inanimate_tree_2.png","stimuli/stim022_inanimate_tools_2.png","257"
"html-button-response-mod","267","528452","0.0-267.0","75991","","","","","","triplet","1002.2999999970198","","","","0","stimuli/stim007_animate_bird_3.png","stimuli/stim022_inanimate_tools_2.png","stimuli/tools_uppercase.png","258"
"html-button-response-mod","268","529975","0.0-268.0","75991","","","","","","triplet","1020.1000000014901","","","","1","stimuli/stim002_animate_fish_2.png","stimuli/fish_uppercase.png","stimuli/stim007_animate_bird_3.png","259"
"html-button-response-mod","269","531960","0.0-269.0","75991","","","","","","triplet","1483.1000000014901","","","","2","stimuli/stim013_inanimate_boats_1.png","stimuli/fish_lowercase.png","stimuli/face_uppercase.png","260"
"html-button-response-mod","270","533590","0.0-270.0","75991","","","","","","triplet","1127.9000000059605","","","","1","stimuli/stim013_inanimate_boats_1.png","stimuli/stim012_animate_face_4.png","stimuli/fish_lowercase.png","261"
"html-button-response-mod","271","535514","0.0-271.0","75991","","","","","","triplet","1421.6000000014901","","","","1","stimuli/face_lowercase.png","stimuli/stim022_inanimate_tools_2.png","stimuli/stim004_animate_fish_4.png","262"
"html-button-response-mod","272","537220","0.0-272.0","75991","","","","","","triplet","1202.7000000029802","","","","1","stimuli/stim005_animate_bird_1.png","stimuli/stim019_inanimate_tree_3.png","stimuli/stim014_inanimate_boats_2.png","263"
"html-button-response-mod","273","539373","0.0-273.0","75991","","","","","","triplet","1649.2999999970198","","","","0","stimuli/stim021_inanimate_tools_1.png","stimuli/tree_uppercase.png","stimuli/tree_lowercase.png","264"
"html-button-response-mod","274","541999","0.0-274.0","75991","","","","","","triplet","2122.10000000149","","","","0","stimuli/stim018_inanimate_tree_2.png","stimuli/bird_uppercase.png","stimuli/stim008_animate_bird_4.png","265"
"html-button-response-mod","275","543722","0.0-275.0","75991","","","","","","triplet","1221.2000000029802","","","","0","stimuli/stim010_animate_face_2.png","stimuli/fish_uppercase.png","stimuli/stim019_inanimate_tree_3.png","266"
"html-button-response-mod","276","545244","0.0-276.0","75991","","","","","","triplet","1019.2000000029802","","","","0","stimuli/stim023_inanimate_tools_3.png","stimuli/stim012_animate_face_4.png","stimuli/stim009_animate_face_1.png","267"
"html-button-response-mod","277","547241","0.0-277.0","75991","","","","","","triplet","1494.1000000014901","","","","1","stimuli/stim011_animate_face_3.png","stimuli/stim024_inanimate_tools_4.png","stimuli/tree_lowercase.png","268"
"html-button-response-mod","278","549000","0.0-278.0","75991","","","","","","triplet","1256","","","","2","stimuli/boats_lowercase.png","stimuli/stim020_inanimate_tree_4.png","stimuli/stim021_inanimate_tools_1.png","269"
"html-button-response-mod","279","551608","0.0-279.0","75991","","","","","","triplet","2102.7000000029802","","","","2","stimuli/stim014_inanimate_boats_2.png","stimuli/bird_lowercase.png","stimuli/fish_lowercase.png","270"
"html-button-response-mod","280","553655","0.0-280.0","75991","","","","","","triplet","1544.5","","","","0","stimuli/fish_uppercase.png","stimuli/boats_lowercase.png","stimuli/stim014_inanimate_boats_2.png","271"
"html-button-response-mod","281","555330","0.0-281.0","75991","","","","","","triplet","1171.6000000014901","","","","2","stimuli/stim006_animate_bird_2.png","stimuli/bird_uppercase.png","stimuli/stim024_inanimate_tools_4.png","272"
"html-button-response-mod","282","556779","0.0-282.0","75991","","","","","","triplet","946","","","","2","stimuli/stim005_animate_bird_1.png","stimuli/stim002_animate_fish_2.png","stimuli/stim024_inanimate_tools_4.png","273"
"html-button-response-mod","283","559108","0.0-283.0","75991","","","","","","triplet","1812.8999999985099","","","","0","stimuli/fish_uppercase.png","stimuli/bird_lowercase.png","stimuli/tree_lowercase.png","274"
"html-button-response-mod","284","560761","0.0-284.0","75991","","","","","","triplet","1147.8999999985099","","","","0","stimuli/boats_uppercase.png","stimuli/stim007_animate_bird_3.png","stimuli/stim004_animate_fish_4.png","275"
"html-button-response-mod","285","562283","0.0-285.0","75991","","","","","","triplet","1016.2999999970198","","","","0","stimuli/stim012_animate_face_4.png","stimuli/tree_uppercase.png","stimuli/tree_lowercase.png","276"
"html-button-response-mod","286","563702","0.0-286.0","75991","","","","","","triplet","910.8999999985099","","","","0","stimuli/stim020_inanimate_tree_4.png","stimuli/stim005_animate_bird_1.png","stimuli/stim006_animate_bird_2.png","277"
"html-button-response-mod","287","565470","0.0-287.0","75991","","","","","","triplet","1264.8999999985099","","","","1","stimuli/stim001_animate_fish_1.png","stimuli/stim015_inanimate_boats_3.png","stimuli/tree_lowercase.png","278"
"html-button-response-mod","288","567772","0.0-288.0","75991","","","","","","triplet","1799.2999999970198","","","","2","stimuli/stim006_animate_bird_2.png","stimuli/bird_lowercase.png","stimuli/stim002_animate_fish_2.png","279"
"html-button-response-mod","289","569775","0.0-289.0","75991","","","","","","triplet","1499.7000000029802","","","","0","stimuli/stim012_animate_face_4.png","stimuli/stim001_animate_fish_1.png","stimuli/stim016_inanimate_boats_4.png","280"
"html-button-response-mod","290","571996","0.0-290.0","75991","","","","","","triplet","1704.6000000014901","","","","1","stimuli/tools_uppercase.png","stimuli/stim010_animate_face_2.png","stimuli/stim023_inanimate_tools_3.png","281"
"html-button-response-mod","291","574212","0.0-291.0","75991","","","","","","triplet","1713.1999999955297","","","","0","stimuli/stim023_inanimate_tools_3.png","stimuli/stim003_animate_fish_3.png","stimuli/stim012_animate_face_4.png","282"
"html-button-response-mod","292","576277","0.0-292.0","75991","","","","","","triplet","1561.5","","","","2","stimuli/stim008_animate_bird_4.png","stimuli/stim005_animate_bird_1.png","stimuli/bird_uppercase.png","283"
"html-button-response-mod","293","578885","0.0-293.0","75991","","","","","","triplet","2098.5","","","","1","stimuli/stim008_animate_bird_4.png","stimuli/stim014_inanimate_boats_2.png","stimuli/bird_uppercase.png","284"
"html-button-response-mod","294","580723","0.0-294.0","75991","","","","","","triplet","1334.2999999970198","","","","1","stimuli/boats_uppercase.png","stimuli/stim012_animate_face_4.png","stimuli/stim004_animate_fish_4.png","285"
"html-button-response-mod","295","582406","0.0-295.0","75991","","","","","","triplet","1165.5","","","","1","stimuli/stim014_inanimate_boats_2.png","stimuli/stim023_inanimate_tools_3.png","stimuli/stim010_animate_face_2.png","286"
"html-button-response-mod","296","584154","0.0-296.0","75991","","","","","","triplet","1245.3999999985099","","","","1","stimuli/stim002_animate_fish_2.png","stimuli/tools_uppercase.png","stimuli/stim011_animate_face_3.png","287"
"html-button-response-mod","297","585939","0.0-297.0","75991","","","","","","triplet","1282.7999999970198","","","","0","stimuli/tools_uppercase.png","stimuli/stim002_animate_fish_2.png","stimuli/stim004_animate_fish_4.png","288"
"html-button-response-mod","298","587708","0.0-298.0","75991","","","","","","triplet","1265.1000000014901","","","","0","stimuli/stim009_animate_face_1.png","stimuli/boats_lowercase.png","stimuli/stim016_inanimate_boats_4.png","289"
"html-button-response-mod","299","589247","0.0-299.0","75991","","","","","","triplet","1030.1000000014901","","","","2","stimuli/stim009_animate_face_1.png","stimuli/stim012_animate_face_4.png","stimuli/stim003_animate_fish_3.png","290"
"html-button-response-mod","300","591593","0.0-300.0","75991","","","","","","triplet","1843.3999999985099","","","","1","stimuli/stim007_animate_bird_3.png","stimuli/face_uppercase.png","stimuli/stim004_animate_fish_4.png","291"
"html-button-response-mod","301","593001","0.0-301.0","75991","","","","","","triplet","905.3999999985099","","","","1","stimuli/stim005_animate_bird_1.png","stimuli/stim021_inanimate_tools_1.png","stimuli/stim017_inanimate_tree_1.png","292"
"html-button-response-mod","302","594584","0.0-302.0","75991","","","","","","triplet","1079.1000000014901","","","","0","stimuli/boats_uppercase.png","stimuli/stim012_animate_face_4.png","stimuli/stim018_inanimate_tree_2.png","293"
"html-button-response-mod","303","596177","0.0-303.0","75991","","","","","","triplet","1077","","","","1","stimuli/stim023_inanimate_tools_3.png","stimuli/stim011_animate_face_3.png","stimuli/stim022_inanimate_tools_2.png","294"
"html-button-response-mod","304","597412","0.0-304.0","75991","","","","","","triplet","732.7999999970198","","","","2","stimuli/stim024_inanimate_tools_4.png","stimuli/stim022_inanimate_tools_2.png","stimuli/stim004_animate_fish_4.png","295"
"html-button-response-mod","305","599092","0.0-305.0","75991","","","","","","triplet","1167.3999999985099","","","","2","stimuli/stim003_animate_fish_3.png","stimuli/fish_lowercase.png","stimuli/tree_lowercase.png","296"
"html-button-response-mod","306","600747","0.0-306.0","75991","","","","","","triplet","1151.6000000014901","","","","0","stimuli/tree_lowercase.png","stimuli/stim012_animate_face_4.png","stimuli/fish_lowercase.png","297"
"html-button-response-mod","307","602400","0.0-307.0","75991","","","","","","triplet","1145.3000000044703","","","","0","stimuli/boats_lowercase.png","stimuli/stim017_inanimate_tree_1.png","stimuli/stim001_animate_fish_1.png","298"
"html-button-response-mod","308","603669","0.0-308.0","75991","","","","","","triplet","766.7000000029802","","","","0","stimuli/tools_uppercase.png","stimuli/stim004_animate_fish_4.png","stimuli/stim009_animate_face_1.png","299"
"html-button-response","309","605141","0.0-309.0","75991","","","","","","break","969.5","<p>BREAK</p><p>Take a break for as long as you need</p><p>Click the button to continue</p>","0","","","","","",""
"html-button-response-mod","310","606915","0.0-310.0","75991","","","","","","triplet","1771.9000000059605","","","","2","stimuli/stim018_inanimate_tree_2.png","stimuli/boats_lowercase.png","stimuli/bird_lowercase.png","300"
"html-button-response-mod","311","608211","0.0-311.0","75991","","","","","","triplet","793","","","","1","stimuli/stim005_animate_bird_1.png","stimuli/face_lowercase.png","stimuli/stim010_animate_face_2.png","301"
"html-button-response-mod","312","609411","0.0-312.0","75991","","","","","","triplet","696.1000000014901","","","","1","stimuli/stim010_animate_face_2.png","stimuli/stim015_inanimate_boats_3.png","stimuli/stim009_animate_face_1.png","302"
"html-button-response-mod","313","610618","0.0-313.0","75991","","","","","","triplet","695.1000000014901","","","","1","stimuli/stim009_animate_face_1.png","stimuli/tools_lowercase.png","stimuli/stim003_animate_fish_3.png","303"
"html-button-response-mod","314","612271","0.0-314.0","75991","","","","","","triplet","1150.3999999985099","","","","0","stimuli/face_uppercase.png","stimuli/stim024_inanimate_tools_4.png","stimuli/stim006_animate_bird_2.png","304"
"html-button-response-mod","315","613961","0.0-315.0","75991","","","","","","triplet","1180.8000000044703","","","","0","stimuli/stim006_animate_bird_2.png","stimuli/stim013_inanimate_boats_1.png","stimuli/boats_uppercase.png","305"
"html-button-response-mod","316","615921","0.0-316.0","75991","","","","","","triplet","1455.2000000029802","","","","2","stimuli/stim005_animate_bird_1.png","stimuli/fish_lowercase.png","stimuli/stim021_inanimate_tools_1.png","306"
"html-button-response-mod","317","617505","0.0-317.0","75991","","","","","","triplet","1081","","","","2","stimuli/stim002_animate_fish_2.png","stimuli/stim003_animate_fish_3.png","stimuli/bird_uppercase.png","307"
"html-button-response-mod","318","619307","0.0-318.0","75991","","","","","","triplet","1298.6999999955297","","","","1","stimuli/bird_uppercase.png","stimuli/stim022_inanimate_tools_2.png","stimuli/stim019_inanimate_tree_3.png","308"
"html-button-response-mod","319","621441","0.0-319.0","75991","","","","","","triplet","1624.8999999985099","","","","1","stimuli/fish_lowercase.png","stimuli/bird_uppercase.png","stimuli/stim002_animate_fish_2.png","309"
"html-button-response-mod","320","622983","0.0-320.0","75991","","","","","","triplet","1038.5999999940395","","","","0","stimuli/stim024_inanimate_tools_4.png","stimuli/stim013_inanimate_boats_1.png","stimuli/boats_lowercase.png","310"
"html-button-response-mod","321","624593","0.0-321.0","75991","","","","","","triplet","1107.3000000044703","","","","1","stimuli/stim020_inanimate_tree_4.png","stimuli/stim004_animate_fish_4.png","stimuli/stim018_inanimate_tree_2.png","311"
"html-button-response-mod","322","626239","0.0-322.0","75991","","","","","","triplet","1129","","","","2","stimuli/stim024_inanimate_tools_4.png","stimuli/tools_uppercase.png","stimuli/boats_uppercase.png","312"
"html-button-response-mod","323","627613","0.0-323.0","75991","","","","","","triplet","870.6999999955297","","","","0","stimuli/fish_lowercase.png","stimuli/face_uppercase.png","stimuli/stim018_inanimate_tree_2.png","313"
"html-button-response-mod","324","628917","0.0-324.0","75991","","","","","","triplet","802.1000000014901","","","","2","stimuli/stim002_animate_fish_2.png","stimuli/stim001_animate_fish_1.png","stimuli/tools_lowercase.png","314"
"html-button-response-mod","325","631201","0.0-325.0","75991","","","","","","triplet","1779.7000000029802","","","","2","stimuli/tree_lowercase.png","stimuli/bird_uppercase.png","stimuli/face_lowercase.png","315"
"html-button-response-mod","326","632602","0.0-326.0","75991","","","","","","triplet","898.3999999985099","","","","0","stimuli/stim024_inanimate_tools_4.png","stimuli/stim001_animate_fish_1.png","stimuli/stim008_animate_bird_4.png","316"
"html-button-response-mod","327","634281","0.0-327.0","75991","","","","","","triplet","1176","","","","2","stimuli/stim016_inanimate_boats_4.png","stimuli/boats_lowercase.png","stimuli/face_lowercase.png","317"
"html-button-response-mod","328","636041","0.0-328.0","75991","","","","","","triplet","1257.1000000014901","","","","0","stimuli/stim011_animate_face_3.png","stimuli/boats_lowercase.png","stimuli/tools_uppercase.png","318"
"html-button-response-mod","329","638734","0.0-329.0","75991","","","","","","triplet","2176.1999999955297","","","","2","stimuli/fish_lowercase.png","stimuli/stim002_animate_fish_2.png","stimuli/face_lowercase.png","319"
"html-button-response-mod","330","640162","0.0-330.0","75991","","","","","","triplet","922.8999999985099","","","","1","stimuli/stim016_inanimate_boats_4.png","stimuli/stim004_animate_fish_4.png","stimuli/boats_uppercase.png","320"
"html-button-response-mod","331","642150","0.0-331.0","75991","","","","","","triplet","1485","","","","2","stimuli/stim009_animate_face_1.png","stimuli/stim011_animate_face_3.png","stimuli/face_lowercase.png","321"
"html-button-response-mod","332","643995","0.0-332.0","75991","","","","","","triplet","1341.1000000014901","","","","0","stimuli/fish_uppercase.png","stimuli/stim019_inanimate_tree_3.png","stimuli/stim014_inanimate_boats_2.png","322"
"html-button-response-mod","333","645378","0.0-333.0","75991","","","","","","triplet","881.1999999955297","","","","0","stimuli/stim021_inanimate_tools_1.png","stimuli/tree_uppercase.png","stimuli/stim001_animate_fish_1.png","323"
"html-button-response-mod","334","647426","0.0-334.0","75991","","","","","","triplet","1545.6999999955297","","","","2","stimuli/tools_uppercase.png","stimuli/stim021_inanimate_tools_1.png","stimuli/stim016_inanimate_boats_4.png","324"
"html-button-response-mod","335","648974","0.0-335.0","75991","","","","","","triplet","1044.6999999955297","","","","2","stimuli/stim002_animate_fish_2.png","stimuli/fish_uppercase.png","stimuli/stim018_inanimate_tree_2.png","325"
"html-button-response-mod","336","650733","0.0-336.0","75991","","","","","","triplet","1257.3999999985099","","","","1","stimuli/bird_uppercase.png","stimuli/face_uppercase.png","stimuli/stim006_animate_bird_2.png","326"
"html-button-response-mod","337","652029","0.0-337.0","75991","","","","","","triplet","793","","","","0","stimuli/stim009_animate_face_1.png","stimuli/stim023_inanimate_tools_3.png","stimuli/stim022_inanimate_tools_2.png","327"
"html-button-response-mod","338","653780","0.0-338.0","75991","","","","","","triplet","1247.8999999985099","","","","0","stimuli/tools_uppercase.png","stimuli/stim017_inanimate_tree_1.png","stimuli/stim006_animate_bird_2.png","328"
"html-button-response-mod","339","655459","0.0-339.0","75991","","","","","","triplet","1171.5999999940395","","","","1","stimuli/stim005_animate_bird_1.png","stimuli/tree_lowercase.png","stimuli/stim024_inanimate_tools_4.png","329"
"html-button-response-mod","340","657402","0.0-340.0","75991","","","","","","triplet","1440.5","","","","0","stimuli/tools_uppercase.png","stimuli/face_uppercase.png","stimuli/fish_uppercase.png","330"
"html-button-response-mod","341","659248","0.0-341.0","75991","","","","","","triplet","1343.3000000044703","","","","1","stimuli/stim011_animate_face_3.png","stimuli/tree_lowercase.png","stimuli/stim018_inanimate_tree_2.png","331"
"html-button-response-mod","342","660771","0.0-342.0","75991","","","","","","triplet","1020.3000000044703","","","","1","stimuli/stim017_inanimate_tree_1.png","stimuli/stim024_inanimate_tools_4.png","stimuli/stim020_inanimate_tree_4.png","332"
"html-button-response-mod","343","663754","0.0-343.0","75991","","","","","","triplet","2479.3000000044703","","","","1","stimuli/stim007_animate_bird_3.png","stimuli/face_uppercase.png","stimuli/stim019_inanimate_tree_3.png","333"
"html-button-response-mod","344","665409","0.0-344.0","75991","","","","","","triplet","1144.5999999940395","","","","2","stimuli/stim012_animate_face_4.png","stimuli/face_lowercase.png","stimuli/stim017_inanimate_tree_1.png","334"
"html-button-response-mod","345","667045","0.0-345.0","75991","","","","","","triplet","1132.7999999970198","","","","0","stimuli/tools_uppercase.png","stimuli/boats_lowercase.png","stimuli/stim012_animate_face_4.png","335"
"html-button-response-mod","346","668771","0.0-346.0","75991","","","","","","triplet","1222.3999999985099","","","","1","stimuli/stim013_inanimate_boats_1.png","stimuli/stim022_inanimate_tools_2.png","stimuli/stim008_animate_bird_4.png","336"
"html-button-response-mod","347","670659","0.0-347.0","75991","","","","","","triplet","1380.1999999955297","","","","0","stimuli/tools_uppercase.png","stimuli/bird_uppercase.png","stimuli/boats_lowercase.png","337"
"html-button-response-mod","348","672078","0.0-348.0","75991","","","","","","triplet","916.6000000014901","","","","1","stimuli/stim021_inanimate_tools_1.png","stimuli/tree_uppercase.png","stimuli/stim022_inanimate_tools_2.png","338"
"html-button-response-mod","349","673838","0.0-349.0","75991","","","","","","triplet","1256.7999999970198","","","","1","stimuli/bird_lowercase.png","stimuli/stim020_inanimate_tree_4.png","stimuli/stim007_animate_bird_3.png","339"
"html-button-response-mod","350","675412","0.0-350.0","75991","","","","","","triplet","1071.6999999955297","","","","1","stimuli/stim002_animate_fish_2.png","stimuli/stim021_inanimate_tools_1.png","stimuli/stim016_inanimate_boats_4.png","340"
"html-button-response-mod","351","676655","0.0-351.0","75991","","","","","","triplet","739.8000000044703","","","","1","stimuli/stim021_inanimate_tools_1.png","stimuli/stim012_animate_face_4.png","stimuli/stim023_inanimate_tools_3.png","341"
"html-button-response-mod","352","678116","0.0-352.0","75991","","","","","","triplet","957.2999999970198","","","","0","stimuli/tree_lowercase.png","stimuli/bird_uppercase.png","stimuli/stim003_animate_fish_3.png","342"
"html-button-response-mod","353","680346","0.0-353.0","75991","","","","","","triplet","1727.2999999970198","","","","2","stimuli/stim014_inanimate_boats_2.png","stimuli/stim016_inanimate_boats_4.png","stimuli/stim015_inanimate_boats_3.png","343"
"html-button-response-mod","354","682395","0.0-354.0","75991","","","","","","triplet","1546","","","","1","stimuli/boats_lowercase.png","stimuli/stim009_animate_face_1.png","stimuli/bird_lowercase.png","344"
"html-button-response-mod","355","683735","0.0-355.0","75991","","","","","","triplet","836.2999999970198","","","","1","stimuli/stim014_inanimate_boats_2.png","stimuli/stim017_inanimate_tree_1.png","stimuli/stim012_animate_face_4.png","345"
"html-button-response-mod","356","685581","0.0-356.0","75991","","","","","","triplet","1342.5","","","","1","stimuli/stim003_animate_fish_3.png","stimuli/tools_lowercase.png","stimuli/stim012_animate_face_4.png","346"
"html-button-response-mod","357","687857","0.0-357.0","75991","","","","","","triplet","1774","","","","0","stimuli/stim015_inanimate_boats_3.png","stimuli/stim024_inanimate_tools_4.png","stimuli/stim023_inanimate_tools_3.png","347"
"html-button-response-mod","358","690220","0.0-358.0","75991","","","","","","triplet","1859.1000000014901","","","","1","stimuli/tools_uppercase.png","stimuli/stim003_animate_fish_3.png","stimuli/boats_lowercase.png","348"
"html-button-response-mod","359","692241","0.0-359.0","75991","","","","","","triplet","1513.5999999940395","","","","1","stimuli/tools_uppercase.png","stimuli/stim002_animate_fish_2.png","stimuli/tree_lowercase.png","349"
"html-button-response","360","693661","0.0-360.0","75991","","","","","","break","917.3999999985099","<p>BREAK</p><p>Take a break for as long as you need</p><p>Click the button to continue</p>","0","","","","","",""
"html-button-response-mod","361","694849","0.0-361.0","75991","","","","","","triplet","1185.8999999985099","","","","1","stimuli/stim010_animate_face_2.png","stimuli/stim020_inanimate_tree_4.png","stimuli/bird_lowercase.png","350"
"html-button-response-mod","362","696415","0.0-362.0","75991","","","","","","triplet","1061.5999999940395","","","","1","stimuli/fish_uppercase.png","stimuli/tree_lowercase.png","stimuli/bird_uppercase.png","351"
"html-button-response-mod","363","698682","0.0-363.0","75991","","","","","","triplet","1763.5","","","","2","stimuli/tools_uppercase.png","stimuli/boats_lowercase.png","stimuli/bird_lowercase.png","352"
"html-button-response-mod","364","700248","0.0-364.0","75991","","","","","","triplet","1063.7000000029802","","","","1","stimuli/boats_uppercase.png","stimuli/stim010_animate_face_2.png","stimuli/stim004_animate_fish_4.png","353"
"html-button-response-mod","365","702007","0.0-365.0","75991","","","","","","triplet","1256.8999999985099","","","","1","stimuli/fish_uppercase.png","stimuli/tools_uppercase.png","stimuli/stim020_inanimate_tree_4.png","354"
"html-button-response-mod","366","703792","0.0-366.0","75991","","","","","","triplet","1272.2999999970198","","","","1","stimuli/stim010_animate_face_2.png","stimuli/tools_lowercase.png","stimuli/stim002_animate_fish_2.png","355"
"html-button-response-mod","367","705920","0.0-367.0","75991","","","","","","triplet","1625.2000000029802","","","","0","stimuli/stim008_animate_bird_4.png","stimuli/fish_uppercase.png","stimuli/stim004_animate_fish_4.png","356"
"html-button-response-mod","368","707284","0.0-368.0","75991","","","","","","triplet","862.3000000044703","","","","0","stimuli/tools_uppercase.png","stimuli/boats_lowercase.png","stimuli/stim009_animate_face_1.png","357"
"html-button-response-mod","369","708973","0.0-369.0","75991","","","","","","triplet","1185.3999999985099","","","","0","stimuli/stim021_inanimate_tools_1.png","stimuli/stim004_animate_fish_4.png","stimuli/stim016_inanimate_boats_4.png","358"
"html-button-response-mod","370","710723","0.0-370.0","75991","","","","","","triplet","1245.7000000029802","","","","1","stimuli/stim024_inanimate_tools_4.png","stimuli/tools_uppercase.png","stimuli/stim013_inanimate_boats_1.png","359"
"html-button-response-mod","371","712851","0.0-371.0","75991","","","","","","triplet","1625.5","","","","0","stimuli/stim014_inanimate_boats_2.png","stimuli/bird_uppercase.png","stimuli/stim004_animate_fish_4.png","360"
"html-button-response-mod","372","714820","0.0-372.0","75991","","","","","","triplet","1465.8000000044703","","","","2","stimuli/boats_lowercase.png","stimuli/stim010_animate_face_2.png","stimuli/stim024_inanimate_tools_4.png","361"
"html-button-response-mod","373","716316","0.0-373.0","75991","","","","","","triplet","994.2999999970198","","","","1","stimuli/stim001_animate_fish_1.png","stimuli/stim019_inanimate_tree_3.png","stimuli/stim007_animate_bird_3.png","362"
"html-button-response-mod","374","717664","0.0-374.0","75991","","","","","","triplet","843.8999999985099","","","","1","stimuli/stim008_animate_bird_4.png","stimuli/stim022_inanimate_tools_2.png","stimuli/stim020_inanimate_tree_4.png","363"
"html-button-response-mod","375","719151","0.0-375.0","75991","","","","","","triplet","981.4000000059605","","","","2","stimuli/stim008_animate_bird_4.png","stimuli/bird_uppercase.png","stimuli/tools_uppercase.png","364"
"html-button-response-mod","376","720700","0.0-376.0","75991","","","","","","triplet","1046.7999999970198","","","","1","stimuli/stim013_inanimate_boats_1.png","stimuli/stim011_animate_face_3.png","stimuli/stim001_animate_fish_1.png","365"
"html-button-response-mod","377","722258","0.0-377.0","75991","","","","","","triplet","1054.8999999985099","","","","2","stimuli/stim014_inanimate_boats_2.png","stimuli/fish_uppercase.png","stimuli/stim023_inanimate_tools_3.png","366"
"html-button-response-mod","378","724699","0.0-378.0","75991","","","","","","triplet","1939","","","","2","stimuli/stim001_animate_fish_1.png","stimuli/stim005_animate_bird_1.png","stimuli/stim019_inanimate_tree_3.png","367"
"html-button-response-mod","379","726669","0.0-379.0","75991","","","","","","triplet","1464.0999999940395","","","","2","stimuli/stim014_inanimate_boats_2.png","stimuli/stim009_animate_face_1.png","stimuli/stim024_inanimate_tools_4.png","368"
"html-button-response-mod","380","728156","0.0-380.0","75991","","","","","","triplet","985.0999999940395","","","","2","stimuli/stim003_animate_fish_3.png","stimuli/stim005_animate_bird_1.png","stimuli/stim020_inanimate_tree_4.png","369"
"html-button-response-mod","381","730047","0.0-381.0","75991","","","","","","triplet","1388.2000000029802","","","","1","stimuli/stim014_inanimate_boats_2.png","stimuli/fish_lowercase.png","stimuli/boats_lowercase.png","370"
"html-button-response-mod","382","731911","0.0-382.0","75991","","","","","","triplet","1362.2999999970198","","","","0","stimuli/stim024_inanimate_tools_4.png","stimuli/fish_uppercase.png","stimuli/stim008_animate_bird_4.png","371"
"html-button-response-mod","383","733328","0.0-383.0","75991","","","","","","triplet","915","","","","0","stimuli/stim009_animate_face_1.png","stimuli/face_lowercase.png","stimuli/stim015_inanimate_boats_3.png","372"
"html-button-response-mod","384","734939","0.0-384.0","75991","","","","","","triplet","1109","","","","2","stimuli/stim001_animate_fish_1.png","stimuli/stim003_animate_fish_3.png","stimuli/stim009_animate_face_1.png","373"
"html-button-response-mod","385","736671","0.0-385.0","75991","","","","","","triplet","1228.5","","","","1","stimuli/tools_uppercase.png","stimuli/stim021_inanimate_tools_1.png","stimuli/stim006_animate_bird_2.png","374"
"html-button-response-mod","386","738431","0.0-386.0","75991","","","","","","triplet","1248.8000000044703","","","","1","stimuli/stim001_animate_fish_1.png","stimuli/tools_lowercase.png","stimuli/stim007_animate_bird_3.png","375"
"html-button-response-mod","387","740601","0.0-387.0","75991","","","","","","triplet","1667.6999999955297","","","","1","stimuli/tree_lowercase.png","stimuli/stim001_animate_fish_1.png","stimuli/boats_uppercase.png","376"
"html-button-response-mod","388","742123","0.0-388.0","75991","","","","","","triplet","1019.7999999970198","","","","1","stimuli/stim020_inanimate_tree_4.png","stimuli/stim023_inanimate_tools_3.png","stimuli/stim011_animate_face_3.png","377"
"html-button-response-mod","389","743751","0.0-389.0","75991","","","","","","triplet","1124.3000000044703","","","","1","stimuli/stim015_inanimate_boats_3.png","stimuli/tools_lowercase.png","stimuli/stim014_inanimate_boats_2.png","378"
"html-button-response-mod","390","745248","0.0-390.0","75991","","","","","","triplet","995.1000000014901","","","","1","stimuli/tree_uppercase.png","stimuli/stim022_inanimate_tools_2.png","stimuli/stim011_animate_face_3.png","379"
"html-button-response-mod","391","746806","0.0-391.0","75991","","","","","","triplet","1054.6000000014901","","","","2","stimuli/stim018_inanimate_tree_2.png","stimuli/stim008_animate_bird_4.png","stimuli/stim023_inanimate_tools_3.png","380"
"html-button-response-mod","392","748249","0.0-392.0","75991","","","","","","triplet","929.7000000029802","","","","2","stimuli/stim020_inanimate_tree_4.png","stimuli/fish_uppercase.png","stimuli/stim021_inanimate_tools_1.png","381"
"html-button-response-mod","393","750103","0.0-393.0","75991","","","","","","triplet","1350.2000000029802","","","","0","stimuli/stim020_inanimate_tree_4.png","stimuli/face_lowercase.png","stimuli/stim011_animate_face_3.png","382"
"html-button-response-mod","394","751575","0.0-394.0","75991","","","","","","triplet","968.5","","","","1","stimuli/stim013_inanimate_boats_1.png","stimuli/stim010_animate_face_2.png","stimuli/stim004_animate_fish_4.png","383"
"html-button-response-mod","395","752914","0.0-395.0","75991","","","","","","triplet","835.6999999955297","","","","1","stimuli/stim019_inanimate_tree_3.png","stimuli/stim022_inanimate_tools_2.png","stimuli/stim006_animate_bird_2.png","384"
"html-button-response-mod","396","754262","0.0-396.0","75991","","","","","","triplet","841.1999999955297","","","","2","stimuli/boats_uppercase.png","stimuli/boats_lowercase.png","stimuli/tree_lowercase.png","385"
"html-button-response-mod","397","756300","0.0-397.0","75991","","","","","","triplet","1536.3000000044703","","","","0","stimuli/stim019_inanimate_tree_3.png","stimuli/stim015_inanimate_boats_3.png","stimuli/fish_uppercase.png","386"
"html-button-response-mod","398","758138","0.0-398.0","75991","","","","","","triplet","1335.5999999940395","","","","2","stimuli/bird_uppercase.png","stimuli/stim018_inanimate_tree_2.png","stimuli/stim013_inanimate_boats_1.png","387"
"html-button-response-mod","399","759644","0.0-399.0","75991","","","","","","triplet","1003","","","","0","stimuli/tools_uppercase.png","stimuli/stim015_inanimate_boats_3.png","stimuli/stim016_inanimate_boats_4.png","388"
"html-button-response-mod","400","761711","0.0-400.0","75991","","","","","","triplet","1558.6000000014901","","","","1","stimuli/tools_uppercase.png","stimuli/stim009_animate_face_1.png","stimuli/stim023_inanimate_tools_3.png","389"
"html-button-response-mod","401","763100","0.0-401.0","75991","","","","","","triplet","887.2000000029802","","","","0","stimuli/stim006_animate_bird_2.png","stimuli/stim019_inanimate_tree_3.png","stimuli/stim020_inanimate_tree_4.png","390"
"html-button-response-mod","402","764492","0.0-402.0","75991","","","","","","triplet","888.8000000044703","","","","1","stimuli/stim017_inanimate_tree_1.png","stimuli/face_uppercase.png","stimuli/stim007_animate_bird_3.png","391"
"html-button-response-mod","403","766103","0.0-403.0","75991","","","","","","triplet","1108.7999999970198","","","","2","stimuli/stim004_animate_fish_4.png","stimuli/stim010_animate_face_2.png","stimuli/stim021_inanimate_tools_1.png","392"
"html-button-response-mod","404","768351","0.0-404.0","75991","","","","","","triplet","1745.8999999985099","","","","2","stimuli/boats_uppercase.png","stimuli/stim017_inanimate_tree_1.png","stimuli/tools_lowercase.png","393"
"html-button-response-mod","405","769638","0.0-405.0","75991","","","","","","triplet","784.2999999970198","","","","2","stimuli/stim005_animate_bird_1.png","stimuli/stim007_animate_bird_3.png","stimuli/stim013_inanimate_boats_1.png","394"
"html-button-response-mod","406","770924","0.0-406.0","75991","","","","","","triplet","777.7000000029802","","","","1","stimuli/boats_uppercase.png","stimuli/stim009_animate_face_1.png","stimuli/boats_lowercase.png","395"
"html-button-response-mod","407","772709","0.0-407.0","75991","","","","","","triplet","1281.5","","","","2","stimuli/stim017_inanimate_tree_1.png","stimuli/fish_uppercase.png","stimuli/bird_lowercase.png","396"
"html-button-response-mod","408","774398","0.0-408.0","75991","","","","","","triplet","1173.0999999940395","","","","2","stimuli/fish_lowercase.png","stimuli/stim004_animate_fish_4.png","stimuli/boats_lowercase.png","397"
"html-button-response-mod","409","776123","0.0-409.0","75991","","","","","","triplet","1221.7000000029802","","","","1","stimuli/tree_lowercase.png","stimuli/stim012_animate_face_4.png","stimuli/boats_uppercase.png","398"
"html-button-response-mod","410","778100","0.0-410.0","75991","","","","","","triplet","1472.8999999985099","","","","0","stimuli/stim021_inanimate_tools_1.png","stimuli/bird_uppercase.png","stimuli/boats_uppercase.png","399"
"html-button-response","411","779746","0.0-411.0","75991","","","","","","break","1143.6000000014901","<p>BREAK</p><p>Take a break for as long as you need</p><p>Click the button to continue</p>","0","","","","","",""
"survey-text","412","867507","0.0-412.0","75991","","","","","","data_patterns","87752.40000000596","","{""Q0"":""if there were two pictures/words that were obviously the same then chose the 3rd one\nif all of them were not related, I considered whether it was alive/animate, land/water/sea, if one could be used or related in the process of another""}","","","","","",""
"survey-text","413","869547","0.0-413.0","75991","","","","","","age_question","2033.7999999970198","","{""Age"":""20""}","","","","","",""
"html-button-response","414","871111","0.0-414.0","75991","","","","","","gender_question","1561.6000000014901","How would you like your gender to be recorded?","1","","","","","",""
