"trial_type","trial_index","time_elapsed","internal_node_id","subject","success","timeout","failed_images","failed_audio","failed_video","test_part","rt","stimulus","response","end_time","button_pressed","stim0","stim1","stim2","trialnr"
"pavlovia","0","16","0.0-0.0","76459","","","","","","","","","","","","","","",""
"preload","1","2300","0.0-1.0","76459","true","false","[]","[]","[]","preload","","","","","","","","",""
"html-button-response","2","185632","0.0-2.0","76459","","","","","","","183330.20000000298","<p>Welcome to the experiment. To begin, please read the following and press the button at the bottom of the screen.</p><p></p><p><strong>Project Name: A study on cognitive processes involved in visual perception</p></strong><p></p><p><strong>PARTICIPANT INFORMATION STATEMENT</strong></p><p></p><strong>(1) What is the study about?</strong><br>You are invited to participate in a study that investigates the cognitive processes involved in perceiving and recognizing visual stimuli.If you decide to participate, you will be asked to complete a task in which you will view pictures, letters, numbers, or words presented on a computer screen.<br><strong>(2) Who can participate?</strong><br>Anyone aged 18 years or over with access to a computer (not a phone/tablet)<br><strong>(3) Where is the study located?</strong><br>The study will be conducted in your browser<br><strong>(4) Who is carrying out the study?</strong><br>The study is being conducted by Sophia Shatek from the Computational Cognitive Neuroscience laboratory at the University of Sydney.<br><strong>(5) What does the study involve?</strong><br>In this study, you will be asked to perform tasks where you will see different stimuli appear on the computer screen.You will respond by pressing a key or using a computer mouse.<br><strong>(6) How much time will the study take?</strong><br>The study takes about 30 minutes<br><strong>(7)	Can I withdraw from the study?</strong><br>Being in this study is completely voluntary - you are not under any obligation to consent. You can withdraw at any time without having to give a reason and without penalty.<br><strong>(8) Will anyone else know the results?</strong><br>All aspects of the study, including results, will be strictly confidential and only the researchers will have access to information on participants.The results and data from the study may be submitted for publication or shared with other research labs, but individual participants will not be identifiable.<br><strong>(9) Will the study benefit me?</strong><br>You will be awarded 0.5 credits for your participation.<br><strong>(10) Can I tell other people about the study?</strong><br>Yes, please tell them to contact Dr Thomas Carlson by email at thomas.carlson@sydney.edu.au.<br><strong>(11) What if I require further information about the study or my involvement in it?</strong><br>When you have read this information, the investigator will discuss it with you further and answer any questions you may have.If you would like to know more at any stage, please feel free to contact Dr Thomas Carlson directly by email at thomas.carlson@sydney.edu.au.If you would like to be informed about the outcomes of the study, contact Dr Thomas Carlson directly by email at thomas.carlson@sydney.edu.au.<br><strong>(12) What if I have a complaint or any concerns?</strong><br>Any person with concerns or complaints about the conduct of a research study can contact The Manager,Human Ethics Administration, University of Sydney on +61 2 8627 8176 (Telephone); +61 2 8627 8177 (Facsimile) or ro.humanethics@sydney.edu.au (Email).</p><p></p><strong>By participating in this experiment, you consent to participate in this study and acknowledge that:</strong><br>1. The procedures required for the project and the times involved have been explained to me, and any questions I have about the project have been answered to my satisfaction.<br>2.	I have read the Above Information Statement and have been given the opportunity to discuss the information and my involvement in the project with the researcher/s.<br>3. I understand that allowing my data to be used in research reports is completely voluntary - I am not under any obligation to consent.<br>4. I understand that my involvement is strictly confidential. I understand that any research data gathered from the results of the study may be publishedhowever no information about me will be used in any way that is identifiable.</p><p></p>","0","","","","","",""
"html-button-response","3","187211","0.0-3.0","76459","","","","","","opening_instructions","1577.199999988079","<p>In this experiment, you will see three images appear on the screen.</p><p>You need to click the 'odd one out', or the image </p><p>that is MOST CONCEPTUALLY DIFFERENT to the other two. </p><p>(e.g., the word 'tree' and a picture of a tree are conceptually SIMILAR, </p><p> but the word 'tree' and the word 'boat' are conceptually DIFFERENT even though they look similar) </p><p>Just go with your intuition, don't spend too long thinking about each one.</p>","0","192162.89999999106","","","","",""
"html-button-response-mod","4","191632","0.0-4.0","76459","","","","","","triplet","4418.5999999940395","","","","1","stimuli/stim016_inanimate_boats_4.png","stimuli/tree_uppercase.png","stimuli/stim011_animate_face_3.png","0"
"html-button-response-mod","5","194177","0.0-5.0","76459","","","","","","triplet","2029.9000000059605","","","","0","stimuli/bird_uppercase.png","stimuli/stim011_animate_face_3.png","stimuli/stim023_inanimate_tools_3.png","1"
"html-button-response-mod","6","195865","0.0-6.0","76459","","","","","","triplet","1171.7999999970198","","","","2","stimuli/stim023_inanimate_tools_3.png","stimuli/stim012_animate_face_4.png","stimuli/fish_uppercase.png","2"
"html-button-response-mod","7","197646","0.0-7.0","76459","","","","","","triplet","1264.1000000089407","","","","1","stimuli/tools_uppercase.png","stimuli/stim004_animate_fish_4.png","stimuli/bird_uppercase.png","3"
"html-button-response-mod","8","199641","0.0-8.0","76459","","","","","","triplet","1493.3999999910593","","","","2","stimuli/stim020_inanimate_tree_4.png","stimuli/stim003_animate_fish_3.png","stimuli/tools_uppercase.png","4"
"html-button-response-mod","9","201915","0.0-9.0","76459","","","","","","triplet","1759.1000000089407","","","","1","stimuli/stim011_animate_face_3.png","stimuli/stim013_inanimate_boats_1.png","stimuli/stim009_animate_face_1.png","5"
"html-button-response-mod","10","204872","0.0-10.0","76459","","","","","","triplet","2439.1000000089407","","","","0","stimuli/stim018_inanimate_tree_2.png","stimuli/stim009_animate_face_1.png","stimuli/stim002_animate_fish_2.png","6"
"html-button-response-mod","11","206463","0.0-11.0","76459","","","","","","triplet","1078.8999999910593","","","","0","stimuli/boats_uppercase.png","stimuli/stim009_animate_face_1.png","stimuli/stim018_inanimate_tree_2.png","7"
"html-button-response-mod","12","207761","0.0-12.0","76459","","","","","","triplet","782.1999999880791","","","","0","stimuli/fish_lowercase.png","stimuli/stim013_inanimate_boats_1.png","stimuli/stim014_inanimate_boats_2.png","8"
"html-button-response-mod","13","209559","0.0-13.0","76459","","","","","","triplet","1286.2000000029802","","","","0","stimuli/stim006_animate_bird_2.png","stimuli/boats_lowercase.png","stimuli/fish_lowercase.png","9"
"html-button-response-mod","14","212168","0.0-14.0","76459","","","","","","triplet","2092.8999999910593","","","","1","stimuli/stim003_animate_fish_3.png","stimuli/stim014_inanimate_boats_2.png","stimuli/stim001_animate_fish_1.png","10"
"html-button-response-mod","15","214031","0.0-15.0","76459","","","","","","triplet","1345.2999999970198","","","","0","stimuli/stim013_inanimate_boats_1.png","stimuli/stim020_inanimate_tree_4.png","stimuli/stim019_inanimate_tree_3.png","11"
"html-button-response-mod","16","218736","0.0-16.0","76459","","","","","","triplet","4187.399999991059","","","","0","stimuli/stim001_animate_fish_1.png","stimuli/stim014_inanimate_boats_2.png","stimuli/stim015_inanimate_boats_3.png","12"
"html-button-response-mod","17","220561","0.0-17.0","76459","","","","","","triplet","1311.2000000029802","","","","1","stimuli/stim005_animate_bird_1.png","stimuli/tools_uppercase.png","stimuli/stim010_animate_face_2.png","13"
"html-button-response-mod","18","222203","0.0-18.0","76459","","","","","","triplet","1124.7999999970198","","","","1","stimuli/stim001_animate_fish_1.png","stimuli/fish_lowercase.png","stimuli/stim005_animate_bird_1.png","14"
"html-button-response-mod","19","223840","0.0-19.0","76459","","","","","","triplet","1122.7000000029802","","","","0","stimuli/face_lowercase.png","stimuli/stim022_inanimate_tools_2.png","stimuli/stim020_inanimate_tree_4.png","15"
"html-button-response-mod","20","225372","0.0-20.0","76459","","","","","","triplet","1015.0999999940395","","","","1","stimuli/stim014_inanimate_boats_2.png","stimuli/tools_uppercase.png","stimuli/stim016_inanimate_boats_4.png","16"
"html-button-response-mod","21","226778","0.0-21.0","76459","","","","","","triplet","890.5999999940395","","","","0","stimuli/boats_lowercase.png","stimuli/stim020_inanimate_tree_4.png","stimuli/stim018_inanimate_tree_2.png","17"
"html-button-response-mod","22","228290","0.0-22.0","76459","","","","","","triplet","1000.0999999940395","","","","0","stimuli/bird_uppercase.png","stimuli/stim012_animate_face_4.png","stimuli/stim007_animate_bird_3.png","18"
"html-button-response-mod","23","230540","0.0-23.0","76459","","","","","","triplet","1735.0999999940395","","","","1","stimuli/stim020_inanimate_tree_4.png","stimuli/stim023_inanimate_tools_3.png","stimuli/stim004_animate_fish_4.png","19"
"html-button-response-mod","24","232242","0.0-24.0","76459","","","","","","triplet","1187.6000000089407","","","","1","stimuli/face_uppercase.png","stimuli/stim020_inanimate_tree_4.png","stimuli/bird_uppercase.png","20"
"html-button-response-mod","25","238111","0.0-25.0","76459","","","","","","triplet","5367.699999988079","","","","1","stimuli/stim021_inanimate_tools_1.png","stimuli/stim017_inanimate_tree_1.png","stimuli/stim016_inanimate_boats_4.png","21"
"html-button-response-mod","26","240000","0.0-26.0","76459","","","","","","triplet","1374.7000000029802","","","","1","stimuli/tree_uppercase.png","stimuli/stim012_animate_face_4.png","stimuli/bird_uppercase.png","22"
"html-button-response-mod","27","242053","0.0-27.0","76459","","","","","","triplet","1550","","","","2","stimuli/stim007_animate_bird_3.png","stimuli/stim022_inanimate_tools_2.png","stimuli/tools_uppercase.png","23"
"html-button-response-mod","28","243665","0.0-28.0","76459","","","","","","triplet","1097.5999999940395","","","","2","stimuli/stim017_inanimate_tree_1.png","stimuli/stim018_inanimate_tree_2.png","stimuli/tools_lowercase.png","24"
"html-button-response-mod","29","245839","0.0-29.0","76459","","","","","","triplet","1661.5","","","","0","stimuli/stim001_animate_fish_1.png","stimuli/stim006_animate_bird_2.png","stimuli/stim005_animate_bird_1.png","25"
"html-button-response-mod","30","247385","0.0-30.0","76459","","","","","","triplet","1035.800000011921","","","","0","stimuli/tree_lowercase.png","stimuli/stim006_animate_bird_2.png","stimuli/stim005_animate_bird_1.png","26"
"html-button-response-mod","31","248556","0.0-31.0","76459","","","","","","triplet","659.5","","","","0","stimuli/tools_lowercase.png","stimuli/stim014_inanimate_boats_2.png","stimuli/stim005_animate_bird_1.png","27"
"html-button-response-mod","32","250344","0.0-32.0","76459","","","","","","triplet","1271.7999999970198","","","","2","stimuli/boats_lowercase.png","stimuli/tree_uppercase.png","stimuli/stim010_animate_face_2.png","28"
"html-button-response-mod","33","252483","0.0-33.0","76459","","","","","","triplet","1623.2000000029802","","","","0","stimuli/stim002_animate_fish_2.png","stimuli/stim010_animate_face_2.png","stimuli/stim008_animate_bird_4.png","29"
"html-button-response-mod","34","253857","0.0-34.0","76459","","","","","","triplet","859.5999999940395","","","","0","stimuli/bird_uppercase.png","stimuli/stim008_animate_bird_4.png","stimuli/stim002_animate_fish_2.png","30"
"html-button-response-mod","35","255423","0.0-35.0","76459","","","","","","triplet","1049.1000000089407","","","","0","stimuli/tree_lowercase.png","stimuli/stim018_inanimate_tree_2.png","stimuli/stim016_inanimate_boats_4.png","31"
"html-button-response-mod","36","257297","0.0-36.0","76459","","","","","","triplet","1359.2999999970198","","","","1","stimuli/stim014_inanimate_boats_2.png","stimuli/stim024_inanimate_tools_4.png","stimuli/stim003_animate_fish_3.png","32"
"html-button-response-mod","37","259093","0.0-37.0","76459","","","","","","triplet","1281.7000000029802","","","","2","stimuli/face_uppercase.png","stimuli/boats_uppercase.png","stimuli/stim012_animate_face_4.png","33"
"html-button-response-mod","38","260549","0.0-38.0","76459","","","","","","triplet","953.8999999910593","","","","0","stimuli/stim018_inanimate_tree_2.png","stimuli/face_lowercase.png","stimuli/boats_uppercase.png","34"
"html-button-response-mod","39","262031","0.0-39.0","76459","","","","","","triplet","968.8999999910593","","","","2","stimuli/stim005_animate_bird_1.png","stimuli/stim009_animate_face_1.png","stimuli/stim021_inanimate_tools_1.png","35"
"html-button-response-mod","40","263708","0.0-40.0","76459","","","","","","triplet","1173.7000000029802","","","","2","stimuli/tools_lowercase.png","stimuli/face_lowercase.png","stimuli/stim017_inanimate_tree_1.png","36"
"html-button-response-mod","41","265193","0.0-41.0","76459","","","","","","triplet","970.2000000029802","","","","2","stimuli/stim005_animate_bird_1.png","stimuli/stim002_animate_fish_2.png","stimuli/face_lowercase.png","37"
"html-button-response-mod","42","266803","0.0-42.0","76459","","","","","","triplet","1095","","","","1","stimuli/stim015_inanimate_boats_3.png","stimuli/bird_lowercase.png","stimuli/stim007_animate_bird_3.png","38"
"html-button-response-mod","43","268192","0.0-43.0","76459","","","","","","triplet","877.1000000089407","","","","0","stimuli/boats_uppercase.png","stimuli/stim021_inanimate_tools_1.png","stimuli/stim012_animate_face_4.png","39"
"html-button-response-mod","44","270183","0.0-44.0","76459","","","","","","triplet","1477.5","","","","2","stimuli/boats_uppercase.png","stimuli/face_lowercase.png","stimuli/tools_lowercase.png","40"
"html-button-response-mod","45","272195","0.0-45.0","76459","","","","","","triplet","1498.7999999970198","","","","0","stimuli/bird_lowercase.png","stimuli/tools_uppercase.png","stimuli/stim006_animate_bird_2.png","41"
"html-button-response-mod","46","275355","0.0-46.0","76459","","","","","","triplet","2647.2000000029802","","","","0","stimuli/stim021_inanimate_tools_1.png","stimuli/stim014_inanimate_boats_2.png","stimuli/tree_uppercase.png","42"
"html-button-response-mod","47","276904","0.0-47.0","76459","","","","","","triplet","1034.1000000089407","","","","0","stimuli/face_lowercase.png","stimuli/stim023_inanimate_tools_3.png","stimuli/stim022_inanimate_tools_2.png","43"
"html-button-response-mod","48","278681","0.0-48.0","76459","","","","","","triplet","1264.4000000059605","","","","0","stimuli/stim011_animate_face_3.png","stimuli/bird_uppercase.png","stimuli/boats_uppercase.png","44"
"html-button-response-mod","49","280268","0.0-49.0","76459","","","","","","triplet","1083.9000000059605","","","","2","stimuli/stim009_animate_face_1.png","stimuli/stim018_inanimate_tree_2.png","stimuli/fish_lowercase.png","45"
"html-button-response-mod","50","282369","0.0-50.0","76459","","","","","","triplet","1597.6000000089407","","","","0","stimuli/stim004_animate_fish_4.png","stimuli/stim014_inanimate_boats_2.png","stimuli/stim021_inanimate_tools_1.png","46"
"html-button-response-mod","51","283842","0.0-51.0","76459","","","","","","triplet","956.5","","","","1","stimuli/stim017_inanimate_tree_1.png","stimuli/bird_uppercase.png","stimuli/stim005_animate_bird_1.png","47"
"html-button-response-mod","52","285686","0.0-52.0","76459","","","","","","triplet","1327.6000000089407","","","","1","stimuli/tree_uppercase.png","stimuli/stim016_inanimate_boats_4.png","stimuli/tools_lowercase.png","48"
"html-button-response-mod","53","287187","0.0-53.0","76459","","","","","","triplet","984.2999999970198","","","","0","stimuli/bird_lowercase.png","stimuli/stim020_inanimate_tree_4.png","stimuli/stim006_animate_bird_2.png","49"
"html-button-response","54","289297","0.0-54.0","76459","","","","","","break","1594.2999999970198","<p>BREAK</p><p>Take a break for as long as you need</p><p>Click the button to continue</p>","0","","","","","",""
"html-button-response-mod","55","290480","0.0-55.0","76459","","","","","","triplet","1181.7999999970198","","","","1","stimuli/stim019_inanimate_tree_3.png","stimuli/bird_uppercase.png","stimuli/stim001_animate_fish_1.png","50"
"html-button-response-mod","56","295243","0.0-56.0","76459","","","","","","triplet","4250.70000000298","","","","1","stimuli/stim002_animate_fish_2.png","stimuli/stim014_inanimate_boats_2.png","stimuli/stim017_inanimate_tree_1.png","51"
"html-button-response-mod","57","296952","0.0-57.0","76459","","","","","","triplet","1194.4000000059605","","","","0","stimuli/tree_uppercase.png","stimuli/stim007_animate_bird_3.png","stimuli/stim011_animate_face_3.png","52"
"html-button-response-mod","58","298432","0.0-58.0","76459","","","","","","triplet","978.3999999910593","","","","1","stimuli/stim015_inanimate_boats_3.png","stimuli/tools_lowercase.png","stimuli/stim018_inanimate_tree_2.png","53"
"html-button-response-mod","59","299918","0.0-59.0","76459","","","","","","triplet","971","","","","1","stimuli/stim001_animate_fish_1.png","stimuli/tree_uppercase.png","stimuli/stim021_inanimate_tools_1.png","54"
"html-button-response-mod","60","302035","0.0-60.0","76459","","","","","","triplet","1602.7000000029802","","","","2","stimuli/stim018_inanimate_tree_2.png","stimuli/stim017_inanimate_tree_1.png","stimuli/stim011_animate_face_3.png","55"
"html-button-response-mod","61","303846","0.0-61.0","76459","","","","","","triplet","1295.7999999970198","","","","2","stimuli/stim015_inanimate_boats_3.png","stimuli/stim001_animate_fish_1.png","stimuli/stim010_animate_face_2.png","56"
"html-button-response-mod","62","305284","0.0-62.0","76459","","","","","","triplet","923.9000000059605","","","","1","stimuli/stim023_inanimate_tools_3.png","stimuli/bird_lowercase.png","stimuli/stim021_inanimate_tools_1.png","57"
"html-button-response-mod","63","306799","0.0-63.0","76459","","","","","","triplet","999.0999999940395","","","","1","stimuli/stim018_inanimate_tree_2.png","stimuli/stim024_inanimate_tools_4.png","stimuli/stim001_animate_fish_1.png","58"
"html-button-response-mod","64","308470","0.0-64.0","76459","","","","","","triplet","1156","","","","1","stimuli/stim006_animate_bird_2.png","stimuli/fish_lowercase.png","stimuli/stim018_inanimate_tree_2.png","59"
"html-button-response-mod","65","310094","0.0-65.0","76459","","","","","","triplet","1110.7000000029802","","","","0","stimuli/stim009_animate_face_1.png","stimuli/tree_lowercase.png","stimuli/boats_lowercase.png","60"
"html-button-response-mod","66","312716","0.0-66.0","76459","","","","","","triplet","2106.4000000059605","","","","0","stimuli/tree_lowercase.png","stimuli/stim010_animate_face_2.png","stimuli/stim002_animate_fish_2.png","61"
"html-button-response-mod","67","314309","0.0-67.0","76459","","","","","","triplet","1078.5","","","","2","stimuli/stim005_animate_bird_1.png","stimuli/stim008_animate_bird_4.png","stimuli/tree_lowercase.png","62"
"html-button-response-mod","68","315807","0.0-68.0","76459","","","","","","triplet","984.7000000029802","","","","0","stimuli/stim021_inanimate_tools_1.png","stimuli/bird_uppercase.png","stimuli/boats_lowercase.png","63"
"html-button-response-mod","69","317742","0.0-69.0","76459","","","","","","triplet","1418.7000000029802","","","","0","stimuli/fish_uppercase.png","stimuli/stim007_animate_bird_3.png","stimuli/stim012_animate_face_4.png","64"
"html-button-response-mod","70","319820","0.0-70.0","76459","","","","","","triplet","1563.5","","","","0","stimuli/stim014_inanimate_boats_2.png","stimuli/stim006_animate_bird_2.png","stimuli/stim004_animate_fish_4.png","65"
"html-button-response-mod","71","321771","0.0-71.0","76459","","","","","","triplet","1436.6000000089407","","","","2","stimuli/stim016_inanimate_boats_4.png","stimuli/stim020_inanimate_tree_4.png","stimuli/fish_uppercase.png","66"
"html-button-response-mod","72","323487","0.0-72.0","76459","","","","","","triplet","1201.5999999940395","","","","1","stimuli/face_uppercase.png","stimuli/tree_lowercase.png","stimuli/boats_uppercase.png","67"
"html-button-response-mod","73","325142","0.0-73.0","76459","","","","","","triplet","1140.2999999970198","","","","2","stimuli/stim005_animate_bird_1.png","stimuli/stim001_animate_fish_1.png","stimuli/tree_lowercase.png","68"
"html-button-response-mod","74","327040","0.0-74.0","76459","","","","","","triplet","1394.6000000089407","","","","0","stimuli/stim024_inanimate_tools_4.png","stimuli/stim002_animate_fish_2.png","stimuli/stim017_inanimate_tree_1.png","69"
"html-button-response-mod","75","328741","0.0-75.0","76459","","","","","","triplet","1190.2000000029802","","","","1","stimuli/stim009_animate_face_1.png","stimuli/boats_uppercase.png","stimuli/stim014_inanimate_boats_2.png","70"
"html-button-response-mod","76","330253","0.0-76.0","76459","","","","","","triplet","1000.0999999940395","","","","0","stimuli/boats_uppercase.png","stimuli/stim012_animate_face_4.png","stimuli/stim023_inanimate_tools_3.png","71"
"html-button-response-mod","77","331711","0.0-77.0","76459","","","","","","triplet","954.2000000029802","","","","0","stimuli/tree_lowercase.png","stimuli/stim019_inanimate_tree_3.png","stimuli/stim011_animate_face_3.png","72"
"html-button-response-mod","78","333266","0.0-78.0","76459","","","","","","triplet","1043","","","","2","stimuli/stim002_animate_fish_2.png","stimuli/stim010_animate_face_2.png","stimuli/boats_lowercase.png","73"
"html-button-response-mod","79","336216","0.0-79.0","76459","","","","","","triplet","2432.699999988079","","","","2","stimuli/stim001_animate_fish_1.png","stimuli/stim020_inanimate_tree_4.png","stimuli/stim023_inanimate_tools_3.png","74"
"html-button-response-mod","80","339491","0.0-80.0","76459","","","","","","triplet","2759.4000000059605","","","","2","stimuli/stim011_animate_face_3.png","stimuli/stim007_animate_bird_3.png","stimuli/stim013_inanimate_boats_1.png","75"
"html-button-response-mod","81","343629","0.0-81.0","76459","","","","","","triplet","3621.9000000059605","","","","0","stimuli/stim008_animate_bird_4.png","stimuli/stim015_inanimate_boats_3.png","stimuli/stim014_inanimate_boats_2.png","76"
"html-button-response-mod","82","345201","0.0-82.0","76459","","","","","","triplet","1054.800000011921","","","","1","stimuli/stim016_inanimate_boats_4.png","stimuli/bird_uppercase.png","stimuli/stim011_animate_face_3.png","77"
"html-button-response-mod","83","347058","0.0-83.0","76459","","","","","","triplet","1343.1000000089407","","","","2","stimuli/stim009_animate_face_1.png","stimuli/stim006_animate_bird_2.png","stimuli/stim023_inanimate_tools_3.png","78"
"html-button-response-mod","84","348541","0.0-84.0","76459","","","","","","triplet","968.5999999940395","","","","0","stimuli/stim021_inanimate_tools_1.png","stimuli/stim012_animate_face_4.png","stimuli/tools_lowercase.png","79"
"html-button-response-mod","85","350057","0.0-85.0","76459","","","","","","triplet","1001.1000000089407","","","","1","stimuli/stim015_inanimate_boats_3.png","stimuli/fish_lowercase.png","stimuli/stim013_inanimate_boats_1.png","80"
"html-button-response-mod","86","351681","0.0-86.0","76459","","","","","","triplet","1109.3999999910593","","","","1","stimuli/tree_lowercase.png","stimuli/stim004_animate_fish_4.png","stimuli/tools_lowercase.png","81"
"html-button-response-mod","87","353474","0.0-87.0","76459","","","","","","triplet","1279.2000000029802","","","","0","stimuli/stim002_animate_fish_2.png","stimuli/tree_uppercase.png","stimuli/tools_uppercase.png","82"
"html-button-response-mod","88","357694","0.0-88.0","76459","","","","","","triplet","3705.9000000059605","","","","2","stimuli/stim010_animate_face_2.png","stimuli/stim016_inanimate_boats_4.png","stimuli/stim017_inanimate_tree_1.png","83"
"html-button-response-mod","89","359773","0.0-89.0","76459","","","","","","triplet","1568.5999999940395","","","","0","stimuli/stim022_inanimate_tools_2.png","stimuli/stim018_inanimate_tree_2.png","stimuli/stim013_inanimate_boats_1.png","84"
"html-button-response-mod","90","361789","0.0-90.0","76459","","","","","","triplet","1500.5","","","","0","stimuli/stim006_animate_bird_2.png","stimuli/tools_lowercase.png","stimuli/boats_lowercase.png","85"
"html-button-response-mod","91","367177","0.0-91.0","76459","","","","","","triplet","4876.100000008941","","","","2","stimuli/bird_lowercase.png","stimuli/boats_lowercase.png","stimuli/face_lowercase.png","86"
"html-button-response-mod","92","370820","0.0-92.0","76459","","","","","","triplet","3128.7999999970198","","","","2","stimuli/stim017_inanimate_tree_1.png","stimuli/stim023_inanimate_tools_3.png","stimuli/tree_lowercase.png","87"
"html-button-response-mod","93","373384","0.0-93.0","76459","","","","","","triplet","2051.800000011921","","","","2","stimuli/stim016_inanimate_boats_4.png","stimuli/stim002_animate_fish_2.png","stimuli/bird_lowercase.png","88"
"html-button-response-mod","94","374823","0.0-94.0","76459","","","","","","triplet","922.5","","","","0","stimuli/fish_uppercase.png","stimuli/stim008_animate_bird_4.png","stimuli/stim012_animate_face_4.png","89"
"html-button-response-mod","95","376010","0.0-95.0","76459","","","","","","triplet","670.7999999970198","","","","0","stimuli/tools_uppercase.png","stimuli/stim017_inanimate_tree_1.png","stimuli/stim008_animate_bird_4.png","90"
"html-button-response-mod","96","377824","0.0-96.0","76459","","","","","","triplet","1299.7999999970198","","","","2","stimuli/fish_lowercase.png","stimuli/face_lowercase.png","stimuli/stim020_inanimate_tree_4.png","91"
"html-button-response-mod","97","380681","0.0-97.0","76459","","","","","","triplet","2346.8999999910593","","","","2","stimuli/bird_lowercase.png","stimuli/face_uppercase.png","stimuli/stim007_animate_bird_3.png","92"
"html-button-response-mod","98","384629","0.0-98.0","76459","","","","","","triplet","3436","","","","0","stimuli/stim023_inanimate_tools_3.png","stimuli/stim001_animate_fish_1.png","stimuli/stim002_animate_fish_2.png","93"
"html-button-response-mod","99","386349","0.0-99.0","76459","","","","","","triplet","1207.8999999910593","","","","2","stimuli/stim002_animate_fish_2.png","stimuli/stim018_inanimate_tree_2.png","stimuli/tree_uppercase.png","94"
"html-button-response-mod","100","387971","0.0-100.0","76459","","","","","","triplet","1107.5","","","","0","stimuli/bird_uppercase.png","stimuli/stim019_inanimate_tree_3.png","stimuli/stim009_animate_face_1.png","95"
"html-button-response-mod","101","390686","0.0-101.0","76459","","","","","","triplet","2201.0999999940395","","","","1","stimuli/stim013_inanimate_boats_1.png","stimuli/stim021_inanimate_tools_1.png","stimuli/stim006_animate_bird_2.png","96"
"html-button-response-mod","102","392495","0.0-102.0","76459","","","","","","triplet","1307","","","","0","stimuli/fish_lowercase.png","stimuli/stim007_animate_bird_3.png","stimuli/tools_uppercase.png","97"
"html-button-response-mod","103","395308","0.0-103.0","76459","","","","","","triplet","2296.800000011921","","","","0","stimuli/boats_uppercase.png","stimuli/stim005_animate_bird_1.png","stimuli/stim002_animate_fish_2.png","98"
"html-button-response-mod","104","396993","0.0-104.0","76459","","","","","","triplet","1172","","","","2","stimuli/stim019_inanimate_tree_3.png","stimuli/stim016_inanimate_boats_4.png","stimuli/tools_uppercase.png","99"
"html-button-response","105","398872","0.0-105.0","76459","","","","","","break","1377.1000000089407","<p>BREAK</p><p>Take a break for as long as you need</p><p>Click the button to continue</p>","0","","","","","",""
"html-button-response-mod","106","400369","0.0-106.0","76459","","","","","","triplet","1495.0999999940395","","","","1","stimuli/stim010_animate_face_2.png","stimuli/bird_lowercase.png","stimuli/stim011_animate_face_3.png","100"
"html-button-response-mod","107","401892","0.0-107.0","76459","","","","","","triplet","1018.4000000059605","","","","0","stimuli/tree_lowercase.png","stimuli/stim009_animate_face_1.png","stimuli/stim012_animate_face_4.png","101"
"html-button-response-mod","108","403499","0.0-108.0","76459","","","","","","triplet","1091.5999999940395","","","","1","stimuli/face_lowercase.png","stimuli/stim014_inanimate_boats_2.png","stimuli/boats_uppercase.png","102"
"html-button-response-mod","109","405046","0.0-109.0","76459","","","","","","triplet","1031.9000000059605","","","","0","stimuli/stim001_animate_fish_1.png","stimuli/tree_lowercase.png","stimuli/tree_uppercase.png","103"
"html-button-response-mod","110","406699","0.0-110.0","76459","","","","","","triplet","1138.300000011921","","","","1","stimuli/tools_uppercase.png","stimuli/stim022_inanimate_tools_2.png","stimuli/stim024_inanimate_tools_4.png","104"
"html-button-response-mod","111","408260","0.0-111.0","76459","","","","","","triplet","1046.2000000029802","","","","0","stimuli/tools_lowercase.png","stimuli/stim024_inanimate_tools_4.png","stimuli/stim007_animate_bird_3.png","105"
"html-button-response-mod","112","413014","0.0-112.0","76459","","","","","","triplet","4252.29999999702","","","","2","stimuli/stim020_inanimate_tree_4.png","stimuli/stim010_animate_face_2.png","stimuli/stim024_inanimate_tools_4.png","106"
"html-button-response-mod","113","414551","0.0-113.0","76459","","","","","","triplet","1026","","","","1","stimuli/stim014_inanimate_boats_2.png","stimuli/fish_uppercase.png","stimuli/stim015_inanimate_boats_3.png","107"
"html-button-response-mod","114","415973","0.0-114.0","76459","","","","","","triplet","904.7000000029802","","","","1","stimuli/stim011_animate_face_3.png","stimuli/fish_uppercase.png","stimuli/stim020_inanimate_tree_4.png","108"
"html-button-response-mod","115","418119","0.0-115.0","76459","","","","","","triplet","1643.8999999910593","","","","0","stimuli/stim014_inanimate_boats_2.png","stimuli/stim009_animate_face_1.png","stimuli/stim005_animate_bird_1.png","109"
"html-button-response-mod","116","419772","0.0-116.0","76459","","","","","","triplet","1141.4000000059605","","","","0","stimuli/bird_lowercase.png","stimuli/stim005_animate_bird_1.png","stimuli/stim023_inanimate_tools_3.png","110"
"html-button-response-mod","117","421147","0.0-117.0","76459","","","","","","triplet","860.4000000059605","","","","0","stimuli/tools_uppercase.png","stimuli/stim002_animate_fish_2.png","stimuli/stim013_inanimate_boats_1.png","111"
"html-button-response-mod","118","423383","0.0-118.0","76459","","","","","","triplet","1724.3999999910593","","","","1","stimuli/stim005_animate_bird_1.png","stimuli/fish_lowercase.png","stimuli/tree_uppercase.png","112"
"html-button-response-mod","119","428027","0.0-119.0","76459","","","","","","triplet","4127","","","","2","stimuli/stim007_animate_bird_3.png","stimuli/stim010_animate_face_2.png","stimuli/stim014_inanimate_boats_2.png","113"
"html-button-response-mod","120","429714","0.0-120.0","76459","","","","","","triplet","1172","","","","2","stimuli/stim013_inanimate_boats_1.png","stimuli/stim008_animate_bird_4.png","stimuli/face_uppercase.png","114"
"html-button-response-mod","121","432762","0.0-121.0","76459","","","","","","triplet","2535.2000000029802","","","","2","stimuli/stim003_animate_fish_3.png","stimuli/stim008_animate_bird_4.png","stimuli/stim024_inanimate_tools_4.png","115"
"html-button-response-mod","122","434964","0.0-122.0","76459","","","","","","triplet","1685.8999999910593","","","","1","stimuli/tools_lowercase.png","stimuli/stim023_inanimate_tools_3.png","stimuli/bird_lowercase.png","116"
"html-button-response-mod","123","437324","0.0-123.0","76459","","","","","","triplet","1845.6000000089407","","","","1","stimuli/stim022_inanimate_tools_2.png","stimuli/stim007_animate_bird_3.png","stimuli/stim015_inanimate_boats_3.png","117"
"html-button-response-mod","124","439337","0.0-124.0","76459","","","","","","triplet","1497","","","","0","stimuli/face_uppercase.png","stimuli/stim022_inanimate_tools_2.png","stimuli/stim004_animate_fish_4.png","118"
"html-button-response-mod","125","440902","0.0-125.0","76459","","","","","","triplet","1062.6000000089407","","","","1","stimuli/face_lowercase.png","stimuli/stim019_inanimate_tree_3.png","stimuli/face_uppercase.png","119"
"html-button-response-mod","126","442713","0.0-126.0","76459","","","","","","triplet","1295.7000000029802","","","","2","stimuli/stim008_animate_bird_4.png","stimuli/stim004_animate_fish_4.png","stimuli/bird_lowercase.png","120"
"html-button-response-mod","127","445106","0.0-127.0","76459","","","","","","triplet","1877.5999999940395","","","","0","stimuli/tree_uppercase.png","stimuli/stim013_inanimate_boats_1.png","stimuli/stim006_animate_bird_2.png","121"
"html-button-response-mod","128","446889","0.0-128.0","76459","","","","","","triplet","1269.7000000029802","","","","0","stimuli/stim023_inanimate_tools_3.png","stimuli/fish_lowercase.png","stimuli/tools_lowercase.png","122"
"html-button-response-mod","129","448496","0.0-129.0","76459","","","","","","triplet","1094.6000000089407","","","","2","stimuli/stim016_inanimate_boats_4.png","stimuli/stim023_inanimate_tools_3.png","stimuli/fish_lowercase.png","123"
"html-button-response-mod","130","450198","0.0-130.0","76459","","","","","","triplet","1187.699999988079","","","","2","stimuli/stim012_animate_face_4.png","stimuli/stim013_inanimate_boats_1.png","stimuli/bird_lowercase.png","124"
"html-button-response-mod","131","452193","0.0-131.0","76459","","","","","","triplet","1480.7000000029802","","","","0","stimuli/tools_lowercase.png","stimuli/fish_uppercase.png","stimuli/tools_uppercase.png","125"
"html-button-response-mod","132","453721","0.0-132.0","76459","","","","","","triplet","1013.8999999910593","","","","1","stimuli/stim017_inanimate_tree_1.png","stimuli/face_uppercase.png","stimuli/stim008_animate_bird_4.png","126"
"html-button-response-mod","133","455469","0.0-133.0","76459","","","","","","triplet","1244.300000011921","","","","1","stimuli/face_uppercase.png","stimuli/stim006_animate_bird_2.png","stimuli/bird_lowercase.png","127"
"html-button-response-mod","134","457087","0.0-134.0","76459","","","","","","triplet","1106.2000000029802","","","","0","stimuli/stim002_animate_fish_2.png","stimuli/boats_lowercase.png","stimuli/fish_uppercase.png","128"
"html-button-response-mod","135","459369","0.0-135.0","76459","","","","","","triplet","1768.6000000089407","","","","1","stimuli/stim014_inanimate_boats_2.png","stimuli/tree_uppercase.png","stimuli/stim019_inanimate_tree_3.png","129"
"html-button-response-mod","136","461672","0.0-136.0","76459","","","","","","triplet","1786.6000000089407","","","","1","stimuli/stim007_animate_bird_3.png","stimuli/stim022_inanimate_tools_2.png","stimuli/stim017_inanimate_tree_1.png","130"
"html-button-response-mod","137","464314","0.0-137.0","76459","","","","","","triplet","2127","","","","0","stimuli/stim010_animate_face_2.png","stimuli/stim008_animate_bird_4.png","stimuli/stim013_inanimate_boats_1.png","131"
"html-button-response-mod","138","465844","0.0-138.0","76459","","","","","","triplet","1014.7999999970198","","","","0","stimuli/stim020_inanimate_tree_4.png","stimuli/tree_lowercase.png","stimuli/tools_lowercase.png","132"
"html-button-response-mod","139","467389","0.0-139.0","76459","","","","","","triplet","1030.2000000029802","","","","1","stimuli/stim002_animate_fish_2.png","stimuli/face_uppercase.png","stimuli/stim010_animate_face_2.png","133"
"html-button-response-mod","140","469172","0.0-140.0","76459","","","","","","triplet","1269.9000000059605","","","","1","stimuli/stim024_inanimate_tools_4.png","stimuli/stim009_animate_face_1.png","stimuli/stim017_inanimate_tree_1.png","134"
"html-button-response-mod","141","470972","0.0-141.0","76459","","","","","","triplet","1285.199999988079","","","","2","stimuli/stim023_inanimate_tools_3.png","stimuli/stim017_inanimate_tree_1.png","stimuli/tools_uppercase.png","135"
"html-button-response-mod","142","472456","0.0-142.0","76459","","","","","","triplet","970.6000000089407","","","","0","stimuli/fish_lowercase.png","stimuli/stim022_inanimate_tools_2.png","stimuli/stim011_animate_face_3.png","136"
"html-button-response-mod","143","473844","0.0-143.0","76459","","","","","","triplet","873.3999999910593","","","","0","stimuli/bird_lowercase.png","stimuli/stim015_inanimate_boats_3.png","stimuli/stim011_animate_face_3.png","137"
"html-button-response-mod","144","475441","0.0-144.0","76459","","","","","","triplet","1081.5","","","","2","stimuli/stim022_inanimate_tools_2.png","stimuli/stim014_inanimate_boats_2.png","stimuli/stim015_inanimate_boats_3.png","138"
"html-button-response-mod","145","477111","0.0-145.0","76459","","","","","","triplet","1167.5","","","","0","stimuli/stim009_animate_face_1.png","stimuli/boats_uppercase.png","stimuli/boats_lowercase.png","139"
"html-button-response-mod","146","478611","0.0-146.0","76459","","","","","","triplet","986.1000000089407","","","","2","stimuli/stim016_inanimate_boats_4.png","stimuli/stim022_inanimate_tools_2.png","stimuli/tools_lowercase.png","140"
"html-button-response-mod","147","480814","0.0-147.0","76459","","","","","","triplet","1701.699999988079","","","","0","stimuli/stim015_inanimate_boats_3.png","stimuli/stim009_animate_face_1.png","stimuli/stim017_inanimate_tree_1.png","141"
"html-button-response-mod","148","482546","0.0-148.0","76459","","","","","","triplet","1216.7000000029802","","","","2","stimuli/fish_lowercase.png","stimuli/tree_lowercase.png","stimuli/stim010_animate_face_2.png","142"
"html-button-response-mod","149","484146","0.0-149.0","76459","","","","","","triplet","1097.1000000089407","","","","2","stimuli/stim015_inanimate_boats_3.png","stimuli/stim003_animate_fish_3.png","stimuli/boats_uppercase.png","143"
"html-button-response-mod","150","485474","0.0-150.0","76459","","","","","","triplet","815.5","","","","2","stimuli/stim015_inanimate_boats_3.png","stimuli/stim008_animate_bird_4.png","stimuli/bird_lowercase.png","144"
"html-button-response-mod","151","486835","0.0-151.0","76459","","","","","","triplet","858.2000000029802","","","","2","stimuli/stim006_animate_bird_2.png","stimuli/stim002_animate_fish_2.png","stimuli/fish_uppercase.png","145"
"html-button-response-mod","152","488147","0.0-152.0","76459","","","","","","triplet","798.4000000059605","","","","2","stimuli/stim007_animate_bird_3.png","stimuli/stim005_animate_bird_1.png","stimuli/fish_uppercase.png","146"
"html-button-response-mod","153","490158","0.0-153.0","76459","","","","","","triplet","1494.9000000059605","","","","2","stimuli/face_uppercase.png","stimuli/stim005_animate_bird_1.png","stimuli/face_lowercase.png","147"
"html-button-response-mod","154","491520","0.0-154.0","76459","","","","","","triplet","847.5","","","","2","stimuli/stim014_inanimate_boats_2.png","stimuli/stim021_inanimate_tools_1.png","stimuli/boats_lowercase.png","148"
"html-button-response-mod","155","493755","0.0-155.0","76459","","","","","","triplet","1723.5","","","","2","stimuli/stim023_inanimate_tools_3.png","stimuli/stim014_inanimate_boats_2.png","stimuli/stim011_animate_face_3.png","149"
"html-button-response","156","495818","0.0-156.0","76459","","","","","","break","1549.2000000029802","<p>BREAK</p><p>Take a break for as long as you need</p><p>Click the button to continue</p>","0","","","","","",""
"html-button-response-mod","157","497212","0.0-157.0","76459","","","","","","triplet","1392.5999999940395","","","","1","stimuli/tree_uppercase.png","stimuli/tree_lowercase.png","stimuli/face_uppercase.png","150"
"html-button-response-mod","158","498919","0.0-158.0","76459","","","","","","triplet","1191.0999999940395","","","","2","stimuli/tree_uppercase.png","stimuli/bird_uppercase.png","stimuli/stim006_animate_bird_2.png","151"
"html-button-response-mod","159","500465","0.0-159.0","76459","","","","","","triplet","1030.2999999970198","","","","2","stimuli/stim009_animate_face_1.png","stimuli/stim003_animate_fish_3.png","stimuli/fish_uppercase.png","152"
"html-button-response-mod","160","502234","0.0-160.0","76459","","","","","","triplet","1251.7999999970198","","","","1","stimuli/boats_uppercase.png","stimuli/stim005_animate_bird_1.png","stimuli/tools_lowercase.png","153"
"html-button-response-mod","161","504185","0.0-161.0","76459","","","","","","triplet","1437.0999999940395","","","","1","stimuli/stim013_inanimate_boats_1.png","stimuli/tree_lowercase.png","stimuli/stim005_animate_bird_1.png","154"
"html-button-response-mod","162","505699","0.0-162.0","76459","","","","","","triplet","997.6999999880791","","","","0","stimuli/bird_lowercase.png","stimuli/stim012_animate_face_4.png","stimuli/stim022_inanimate_tools_2.png","155"
"html-button-response-mod","163","508578","0.0-163.0","76459","","","","","","triplet","2376","","","","2","stimuli/tree_lowercase.png","stimuli/tools_lowercase.png","stimuli/fish_uppercase.png","156"
"html-button-response-mod","164","510642","0.0-164.0","76459","","","","","","triplet","1548.5999999940395","","","","0","stimuli/face_uppercase.png","stimuli/stim014_inanimate_boats_2.png","stimuli/stim018_inanimate_tree_2.png","157"
"html-button-response-mod","165","512301","0.0-165.0","76459","","","","","","triplet","1143","","","","2","stimuli/stim008_animate_bird_4.png","stimuli/stim001_animate_fish_1.png","stimuli/tools_lowercase.png","158"
"html-button-response-mod","166","513735","0.0-166.0","76459","","","","","","triplet","923.5","","","","1","stimuli/stim013_inanimate_boats_1.png","stimuli/tools_lowercase.png","stimuli/stim016_inanimate_boats_4.png","159"
"html-button-response-mod","167","515667","0.0-167.0","76459","","","","","","triplet","1427.9000000059605","","","","0","stimuli/stim007_animate_bird_3.png","stimuli/stim023_inanimate_tools_3.png","stimuli/stim022_inanimate_tools_2.png","160"
"html-button-response-mod","168","517730","0.0-168.0","76459","","","","","","triplet","1547.300000011921","","","","0","stimuli/stim013_inanimate_boats_1.png","stimuli/stim017_inanimate_tree_1.png","stimuli/stim019_inanimate_tree_3.png","161"
"html-button-response-mod","169","520113","0.0-169.0","76459","","","","","","triplet","1879.5999999940395","","","","0","stimuli/stim011_animate_face_3.png","stimuli/stim019_inanimate_tree_3.png","stimuli/stim020_inanimate_tree_4.png","162"
"html-button-response-mod","170","521879","0.0-170.0","76459","","","","","","triplet","1249.7999999970198","","","","1","stimuli/stim011_animate_face_3.png","stimuli/boats_uppercase.png","stimuli/stim005_animate_bird_1.png","163"
"html-button-response-mod","171","524479","0.0-171.0","76459","","","","","","triplet","2084.2999999970198","","","","2","stimuli/stim017_inanimate_tree_1.png","stimuli/stim015_inanimate_boats_3.png","stimuli/stim024_inanimate_tools_4.png","164"
"html-button-response-mod","172","526313","0.0-172.0","76459","","","","","","triplet","1330.7000000029802","","","","0","stimuli/stim024_inanimate_tools_4.png","stimuli/fish_uppercase.png","stimuli/tools_lowercase.png","165"
"html-button-response-mod","173","528272","0.0-173.0","76459","","","","","","triplet","1456.7000000029802","","","","0","stimuli/face_uppercase.png","stimuli/stim003_animate_fish_3.png","stimuli/stim018_inanimate_tree_2.png","166"
"html-button-response-mod","174","530004","0.0-174.0","76459","","","","","","triplet","1216.7000000029802","","","","1","stimuli/stim022_inanimate_tools_2.png","stimuli/tools_uppercase.png","stimuli/stim009_animate_face_1.png","167"
"html-button-response-mod","175","531648","0.0-175.0","76459","","","","","","triplet","1127.5999999940395","","","","2","stimuli/stim008_animate_bird_4.png","stimuli/stim006_animate_bird_2.png","stimuli/boats_lowercase.png","168"
"html-button-response-mod","176","533415","0.0-176.0","76459","","","","","","triplet","1252.9000000059605","","","","2","stimuli/fish_uppercase.png","stimuli/tools_lowercase.png","stimuli/stim016_inanimate_boats_4.png","169"
"html-button-response-mod","177","535663","0.0-177.0","76459","","","","","","triplet","1734.5999999940395","","","","0","stimuli/tree_lowercase.png","stimuli/stim010_animate_face_2.png","stimuli/stim009_animate_face_1.png","170"
"html-button-response-mod","178","537635","0.0-178.0","76459","","","","","","triplet","1458.7999999970198","","","","0","stimuli/stim003_animate_fish_3.png","stimuli/face_lowercase.png","stimuli/bird_uppercase.png","171"
"html-button-response-mod","179","539375","0.0-179.0","76459","","","","","","triplet","1223.699999988079","","","","2","stimuli/bird_lowercase.png","stimuli/boats_uppercase.png","stimuli/stim014_inanimate_boats_2.png","172"
"html-button-response-mod","180","541189","0.0-180.0","76459","","","","","","triplet","1297.6000000089407","","","","0","stimuli/face_lowercase.png","stimuli/stim011_animate_face_3.png","stimuli/stim023_inanimate_tools_3.png","173"
"html-button-response-mod","181","542805","0.0-181.0","76459","","","","","","triplet","1099.2999999970198","","","","1","stimuli/boats_lowercase.png","stimuli/stim005_animate_bird_1.png","stimuli/tools_lowercase.png","174"
"html-button-response-mod","182","545306","0.0-182.0","76459","","","","","","triplet","1985.2999999970198","","","","2","stimuli/stim014_inanimate_boats_2.png","stimuli/stim006_animate_bird_2.png","stimuli/boats_uppercase.png","175"
"html-button-response-mod","183","547301","0.0-183.0","76459","","","","","","triplet","1482.7999999970198","","","","1","stimuli/stim014_inanimate_boats_2.png","stimuli/fish_uppercase.png","stimuli/stim019_inanimate_tree_3.png","176"
"html-button-response-mod","184","549650","0.0-184.0","76459","","","","","","triplet","1832.2999999970198","","","","1","stimuli/stim011_animate_face_3.png","stimuli/stim017_inanimate_tree_1.png","stimuli/stim012_animate_face_4.png","177"
"html-button-response-mod","185","551258","0.0-185.0","76459","","","","","","triplet","1094.2999999970198","","","","2","stimuli/face_uppercase.png","stimuli/tools_lowercase.png","stimuli/stim022_inanimate_tools_2.png","178"
"html-button-response-mod","186","552914","0.0-186.0","76459","","","","","","triplet","1139.9000000059605","","","","1","stimuli/stim019_inanimate_tree_3.png","stimuli/boats_lowercase.png","stimuli/stim008_animate_bird_4.png","179"
"html-button-response-mod","187","554327","0.0-187.0","76459","","","","","","triplet","909.6000000089407","","","","1","stimuli/stim017_inanimate_tree_1.png","stimuli/stim024_inanimate_tools_4.png","stimuli/stim019_inanimate_tree_3.png","180"
"html-button-response-mod","188","555870","0.0-188.0","76459","","","","","","triplet","1029.5","","","","1","stimuli/stim002_animate_fish_2.png","stimuli/stim018_inanimate_tree_2.png","stimuli/stim001_animate_fish_1.png","181"
"html-button-response-mod","189","557518","0.0-189.0","76459","","","","","","triplet","1132.4000000059605","","","","1","stimuli/stim003_animate_fish_3.png","stimuli/stim015_inanimate_boats_3.png","stimuli/stim023_inanimate_tools_3.png","182"
"html-button-response-mod","190","559094","0.0-190.0","76459","","","","","","triplet","1061.7999999970198","","","","1","stimuli/stim013_inanimate_boats_1.png","stimuli/stim015_inanimate_boats_3.png","stimuli/stim008_animate_bird_4.png","183"
"html-button-response-mod","191","560597","0.0-191.0","76459","","","","","","triplet","987.0999999940395","","","","2","stimuli/stim021_inanimate_tools_1.png","stimuli/stim005_animate_bird_1.png","stimuli/bird_lowercase.png","184"
"html-button-response-mod","192","562188","0.0-192.0","76459","","","","","","triplet","1075.5","","","","0","stimuli/stim010_animate_face_2.png","stimuli/fish_lowercase.png","stimuli/fish_uppercase.png","185"
"html-button-response-mod","193","563768","0.0-193.0","76459","","","","","","triplet","1066.5","","","","1","stimuli/bird_uppercase.png","stimuli/stim009_animate_face_1.png","stimuli/bird_lowercase.png","186"
"html-button-response-mod","194","565288","0.0-194.0","76459","","","","","","triplet","1016.2000000029802","","","","2","stimuli/stim007_animate_bird_3.png","stimuli/stim012_animate_face_4.png","stimuli/face_lowercase.png","187"
"html-button-response-mod","195","566847","0.0-195.0","76459","","","","","","triplet","1047.2000000029802","","","","0","stimuli/stim024_inanimate_tools_4.png","stimuli/face_lowercase.png","stimuli/bird_lowercase.png","188"
"html-button-response-mod","196","568346","0.0-196.0","76459","","","","","","triplet","983.3000000119209","","","","0","stimuli/stim023_inanimate_tools_3.png","stimuli/tree_lowercase.png","stimuli/fish_lowercase.png","189"
"html-button-response-mod","197","570191","0.0-197.0","76459","","","","","","triplet","1331.1000000089407","","","","0","stimuli/face_lowercase.png","stimuli/stim005_animate_bird_1.png","stimuli/stim004_animate_fish_4.png","190"
"html-button-response-mod","198","571773","0.0-198.0","76459","","","","","","triplet","1066.1000000089407","","","","2","stimuli/stim002_animate_fish_2.png","stimuli/stim019_inanimate_tree_3.png","stimuli/tree_lowercase.png","191"
"html-button-response-mod","199","573293","0.0-199.0","76459","","","","","","triplet","1005.3999999910593","","","","2","stimuli/fish_lowercase.png","stimuli/boats_lowercase.png","stimuli/stim007_animate_bird_3.png","192"
"html-button-response-mod","200","574796","0.0-200.0","76459","","","","","","triplet","987","","","","1","stimuli/stim010_animate_face_2.png","stimuli/boats_uppercase.png","stimuli/stim009_animate_face_1.png","193"
"html-button-response-mod","201","578129","0.0-201.0","76459","","","","","","triplet","2817.3999999910593","","","","2","stimuli/stim004_animate_fish_4.png","stimuli/stim014_inanimate_boats_2.png","stimuli/stim009_animate_face_1.png","194"
"html-button-response-mod","202","579744","0.0-202.0","76459","","","","","","triplet","1104.2000000029802","","","","0","stimuli/stim017_inanimate_tree_1.png","stimuli/stim004_animate_fish_4.png","stimuli/fish_lowercase.png","195"
"html-button-response-mod","203","581485","0.0-203.0","76459","","","","","","triplet","1237.7000000029802","","","","0","stimuli/boats_lowercase.png","stimuli/stim003_animate_fish_3.png","stimuli/stim016_inanimate_boats_4.png","196"
"html-button-response-mod","204","583546","0.0-204.0","76459","","","","","","triplet","1543.6000000089407","","","","2","stimuli/boats_uppercase.png","stimuli/stim006_animate_bird_2.png","stimuli/stim018_inanimate_tree_2.png","197"
"html-button-response-mod","205","585157","0.0-205.0","76459","","","","","","triplet","1096.2999999970198","","","","0","stimuli/stim016_inanimate_boats_4.png","stimuli/boats_uppercase.png","stimuli/bird_lowercase.png","198"
"html-button-response-mod","206","586725","0.0-206.0","76459","","","","","","triplet","1065.7000000029802","","","","1","stimuli/stim013_inanimate_boats_1.png","stimuli/tools_lowercase.png","stimuli/stim004_animate_fish_4.png","199"
"html-button-response","207","590135","0.0-207.0","76459","","","","","","break","2897.4000000059605","<p>BREAK</p><p>Take a break for as long as you need</p><p>Click the button to continue</p>","0","","","","","",""
"html-button-response-mod","208","593473","0.0-208.0","76459","","","","","","triplet","3336.7000000029802","","","","0","stimuli/stim008_animate_bird_4.png","stimuli/stim004_animate_fish_4.png","stimuli/stim001_animate_fish_1.png","200"
"html-button-response-mod","209","595499","0.0-209.0","76459","","","","","","triplet","1513.1000000089407","","","","2","stimuli/bird_uppercase.png","stimuli/face_lowercase.png","stimuli/stim002_animate_fish_2.png","201"
"html-button-response-mod","210","597373","0.0-210.0","76459","","","","","","triplet","1356.7999999970198","","","","2","stimuli/stim020_inanimate_tree_4.png","stimuli/stim023_inanimate_tools_3.png","stimuli/tools_uppercase.png","202"
"html-button-response-mod","211","599248","0.0-211.0","76459","","","","","","triplet","1360.6000000089407","","","","1","stimuli/stim009_animate_face_1.png","stimuli/stim023_inanimate_tools_3.png","stimuli/stim011_animate_face_3.png","203"
"html-button-response-mod","212","600899","0.0-212.0","76459","","","","","","triplet","1135.7000000029802","","","","1","stimuli/stim023_inanimate_tools_3.png","stimuli/stim021_inanimate_tools_1.png","stimuli/stim020_inanimate_tree_4.png","204"
"html-button-response-mod","213","602606","0.0-213.0","76459","","","","","","triplet","1191.1000000089407","","","","1","stimuli/stim017_inanimate_tree_1.png","stimuli/tools_uppercase.png","stimuli/stim018_inanimate_tree_2.png","205"
"html-button-response-mod","214","605076","0.0-214.0","76459","","","","","","triplet","1953.2000000029802","","","","1","stimuli/stim008_animate_bird_4.png","stimuli/stim006_animate_bird_2.png","stimuli/stim005_animate_bird_1.png","206"
"html-button-response-mod","215","606582","0.0-215.0","76459","","","","","","triplet","1004.2000000029802","","","","1","stimuli/stim005_animate_bird_1.png","stimuli/fish_lowercase.png","stimuli/stim009_animate_face_1.png","207"
"html-button-response-mod","216","608450","0.0-216.0","76459","","","","","","triplet","1350.3999999910593","","","","0","stimuli/stim015_inanimate_boats_3.png","stimuli/stim020_inanimate_tree_4.png","stimuli/stim012_animate_face_4.png","208"
"html-button-response-mod","217","609981","0.0-217.0","76459","","","","","","triplet","1018.4000000059605","","","","0","stimuli/bird_lowercase.png","stimuli/stim019_inanimate_tree_3.png","stimuli/stim009_animate_face_1.png","209"
"html-button-response-mod","218","611525","0.0-218.0","76459","","","","","","triplet","1027.7999999970198","","","","1","stimuli/stim014_inanimate_boats_2.png","stimuli/boats_uppercase.png","stimuli/stim007_animate_bird_3.png","210"
"html-button-response-mod","219","613131","0.0-219.0","76459","","","","","","triplet","1091.8999999910593","","","","2","stimuli/stim009_animate_face_1.png","stimuli/stim004_animate_fish_4.png","stimuli/boats_uppercase.png","211"
"html-button-response-mod","220","614755","0.0-220.0","76459","","","","","","triplet","1109.0999999940395","","","","2","stimuli/stim013_inanimate_boats_1.png","stimuli/stim001_animate_fish_1.png","stimuli/stim017_inanimate_tree_1.png","212"
"html-button-response-mod","221","616783","0.0-221.0","76459","","","","","","triplet","1513.2999999970198","","","","0","stimuli/face_lowercase.png","stimuli/stim012_animate_face_4.png","stimuli/stim002_animate_fish_2.png","213"
"html-button-response-mod","222","618367","0.0-222.0","76459","","","","","","triplet","1080.8999999910593","","","","2","stimuli/tree_uppercase.png","stimuli/tools_uppercase.png","stimuli/stim019_inanimate_tree_3.png","214"
"html-button-response-mod","223","619992","0.0-223.0","76459","","","","","","triplet","1109.0999999940395","","","","1","stimuli/stim002_animate_fish_2.png","stimuli/stim021_inanimate_tools_1.png","stimuli/stim009_animate_face_1.png","215"
"html-button-response-mod","224","621484","0.0-224.0","76459","","","","","","triplet","980.7000000029802","","","","2","stimuli/boats_lowercase.png","stimuli/tools_uppercase.png","stimuli/stim023_inanimate_tools_3.png","216"
"html-button-response-mod","225","622847","0.0-225.0","76459","","","","","","triplet","845.4000000059605","","","","0","stimuli/bird_uppercase.png","stimuli/stim009_animate_face_1.png","stimuli/stim003_animate_fish_3.png","217"
"html-button-response-mod","226","624454","0.0-226.0","76459","","","","","","triplet","1104.2999999970198","","","","2","stimuli/bird_uppercase.png","stimuli/fish_lowercase.png","stimuli/stim013_inanimate_boats_1.png","218"
"html-button-response-mod","227","625992","0.0-227.0","76459","","","","","","triplet","1021","","","","1","stimuli/stim008_animate_bird_4.png","stimuli/face_lowercase.png","stimuli/stim007_animate_bird_3.png","219"
"html-button-response-mod","228","628228","0.0-228.0","76459","","","","","","triplet","1720.0999999940395","","","","0","stimuli/stim011_animate_face_3.png","stimuli/stim002_animate_fish_2.png","stimuli/stim004_animate_fish_4.png","220"
"html-button-response-mod","229","630012","0.0-229.0","76459","","","","","","triplet","1269.1000000089407","","","","1","stimuli/stim018_inanimate_tree_2.png","stimuli/stim003_animate_fish_3.png","stimuli/stim017_inanimate_tree_1.png","221"
"html-button-response-mod","230","631902","0.0-230.0","76459","","","","","","triplet","1378.1000000089407","","","","2","stimuli/stim002_animate_fish_2.png","stimuli/stim006_animate_bird_2.png","stimuli/stim009_animate_face_1.png","222"
"html-button-response-mod","231","633696","0.0-231.0","76459","","","","","","triplet","1278.3999999910593","","","","2","stimuli/tree_uppercase.png","stimuli/stim019_inanimate_tree_3.png","stimuli/stim010_animate_face_2.png","223"
"html-button-response-mod","232","635290","0.0-232.0","76459","","","","","","triplet","1078.2999999970198","","","","2","stimuli/stim012_animate_face_4.png","stimuli/stim011_animate_face_3.png","stimuli/stim021_inanimate_tools_1.png","224"
"html-button-response-mod","233","636791","0.0-233.0","76459","","","","","","triplet","984.5999999940395","","","","1","stimuli/stim018_inanimate_tree_2.png","stimuli/fish_uppercase.png","stimuli/stim021_inanimate_tools_1.png","225"
"html-button-response-mod","234","638366","0.0-234.0","76459","","","","","","triplet","1073","","","","2","stimuli/bird_lowercase.png","stimuli/tree_lowercase.png","stimuli/stim010_animate_face_2.png","226"
"html-button-response-mod","235","640830","0.0-235.0","76459","","","","","","triplet","1949.5999999940395","","","","0","stimuli/stim018_inanimate_tree_2.png","stimuli/stim014_inanimate_boats_2.png","stimuli/stim021_inanimate_tools_1.png","227"
"html-button-response-mod","236","642694","0.0-236.0","76459","","","","","","triplet","1346.6000000089407","","","","1","stimuli/bird_uppercase.png","stimuli/stim005_animate_bird_1.png","stimuli/face_lowercase.png","228"
"html-button-response-mod","237","644302","0.0-237.0","76459","","","","","","triplet","1091.7000000029802","","","","0","stimuli/stim012_animate_face_4.png","stimuli/bird_lowercase.png","stimuli/tools_lowercase.png","229"
"html-button-response-mod","238","645861","0.0-238.0","76459","","","","","","triplet","1044","","","","2","stimuli/stim006_animate_bird_2.png","stimuli/stim018_inanimate_tree_2.png","stimuli/tools_lowercase.png","230"
"html-button-response-mod","239","647489","0.0-239.0","76459","","","","","","triplet","1111.7000000029802","","","","1","stimuli/tools_lowercase.png","stimuli/stim018_inanimate_tree_2.png","stimuli/bird_uppercase.png","231"
"html-button-response-mod","240","649038","0.0-240.0","76459","","","","","","triplet","1045.7999999970198","","","","0","stimuli/face_uppercase.png","stimuli/stim013_inanimate_boats_1.png","stimuli/stim020_inanimate_tree_4.png","232"
"html-button-response-mod","241","650706","0.0-241.0","76459","","","","","","triplet","1153","","","","2","stimuli/stim022_inanimate_tools_2.png","stimuli/stim008_animate_bird_4.png","stimuli/tree_uppercase.png","233"
"html-button-response-mod","242","652271","0.0-242.0","76459","","","","","","triplet","1049.2999999970198","","","","1","stimuli/face_uppercase.png","stimuli/stim008_animate_bird_4.png","stimuli/tree_lowercase.png","234"
"html-button-response-mod","243","653803","0.0-243.0","76459","","","","","","triplet","1016.3000000119209","","","","2","stimuli/bird_uppercase.png","stimuli/tree_uppercase.png","stimuli/stim013_inanimate_boats_1.png","235"
"html-button-response-mod","244","655317","0.0-244.0","76459","","","","","","triplet","998.5","","","","0","stimuli/stim017_inanimate_tree_1.png","stimuli/bird_lowercase.png","stimuli/fish_uppercase.png","236"
"html-button-response-mod","245","656878","0.0-245.0","76459","","","","","","triplet","1044","","","","2","stimuli/stim002_animate_fish_2.png","stimuli/stim009_animate_face_1.png","stimuli/stim014_inanimate_boats_2.png","237"
"html-button-response-mod","246","659080","0.0-246.0","76459","","","","","","triplet","1689.3999999910593","","","","0","stimuli/stim022_inanimate_tools_2.png","stimuli/stim012_animate_face_4.png","stimuli/stim019_inanimate_tree_3.png","238"
"html-button-response-mod","247","661790","0.0-247.0","76459","","","","","","triplet","2205.5999999940395","","","","1","stimuli/bird_uppercase.png","stimuli/tools_uppercase.png","stimuli/face_lowercase.png","239"
"html-button-response-mod","248","666026","0.0-248.0","76459","","","","","","triplet","3723.5","","","","0","stimuli/stim009_animate_face_1.png","stimuli/stim016_inanimate_boats_4.png","stimuli/stim021_inanimate_tools_1.png","240"
"html-button-response-mod","249","667932","0.0-249.0","76459","","","","","","triplet","1390.7000000029802","","","","1","stimuli/face_lowercase.png","stimuli/stim010_animate_face_2.png","stimuli/bird_lowercase.png","241"
"html-button-response-mod","250","669871","0.0-250.0","76459","","","","","","triplet","1421.699999988079","","","","1","stimuli/stim001_animate_fish_1.png","stimuli/tools_lowercase.png","stimuli/stim009_animate_face_1.png","242"
"html-button-response-mod","251","671856","0.0-251.0","76459","","","","","","triplet","1469.800000011921","","","","2","stimuli/stim017_inanimate_tree_1.png","stimuli/stim020_inanimate_tree_4.png","stimuli/stim015_inanimate_boats_3.png","243"
"html-button-response-mod","252","673644","0.0-252.0","76459","","","","","","triplet","1270.199999988079","","","","2","stimuli/boats_lowercase.png","stimuli/tree_uppercase.png","stimuli/stim020_inanimate_tree_4.png","244"
"html-button-response-mod","253","675197","0.0-253.0","76459","","","","","","triplet","1046.2999999970198","","","","1","stimuli/tools_uppercase.png","stimuli/stim022_inanimate_tools_2.png","stimuli/fish_lowercase.png","245"
"html-button-response-mod","254","676848","0.0-254.0","76459","","","","","","triplet","1135.7000000029802","","","","2","stimuli/stim024_inanimate_tools_4.png","stimuli/stim003_animate_fish_3.png","stimuli/boats_lowercase.png","246"
"html-button-response-mod","255","679236","0.0-255.0","76459","","","","","","triplet","1872","","","","0","stimuli/stim011_animate_face_3.png","stimuli/stim013_inanimate_boats_1.png","stimuli/stim021_inanimate_tools_1.png","247"
"html-button-response-mod","256","680701","0.0-256.0","76459","","","","","","triplet","951.2999999970198","","","","0","stimuli/face_uppercase.png","stimuli/stim023_inanimate_tools_3.png","stimuli/stim016_inanimate_boats_4.png","248"
"html-button-response-mod","257","685204","0.0-257.0","76459","","","","","","triplet","3987.6000000089407","","","","0","stimuli/stim010_animate_face_2.png","stimuli/stim003_animate_fish_3.png","stimuli/stim018_inanimate_tree_2.png","249"
"html-button-response","258","687707","0.0-258.0","76459","","","","","","break","1985.5999999940395","<p>BREAK</p><p>Take a break for as long as you need</p><p>Click the button to continue</p>","0","","","","","",""
"html-button-response-mod","259","689207","0.0-259.0","76459","","","","","","triplet","1498.5999999940395","","","","0","stimuli/stim022_inanimate_tools_2.png","stimuli/stim004_animate_fish_4.png","stimuli/stim009_animate_face_1.png","250"
"html-button-response-mod","260","690612","0.0-260.0","76459","","","","","","triplet","889.1000000089407","","","","1","stimuli/stim003_animate_fish_3.png","stimuli/bird_uppercase.png","stimuli/stim002_animate_fish_2.png","251"
"html-button-response-mod","261","692160","0.0-261.0","76459","","","","","","triplet","1032.7000000029802","","","","1","stimuli/stim017_inanimate_tree_1.png","stimuli/fish_lowercase.png","stimuli/stim008_animate_bird_4.png","252"
"html-button-response-mod","262","693627","0.0-262.0","76459","","","","","","triplet","953","","","","2","stimuli/stim006_animate_bird_2.png","stimuli/stim023_inanimate_tools_3.png","stimuli/fish_lowercase.png","253"
"html-button-response-mod","263","696014","0.0-263.0","76459","","","","","","triplet","1871.9000000059605","","","","2","stimuli/stim019_inanimate_tree_3.png","stimuli/stim024_inanimate_tools_4.png","stimuli/tree_lowercase.png","254"
"html-button-response-mod","264","697594","0.0-264.0","76459","","","","","","triplet","1065.2999999970198","","","","1","stimuli/stim005_animate_bird_1.png","stimuli/stim024_inanimate_tools_4.png","stimuli/stim011_animate_face_3.png","255"
"html-button-response-mod","265","699185","0.0-265.0","76459","","","","","","triplet","1077.2999999970198","","","","0","stimuli/stim014_inanimate_boats_2.png","stimuli/stim008_animate_bird_4.png","stimuli/stim005_animate_bird_1.png","256"
"html-button-response-mod","266","700638","0.0-266.0","76459","","","","","","triplet","936.5999999940395","","","","0","stimuli/tree_lowercase.png","stimuli/stim019_inanimate_tree_3.png","stimuli/stim005_animate_bird_1.png","257"
"html-button-response-mod","267","701859","0.0-267.0","76459","","","","","","triplet","705.1000000089407","","","","0","stimuli/bird_lowercase.png","stimuli/stim014_inanimate_boats_2.png","stimuli/fish_lowercase.png","258"
"html-button-response-mod","268","703702","0.0-268.0","76459","","","","","","triplet","1328.3999999910593","","","","1","stimuli/stim003_animate_fish_3.png","stimuli/stim024_inanimate_tools_4.png","stimuli/stim007_animate_bird_3.png","259"
"html-button-response-mod","269","705132","0.0-269.0","76459","","","","","","triplet","927.3000000119209","","","","1","stimuli/stim007_animate_bird_3.png","stimuli/fish_lowercase.png","stimuli/stim002_animate_fish_2.png","260"
"html-button-response-mod","270","707064","0.0-270.0","76459","","","","","","triplet","1415.0999999940395","","","","1","stimuli/face_lowercase.png","stimuli/stim024_inanimate_tools_4.png","stimuli/bird_uppercase.png","261"
"html-button-response-mod","271","708660","0.0-271.0","76459","","","","","","triplet","1080.300000011921","","","","2","stimuli/stim013_inanimate_boats_1.png","stimuli/stim004_animate_fish_4.png","stimuli/boats_lowercase.png","262"
"html-button-response-mod","272","710315","0.0-272.0","76459","","","","","","triplet","1143.199999988079","","","","1","stimuli/boats_lowercase.png","stimuli/stim001_animate_fish_1.png","stimuli/boats_uppercase.png","263"
"html-button-response-mod","273","712000","0.0-273.0","76459","","","","","","triplet","1174.2000000029802","","","","0","stimuli/stim014_inanimate_boats_2.png","stimuli/stim011_animate_face_3.png","stimuli/stim009_animate_face_1.png","264"
"html-button-response-mod","274","714473","0.0-274.0","76459","","","","","","triplet","1958.8999999910593","","","","0","stimuli/stim021_inanimate_tools_1.png","stimuli/stim005_animate_bird_1.png","stimuli/stim001_animate_fish_1.png","265"
"html-button-response-mod","275","716333","0.0-275.0","76459","","","","","","triplet","1357.2999999970198","","","","0","stimuli/stim005_animate_bird_1.png","stimuli/tree_lowercase.png","stimuli/bird_lowercase.png","266"
"html-button-response-mod","276","717915","0.0-276.0","76459","","","","","","triplet","1067.2999999970198","","","","1","stimuli/fish_uppercase.png","stimuli/stim011_animate_face_3.png","stimuli/tree_lowercase.png","267"
"html-button-response-mod","277","719496","0.0-277.0","76459","","","","","","triplet","1079","","","","0","stimuli/stim015_inanimate_boats_3.png","stimuli/tools_uppercase.png","stimuli/boats_lowercase.png","268"
"html-button-response-mod","278","721402","0.0-278.0","76459","","","","","","triplet","1390.2000000029802","","","","0","stimuli/tools_uppercase.png","stimuli/stim008_animate_bird_4.png","stimuli/stim007_animate_bird_3.png","269"
"html-button-response-mod","279","723870","0.0-279.0","76459","","","","","","triplet","1953.8999999910593","","","","2","stimuli/stim022_inanimate_tools_2.png","stimuli/stim015_inanimate_boats_3.png","stimuli/stim017_inanimate_tree_1.png","270"
"html-button-response-mod","280","725467","0.0-280.0","76459","","","","","","triplet","1079.7999999970198","","","","1","stimuli/stim002_animate_fish_2.png","stimuli/stim019_inanimate_tree_3.png","stimuli/stim007_animate_bird_3.png","271"
"html-button-response-mod","281","729085","0.0-281.0","76459","","","","","","triplet","3104.5999999940395","","","","1","stimuli/stim017_inanimate_tree_1.png","stimuli/stim023_inanimate_tools_3.png","stimuli/stim003_animate_fish_3.png","272"
"html-button-response-mod","282","730726","0.0-282.0","76459","","","","","","triplet","1125.699999988079","","","","0","stimuli/fish_uppercase.png","stimuli/stim002_animate_fish_2.png","stimuli/stim024_inanimate_tools_4.png","273"
"html-button-response-mod","283","733691","0.0-283.0","76459","","","","","","triplet","2462","","","","1","stimuli/stim022_inanimate_tools_2.png","stimuli/fish_lowercase.png","stimuli/stim021_inanimate_tools_1.png","274"
"html-button-response-mod","284","735274","0.0-284.0","76459","","","","","","triplet","1080.9000000059605","","","","2","stimuli/stim008_animate_bird_4.png","stimuli/stim012_animate_face_4.png","stimuli/stim015_inanimate_boats_3.png","275"
"html-button-response-mod","285","737192","0.0-285.0","76459","","","","","","triplet","1405.7999999970198","","","","0","stimuli/stim011_animate_face_3.png","stimuli/stim007_animate_bird_3.png","stimuli/stim006_animate_bird_2.png","276"
"html-button-response-mod","286","738649","0.0-286.0","76459","","","","","","triplet","954.2000000029802","","","","1","stimuli/stim011_animate_face_3.png","stimuli/stim001_animate_fish_1.png","stimuli/stim012_animate_face_4.png","277"
"html-button-response-mod","287","740605","0.0-287.0","76459","","","","","","triplet","1454.2000000029802","","","","1","stimuli/stim024_inanimate_tools_4.png","stimuli/stim023_inanimate_tools_3.png","stimuli/stim019_inanimate_tree_3.png","278"
"html-button-response-mod","288","742110","0.0-288.0","76459","","","","","","triplet","989.6000000089407","","","","0","stimuli/bird_lowercase.png","stimuli/stim022_inanimate_tools_2.png","stimuli/stim023_inanimate_tools_3.png","279"
"html-button-response-mod","289","743705","0.0-289.0","76459","","","","","","triplet","1082.0999999940395","","","","0","stimuli/tree_uppercase.png","stimuli/stim022_inanimate_tools_2.png","stimuli/stim018_inanimate_tree_2.png","280"
"html-button-response-mod","290","745997","0.0-290.0","76459","","","","","","triplet","1779","","","","2","stimuli/tools_lowercase.png","stimuli/tree_lowercase.png","stimuli/stim006_animate_bird_2.png","281"
"html-button-response-mod","291","748826","0.0-291.0","76459","","","","","","triplet","2311.7000000029802","","","","1","stimuli/stim004_animate_fish_4.png","stimuli/tree_uppercase.png","stimuli/stim014_inanimate_boats_2.png","282"
"html-button-response-mod","292","750216","0.0-292.0","76459","","","","","","triplet","873.8000000119209","","","","0","stimuli/tools_uppercase.png","stimuli/stim007_animate_bird_3.png","stimuli/stim017_inanimate_tree_1.png","283"
"html-button-response-mod","293","751862","0.0-293.0","76459","","","","","","triplet","1130.300000011921","","","","1","stimuli/face_lowercase.png","stimuli/stim008_animate_bird_4.png","stimuli/boats_lowercase.png","284"
"html-button-response-mod","294","753355","0.0-294.0","76459","","","","","","triplet","979.2000000029802","","","","2","stimuli/fish_lowercase.png","stimuli/fish_uppercase.png","stimuli/stim022_inanimate_tools_2.png","285"
"html-button-response-mod","295","755022","0.0-295.0","76459","","","","","","triplet","1151.7000000029802","","","","0","stimuli/fish_uppercase.png","stimuli/stim018_inanimate_tree_2.png","stimuli/stim009_animate_face_1.png","286"
"html-button-response-mod","296","756604","0.0-296.0","76459","","","","","","triplet","1066.800000011921","","","","0","stimuli/bird_lowercase.png","stimuli/stim016_inanimate_boats_4.png","stimuli/stim018_inanimate_tree_2.png","287"
"html-button-response-mod","297","757856","0.0-297.0","76459","","","","","","triplet","736.5","","","","0","stimuli/fish_uppercase.png","stimuli/stim013_inanimate_boats_1.png","stimuli/stim011_animate_face_3.png","288"
"html-button-response-mod","298","759456","0.0-298.0","76459","","","","","","triplet","1086.300000011921","","","","0","stimuli/fish_lowercase.png","stimuli/stim012_animate_face_4.png","stimuli/stim022_inanimate_tools_2.png","289"
"html-button-response-mod","299","761531","0.0-299.0","76459","","","","","","triplet","1560.1000000089407","","","","2","stimuli/face_lowercase.png","stimuli/fish_uppercase.png","stimuli/tree_lowercase.png","290"
"html-button-response-mod","300","763877","0.0-300.0","76459","","","","","","triplet","1830.699999988079","","","","2","stimuli/stim014_inanimate_boats_2.png","stimuli/stim022_inanimate_tools_2.png","stimuli/fish_uppercase.png","291"
"html-button-response-mod","301","765522","0.0-301.0","76459","","","","","","triplet","1129.2000000029802","","","","0","stimuli/stim023_inanimate_tools_3.png","stimuli/fish_lowercase.png","stimuli/face_uppercase.png","292"
"html-button-response-mod","302","767149","0.0-302.0","76459","","","","","","triplet","1112.0999999940395","","","","2","stimuli/stim005_animate_bird_1.png","stimuli/stim012_animate_face_4.png","stimuli/bird_lowercase.png","293"
"html-button-response-mod","303","768761","0.0-303.0","76459","","","","","","triplet","1110.6000000089407","","","","1","stimuli/stim022_inanimate_tools_2.png","stimuli/fish_lowercase.png","stimuli/stim005_animate_bird_1.png","294"
"html-button-response-mod","304","771055","0.0-304.0","76459","","","","","","triplet","1781.4000000059605","","","","1","stimuli/stim017_inanimate_tree_1.png","stimuli/stim013_inanimate_boats_1.png","stimuli/stim023_inanimate_tools_3.png","295"
"html-button-response-mod","305","773716","0.0-305.0","76459","","","","","","triplet","2143","","","","2","stimuli/stim024_inanimate_tools_4.png","stimuli/stim003_animate_fish_3.png","stimuli/tools_uppercase.png","296"
"html-button-response-mod","306","775103","0.0-306.0","76459","","","","","","triplet","874.9000000059605","","","","1","stimuli/stim007_animate_bird_3.png","stimuli/boats_uppercase.png","stimuli/stim017_inanimate_tree_1.png","297"
"html-button-response-mod","307","776627","0.0-307.0","76459","","","","","","triplet","1020.4000000059605","","","","2","stimuli/stim005_animate_bird_1.png","stimuli/stim001_animate_fish_1.png","stimuli/face_uppercase.png","298"
"html-button-response-mod","308","778019","0.0-308.0","76459","","","","","","triplet","875.4000000059605","","","","0","stimuli/tree_uppercase.png","stimuli/stim010_animate_face_2.png","stimuli/stim024_inanimate_tools_4.png","299"
"html-button-response","309","779825","0.0-309.0","76459","","","","","","break","1291.199999988079","<p>BREAK</p><p>Take a break for as long as you need</p><p>Click the button to continue</p>","0","","","","","",""
"html-button-response-mod","310","781049","0.0-310.0","76459","","","","","","triplet","1222","","","","1","stimuli/face_uppercase.png","stimuli/stim001_animate_fish_1.png","stimuli/tools_uppercase.png","300"
"html-button-response-mod","311","782334","0.0-311.0","76459","","","","","","triplet","782.5999999940395","","","","0","stimuli/stim005_animate_bird_1.png","stimuli/boats_uppercase.png","stimuli/face_uppercase.png","301"
"html-button-response-mod","312","784128","0.0-312.0","76459","","","","","","triplet","1279.5","","","","0","stimuli/tree_lowercase.png","stimuli/stim009_animate_face_1.png","stimuli/stim019_inanimate_tree_3.png","302"
"html-button-response-mod","313","785891","0.0-313.0","76459","","","","","","triplet","1248.7999999970198","","","","1","stimuli/stim010_animate_face_2.png","stimuli/stim020_inanimate_tree_4.png","stimuli/stim013_inanimate_boats_1.png","303"
"html-button-response-mod","314","787453","0.0-314.0","76459","","","","","","triplet","1046.0999999940395","","","","0","stimuli/bird_lowercase.png","stimuli/stim015_inanimate_boats_3.png","stimuli/stim020_inanimate_tree_4.png","304"
"html-button-response-mod","315","790000","0.0-315.0","76459","","","","","","triplet","2031.7000000029802","","","","0","stimuli/stim012_animate_face_4.png","stimuli/stim002_animate_fish_2.png","stimuli/stim020_inanimate_tree_4.png","305"
"html-button-response-mod","316","791661","0.0-316.0","76459","","","","","","triplet","1143.7000000029802","","","","0","stimuli/fish_uppercase.png","stimuli/stim024_inanimate_tools_4.png","stimuli/stim020_inanimate_tree_4.png","306"
"html-button-response-mod","317","793434","0.0-317.0","76459","","","","","","triplet","1270.3999999910593","","","","1","stimuli/face_uppercase.png","stimuli/stim010_animate_face_2.png","stimuli/tools_lowercase.png","307"
"html-button-response-mod","318","795406","0.0-318.0","76459","","","","","","triplet","1457.2000000029802","","","","0","stimuli/tools_uppercase.png","stimuli/stim002_animate_fish_2.png","stimuli/stim006_animate_bird_2.png","308"
"html-button-response-mod","319","797825","0.0-319.0","76459","","","","","","triplet","1916.5","","","","2","stimuli/stim010_animate_face_2.png","stimuli/stim003_animate_fish_3.png","stimuli/stim021_inanimate_tools_1.png","309"
"html-button-response-mod","320","799917","0.0-320.0","76459","","","","","","triplet","1577.4000000059605","","","","1","stimuli/stim006_animate_bird_2.png","stimuli/stim018_inanimate_tree_2.png","stimuli/stim007_animate_bird_3.png","310"
"html-button-response-mod","321","801508","0.0-321.0","76459","","","","","","triplet","1076","","","","2","stimuli/tree_uppercase.png","stimuli/bird_uppercase.png","stimuli/stim014_inanimate_boats_2.png","311"
"html-button-response-mod","322","803366","0.0-322.0","76459","","","","","","triplet","1344.199999988079","","","","0","stimuli/bird_uppercase.png","stimuli/stim007_animate_bird_3.png","stimuli/stim022_inanimate_tools_2.png","312"
"html-button-response-mod","323","804973","0.0-323.0","76459","","","","","","triplet","1092.2999999970198","","","","0","stimuli/bird_uppercase.png","stimuli/stim006_animate_bird_2.png","stimuli/stim007_animate_bird_3.png","313"
"html-button-response-mod","324","806588","0.0-324.0","76459","","","","","","triplet","1098.0999999940395","","","","2","stimuli/boats_lowercase.png","stimuli/face_uppercase.png","stimuli/stim007_animate_bird_3.png","314"
"html-button-response-mod","325","807975","0.0-325.0","76459","","","","","","triplet","872.8999999910593","","","","0","stimuli/stim015_inanimate_boats_3.png","stimuli/bird_uppercase.png","stimuli/stim003_animate_fish_3.png","315"
"html-button-response-mod","326","810426","0.0-326.0","76459","","","","","","triplet","1937.0999999940395","","","","0","stimuli/fish_uppercase.png","stimuli/stim018_inanimate_tree_2.png","stimuli/tree_uppercase.png","316"
"html-button-response-mod","327","812444","0.0-327.0","76459","","","","","","triplet","1516.5999999940395","","","","0","stimuli/boats_lowercase.png","stimuli/stim009_animate_face_1.png","stimuli/stim007_animate_bird_3.png","317"
"html-button-response-mod","328","814161","0.0-328.0","76459","","","","","","triplet","1203.2000000029802","","","","2","stimuli/tree_lowercase.png","stimuli/tools_uppercase.png","stimuli/stim014_inanimate_boats_2.png","318"
"html-button-response-mod","329","816089","0.0-329.0","76459","","","","","","triplet","1410.2000000029802","","","","2","stimuli/tools_uppercase.png","stimuli/boats_uppercase.png","stimuli/stim007_animate_bird_3.png","319"
"html-button-response-mod","330","818030","0.0-330.0","76459","","","","","","triplet","1438.4000000059605","","","","1","stimuli/stim006_animate_bird_2.png","stimuli/stim020_inanimate_tree_4.png","stimuli/stim004_animate_fish_4.png","320"
"html-button-response-mod","331","819751","0.0-331.0","76459","","","","","","triplet","1206.5","","","","2","stimuli/stim004_animate_fish_4.png","stimuli/stim012_animate_face_4.png","stimuli/bird_uppercase.png","321"
"html-button-response-mod","332","821317","0.0-332.0","76459","","","","","","triplet","1062.3999999910593","","","","1","stimuli/stim013_inanimate_boats_1.png","stimuli/fish_lowercase.png","stimuli/stim002_animate_fish_2.png","322"
"html-button-response-mod","333","822800","0.0-333.0","76459","","","","","","triplet","967.5999999940395","","","","1","stimuli/stim008_animate_bird_4.png","stimuli/tools_lowercase.png","stimuli/stim012_animate_face_4.png","323"
"html-button-response-mod","334","824522","0.0-334.0","76459","","","","","","triplet","1219.4000000059605","","","","2","stimuli/stim014_inanimate_boats_2.png","stimuli/stim013_inanimate_boats_1.png","stimuli/boats_uppercase.png","324"
"html-button-response-mod","335","825975","0.0-335.0","76459","","","","","","triplet","951.1999999880791","","","","0","stimuli/fish_lowercase.png","stimuli/stim013_inanimate_boats_1.png","stimuli/stim004_animate_fish_4.png","325"
"html-button-response-mod","336","827552","0.0-336.0","76459","","","","","","triplet","1061.9000000059605","","","","2","stimuli/bird_uppercase.png","stimuli/tree_lowercase.png","stimuli/stim020_inanimate_tree_4.png","326"
"html-button-response-mod","337","829070","0.0-337.0","76459","","","","","","triplet","1001","","","","0","stimuli/stim023_inanimate_tools_3.png","stimuli/stim012_animate_face_4.png","stimuli/stim010_animate_face_2.png","327"
"html-button-response-mod","338","831541","0.0-338.0","76459","","","","","","triplet","1956.4000000059605","","","","0","stimuli/stim017_inanimate_tree_1.png","stimuli/stim002_animate_fish_2.png","stimuli/stim007_animate_bird_3.png","328"
"html-button-response-mod","339","833258","0.0-339.0","76459","","","","","","triplet","1202.0999999940395","","","","1","stimuli/stim018_inanimate_tree_2.png","stimuli/stim009_animate_face_1.png","stimuli/stim006_animate_bird_2.png","329"
"html-button-response-mod","340","834902","0.0-340.0","76459","","","","","","triplet","1128.9000000059605","","","","2","stimuli/stim013_inanimate_boats_1.png","stimuli/stim010_animate_face_2.png","stimuli/bird_lowercase.png","330"
"html-button-response-mod","341","836401","0.0-341.0","76459","","","","","","triplet","996.6999999880791","","","","2","stimuli/stim016_inanimate_boats_4.png","stimuli/stim011_animate_face_3.png","stimuli/boats_lowercase.png","331"
"html-button-response-mod","342","837966","0.0-342.0","76459","","","","","","triplet","1049.2000000029802","","","","2","stimuli/stim006_animate_bird_2.png","stimuli/stim012_animate_face_4.png","stimuli/bird_lowercase.png","332"
"html-button-response-mod","343","839510","0.0-343.0","76459","","","","","","triplet","1042.800000011921","","","","0","stimuli/stim006_animate_bird_2.png","stimuli/bird_uppercase.png","stimuli/fish_lowercase.png","333"
"html-button-response-mod","344","841272","0.0-344.0","76459","","","","","","triplet","1260.2000000029802","","","","1","stimuli/stim011_animate_face_3.png","stimuli/stim019_inanimate_tree_3.png","stimuli/stim005_animate_bird_1.png","334"
"html-button-response-mod","345","843163","0.0-345.0","76459","","","","","","triplet","1375.9000000059605","","","","1","stimuli/tools_lowercase.png","stimuli/stim021_inanimate_tools_1.png","stimuli/stim011_animate_face_3.png","335"
"html-button-response-mod","346","845787","0.0-346.0","76459","","","","","","triplet","2109.5999999940395","","","","1","stimuli/stim020_inanimate_tree_4.png","stimuli/stim024_inanimate_tools_4.png","stimuli/stim019_inanimate_tree_3.png","336"
"html-button-response-mod","347","848009","0.0-347.0","76459","","","","","","triplet","1704.2999999970198","","","","1","stimuli/stim022_inanimate_tools_2.png","stimuli/stim004_animate_fish_4.png","stimuli/stim023_inanimate_tools_3.png","337"
"html-button-response-mod","348","849981","0.0-348.0","76459","","","","","","triplet","1455.4000000059605","","","","1","stimuli/stim005_animate_bird_1.png","stimuli/stim010_animate_face_2.png","stimuli/stim009_animate_face_1.png","338"
"html-button-response-mod","349","852387","0.0-349.0","76459","","","","","","triplet","1890.4000000059605","","","","2","stimuli/stim019_inanimate_tree_3.png","stimuli/stim016_inanimate_boats_4.png","stimuli/stim009_animate_face_1.png","339"
"html-button-response-mod","350","854088","0.0-350.0","76459","","","","","","triplet","1187.300000011921","","","","2","stimuli/stim006_animate_bird_2.png","stimuli/stim004_animate_fish_4.png","stimuli/tools_uppercase.png","340"
"html-button-response-mod","351","857133","0.0-351.0","76459","","","","","","triplet","2528.5999999940395","","","","2","stimuli/stim003_animate_fish_3.png","stimuli/stim016_inanimate_boats_4.png","stimuli/stim020_inanimate_tree_4.png","341"
"html-button-response-mod","352","858602","0.0-352.0","76459","","","","","","triplet","952.4000000059605","","","","0","stimuli/tree_uppercase.png","stimuli/stim011_animate_face_3.png","stimuli/stim002_animate_fish_2.png","342"
"html-button-response-mod","353","860274","0.0-353.0","76459","","","","","","triplet","1155.5","","","","0","stimuli/stim016_inanimate_boats_4.png","stimuli/tools_lowercase.png","stimuli/boats_uppercase.png","343"
"html-button-response-mod","354","861742","0.0-354.0","76459","","","","","","triplet","953.4000000059605","","","","1","stimuli/stim003_animate_fish_3.png","stimuli/tools_lowercase.png","stimuli/stim023_inanimate_tools_3.png","344"
"html-button-response-mod","355","863210","0.0-355.0","76459","","","","","","triplet","953","","","","0","stimuli/bird_uppercase.png","stimuli/stim017_inanimate_tree_1.png","stimuli/stim001_animate_fish_1.png","345"
"html-button-response-mod","356","865440","0.0-356.0","76459","","","","","","triplet","1715.2999999970198","","","","1","stimuli/tools_lowercase.png","stimuli/bird_lowercase.png","stimuli/fish_uppercase.png","346"
"html-button-response-mod","357","867788","0.0-357.0","76459","","","","","","triplet","1833.4000000059605","","","","2","stimuli/stim006_animate_bird_2.png","stimuli/stim003_animate_fish_3.png","stimuli/fish_uppercase.png","347"
"html-button-response-mod","358","870942","0.0-358.0","76459","","","","","","triplet","2648.1000000089407","","","","0","stimuli/tools_lowercase.png","stimuli/bird_uppercase.png","stimuli/stim002_animate_fish_2.png","348"
"html-button-response-mod","359","873202","0.0-359.0","76459","","","","","","triplet","1744.3999999910593","","","","0","stimuli/bird_lowercase.png","stimuli/stim004_animate_fish_4.png","stimuli/stim024_inanimate_tools_4.png","349"
"html-button-response","360","875020","0.0-360.0","76459","","","","","","break","1302.7000000029802","<p>BREAK</p><p>Take a break for as long as you need</p><p>Click the button to continue</p>","0","","","","","",""
"html-button-response-mod","361","875236","0.0-361.0","76459","","","","","","triplet","215.70000000298023","","","","2","stimuli/face_uppercase.png","stimuli/fish_lowercase.png","stimuli/stim001_animate_fish_1.png","350"
"html-button-response-mod","362","877612","0.0-362.0","76459","","","","","","triplet","1864.5","","","","0","stimuli/stim013_inanimate_boats_1.png","stimuli/stim021_inanimate_tools_1.png","stimuli/stim004_animate_fish_4.png","351"
"html-button-response-mod","363","880446","0.0-363.0","76459","","","","","","triplet","2318.7999999970198","","","","0","stimuli/stim004_animate_fish_4.png","stimuli/tools_uppercase.png","stimuli/tools_lowercase.png","352"
"html-button-response-mod","364","882250","0.0-364.0","76459","","","","","","triplet","1295.7000000029802","","","","0","stimuli/tools_uppercase.png","stimuli/stim020_inanimate_tree_4.png","stimuli/stim010_animate_face_2.png","353"
"html-button-response-mod","365","883476","0.0-365.0","76459","","","","","","triplet","721","","","","0","stimuli/bird_uppercase.png","stimuli/stim023_inanimate_tools_3.png","stimuli/stim004_animate_fish_4.png","354"
"html-button-response-mod","366","885226","0.0-366.0","76459","","","","","","triplet","1244.7000000029802","","","","1","stimuli/stim022_inanimate_tools_2.png","stimuli/tree_lowercase.png","stimuli/stim017_inanimate_tree_1.png","355"
"html-button-response-mod","367","886777","0.0-367.0","76459","","","","","","triplet","1047","","","","2","stimuli/stim007_animate_bird_3.png","stimuli/stim016_inanimate_boats_4.png","stimuli/stim024_inanimate_tools_4.png","356"
"html-button-response-mod","368","888174","0.0-368.0","76459","","","","","","triplet","881.0999999940395","","","","0","stimuli/stim024_inanimate_tools_4.png","stimuli/boats_uppercase.png","stimuli/stim002_animate_fish_2.png","357"
"html-button-response-mod","369","889811","0.0-369.0","76459","","","","","","triplet","1131.1000000089407","","","","2","stimuli/stim001_animate_fish_1.png","stimuli/stim004_animate_fish_4.png","stimuli/tree_uppercase.png","358"
"html-button-response-mod","370","891333","0.0-370.0","76459","","","","","","triplet","1004.6000000089407","","","","2","stimuli/stim021_inanimate_tools_1.png","stimuli/stim005_animate_bird_1.png","stimuli/boats_lowercase.png","359"
"html-button-response-mod","371","893269","0.0-371.0","76459","","","","","","triplet","1430.2999999970198","","","","0","stimuli/stim012_animate_face_4.png","stimuli/stim005_animate_bird_1.png","stimuli/stim001_animate_fish_1.png","360"
"html-button-response-mod","372","894807","0.0-372.0","76459","","","","","","triplet","1034.1000000089407","","","","2","stimuli/stim003_animate_fish_3.png","stimuli/stim021_inanimate_tools_1.png","stimuli/face_uppercase.png","361"
"html-button-response-mod","373","896250","0.0-373.0","76459","","","","","","triplet","926.7000000029802","","","","0","stimuli/stim021_inanimate_tools_1.png","stimuli/bird_uppercase.png","stimuli/stim003_animate_fish_3.png","362"
"html-button-response-mod","374","898451","0.0-374.0","76459","","","","","","triplet","1698.0999999940395","","","","2","stimuli/stim015_inanimate_boats_3.png","stimuli/stim012_animate_face_4.png","stimuli/stim021_inanimate_tools_1.png","363"
"html-button-response-mod","375","900461","0.0-375.0","76459","","","","","","triplet","1504.6000000089407","","","","2","stimuli/stim002_animate_fish_2.png","stimuli/stim009_animate_face_1.png","stimuli/tools_lowercase.png","364"
"html-button-response-mod","376","901970","0.0-376.0","76459","","","","","","triplet","1003.6999999880791","","","","0","stimuli/boats_lowercase.png","stimuli/stim004_animate_fish_4.png","stimuli/stim001_animate_fish_1.png","365"
"html-button-response-mod","377","904152","0.0-377.0","76459","","","","","","triplet","1679.0999999940395","","","","1","stimuli/stim016_inanimate_boats_4.png","stimuli/stim017_inanimate_tree_1.png","stimuli/stim012_animate_face_4.png","366"
"html-button-response-mod","378","905779","0.0-378.0","76459","","","","","","triplet","1112.5","","","","0","stimuli/fish_lowercase.png","stimuli/tree_lowercase.png","stimuli/tools_lowercase.png","367"
"html-button-response-mod","379","907625","0.0-379.0","76459","","","","","","triplet","1330.1000000089407","","","","1","stimuli/stim008_animate_bird_4.png","stimuli/stim009_animate_face_1.png","stimuli/stim006_animate_bird_2.png","368"
"html-button-response-mod","380","909110","0.0-380.0","76459","","","","","","triplet","969.0999999940395","","","","0","stimuli/fish_uppercase.png","stimuli/stim007_animate_bird_3.png","stimuli/stim001_animate_fish_1.png","369"
"html-button-response-mod","381","910716","0.0-381.0","76459","","","","","","triplet","1104.5999999940395","","","","2","stimuli/stim008_animate_bird_4.png","stimuli/stim016_inanimate_boats_4.png","stimuli/stim014_inanimate_boats_2.png","370"
"html-button-response-mod","382","914913","0.0-382.0","76459","","","","","","triplet","3681.5","","","","0","stimuli/stim019_inanimate_tree_3.png","stimuli/stim005_animate_bird_1.png","stimuli/stim006_animate_bird_2.png","371"
"html-button-response-mod","383","916585","0.0-383.0","76459","","","","","","triplet","1156.6000000089407","","","","1","stimuli/stim006_animate_bird_2.png","stimuli/boats_lowercase.png","stimuli/stim014_inanimate_boats_2.png","372"
"html-button-response-mod","384","917964","0.0-384.0","76459","","","","","","triplet","863.2999999970198","","","","0","stimuli/tools_lowercase.png","stimuli/stim002_animate_fish_2.png","stimuli/stim007_animate_bird_3.png","373"
"html-button-response-mod","385","919402","0.0-385.0","76459","","","","","","triplet","923.8999999910593","","","","0","stimuli/face_lowercase.png","stimuli/stim009_animate_face_1.png","stimuli/stim007_animate_bird_3.png","374"
"html-button-response-mod","386","921276","0.0-386.0","76459","","","","","","triplet","1358.7000000029802","","","","2","stimuli/stim009_animate_face_1.png","stimuli/stim020_inanimate_tree_4.png","stimuli/face_lowercase.png","375"
"html-button-response-mod","387","922586","0.0-387.0","76459","","","","","","triplet","808","","","","0","stimuli/stim019_inanimate_tree_3.png","stimuli/stim013_inanimate_boats_1.png","stimuli/stim012_animate_face_4.png","376"
"html-button-response-mod","388","924914","0.0-388.0","76459","","","","","","triplet","1814.2000000029802","","","","1","stimuli/stim005_animate_bird_1.png","stimuli/stim014_inanimate_boats_2.png","stimuli/stim001_animate_fish_1.png","377"
"html-button-response-mod","389","926262","0.0-389.0","76459","","","","","","triplet","844.9000000059605","","","","0","stimuli/tree_uppercase.png","stimuli/stim018_inanimate_tree_2.png","stimuli/stim009_animate_face_1.png","378"
"html-button-response-mod","390","927688","0.0-390.0","76459","","","","","","triplet","908.7999999970198","","","","2","stimuli/stim009_animate_face_1.png","stimuli/stim021_inanimate_tools_1.png","stimuli/bird_uppercase.png","379"
"html-button-response-mod","391","929530","0.0-391.0","76459","","","","","","triplet","1330.4000000059605","","","","0","stimuli/stim012_animate_face_4.png","stimuli/stim020_inanimate_tree_4.png","stimuli/stim006_animate_bird_2.png","380"
"html-button-response-mod","392","932464","0.0-392.0","76459","","","","","","triplet","2432.1000000089407","","","","0","stimuli/stim001_animate_fish_1.png","stimuli/stim008_animate_bird_4.png","stimuli/stim007_animate_bird_3.png","381"
"html-button-response-mod","393","934328","0.0-393.0","76459","","","","","","triplet","1362","","","","0","stimuli/tree_uppercase.png","stimuli/stim022_inanimate_tools_2.png","stimuli/stim023_inanimate_tools_3.png","382"
"html-button-response-mod","394","937616","0.0-394.0","76459","","","","","","triplet","2785","","","","1","stimuli/stim022_inanimate_tools_2.png","stimuli/stim006_animate_bird_2.png","stimuli/stim024_inanimate_tools_4.png","383"
"html-button-response-mod","395","940382","0.0-395.0","76459","","","","","","triplet","2250.6000000089407","","","","1","stimuli/stim022_inanimate_tools_2.png","stimuli/stim019_inanimate_tree_3.png","stimuli/tools_uppercase.png","384"
"html-button-response-mod","396","942053","0.0-396.0","76459","","","","","","triplet","1154.2000000029802","","","","2","stimuli/fish_lowercase.png","stimuli/fish_uppercase.png","stimuli/stim018_inanimate_tree_2.png","385"
"html-button-response-mod","397","945529","0.0-397.0","76459","","","","","","triplet","2973.2000000029802","","","","1","stimuli/stim001_animate_fish_1.png","stimuli/stim022_inanimate_tools_2.png","stimuli/stim006_animate_bird_2.png","386"
"html-button-response-mod","398","947045","0.0-398.0","76459","","","","","","triplet","999.7000000029802","","","","2","stimuli/stim016_inanimate_boats_4.png","stimuli/stim019_inanimate_tree_3.png","stimuli/boats_lowercase.png","387"
"html-button-response-mod","399","948515","0.0-399.0","76459","","","","","","triplet","955.5999999940395","","","","1","stimuli/stim005_animate_bird_1.png","stimuli/bird_lowercase.png","stimuli/stim006_animate_bird_2.png","388"
"html-button-response-mod","400","950280","0.0-400.0","76459","","","","","","triplet","1248.4000000059605","","","","0","stimuli/face_uppercase.png","stimuli/stim005_animate_bird_1.png","stimuli/stim019_inanimate_tree_3.png","389"
"html-button-response-mod","401","951924","0.0-401.0","76459","","","","","","triplet","1141.699999988079","","","","0","stimuli/stim011_animate_face_3.png","stimuli/stim007_animate_bird_3.png","stimuli/stim001_animate_fish_1.png","390"
"html-button-response-mod","402","953919","0.0-402.0","76459","","","","","","triplet","1483.8999999910593","","","","0","stimuli/stim010_animate_face_2.png","stimuli/stim020_inanimate_tree_4.png","stimuli/stim017_inanimate_tree_1.png","391"
"html-button-response-mod","403","955528","0.0-403.0","76459","","","","","","triplet","1095.6000000089407","","","","0","stimuli/stim018_inanimate_tree_2.png","stimuli/stim011_animate_face_3.png","stimuli/stim007_animate_bird_3.png","392"
"html-button-response-mod","404","957109","0.0-404.0","76459","","","","","","triplet","1066.2999999970198","","","","1","stimuli/stim013_inanimate_boats_1.png","stimuli/face_uppercase.png","stimuli/stim003_animate_fish_3.png","393"
"html-button-response-mod","405","959228","0.0-405.0","76459","","","","","","triplet","1617","","","","1","stimuli/stim010_animate_face_2.png","stimuli/stim022_inanimate_tools_2.png","stimuli/stim017_inanimate_tree_1.png","394"
"html-button-response-mod","406","960724","0.0-406.0","76459","","","","","","triplet","980.1000000089407","","","","1","stimuli/stim017_inanimate_tree_1.png","stimuli/tools_lowercase.png","stimuli/stim003_animate_fish_3.png","395"
"html-button-response-mod","407","962303","0.0-407.0","76459","","","","","","triplet","1065.7000000029802","","","","2","stimuli/stim022_inanimate_tools_2.png","stimuli/stim001_animate_fish_1.png","stimuli/tools_lowercase.png","396"
"html-button-response-mod","408","963991","0.0-408.0","76459","","","","","","triplet","1172.4000000059605","","","","1","stimuli/stim004_animate_fish_4.png","stimuli/stim022_inanimate_tools_2.png","stimuli/stim017_inanimate_tree_1.png","397"
"html-button-response-mod","409","965585","0.0-409.0","76459","","","","","","triplet","1079","","","","0","stimuli/stim024_inanimate_tools_4.png","stimuli/stim007_animate_bird_3.png","stimuli/stim013_inanimate_boats_1.png","398"
"html-button-response-mod","410","967363","0.0-410.0","76459","","","","","","triplet","1264.5999999940395","","","","1","stimuli/face_uppercase.png","stimuli/bird_lowercase.png","stimuli/tools_uppercase.png","399"
"html-button-response","411","969365","0.0-411.0","76459","","","","","","break","1487.6000000089407","<p>BREAK</p><p>Take a break for as long as you need</p><p>Click the button to continue</p>","0","","","","","",""
"survey-text","412","1112753","0.0-412.0","76459","","","","","","data_patterns","143372.70000000298","","{""Q0"":""yes. I tend to choose the only picture or only word as the odd one. And I tend to select the odd one from the only tool the only living animals including human. I sometimes select a very different color as the odd one  ""}","","","","","",""
"survey-text","413","1116528","0.0-413.0","76459","","","","","","age_question","3772.7999999970198","","{""Age"":""20""}","","","","","",""
"html-button-response","414","1119741","0.0-414.0","76459","","","","","","gender_question","3210.5999999940395","How would you like your gender to be recorded?","1","","","","","",""
