"trial_type","trial_index","time_elapsed","internal_node_id","subject","success","timeout","failed_images","failed_audio","failed_video","test_part","rt","stimulus","response","end_time","button_pressed","stim0","stim1","stim2","trialnr"
"pavlovia","0","84","0.0-0.0","74163","","","","","","","","","","","","","","",""
"preload","1","2412","0.0-1.0","74163","true","false","[]","[]","[]","preload","","","","","","","","",""
"html-button-response","2","4064","0.0-2.0","74163","","","","","","","1648.5","<p>Welcome to the experiment. To begin, please read the following and press the button at the bottom of the screen.</p><p></p><p><strong>Project Name: A study on cognitive processes involved in visual perception</p></strong><p></p><p><strong>PARTICIPANT INFORMATION STATEMENT</strong></p><p></p><strong>(1) What is the study about?</strong><br>You are invited to participate in a study that investigates the cognitive processes involved in perceiving and recognizing visual stimuli.If you decide to participate, you will be asked to complete a task in which you will view pictures, letters, numbers, or words presented on a computer screen.<br><strong>(2) Who can participate?</strong><br>Anyone aged 18 years or over with access to a computer (not a phone/tablet)<br><strong>(3) Where is the study located?</strong><br>The study will be conducted in your browser<br><strong>(4) Who is carrying out the study?</strong><br>The study is being conducted by Sophia Shatek from the Computational Cognitive Neuroscience laboratory at the University of Sydney.<br><strong>(5) What does the study involve?</strong><br>In this study, you will be asked to perform tasks where you will see different stimuli appear on the computer screen.You will respond by pressing a key or using a computer mouse.<br><strong>(6) How much time will the study take?</strong><br>The study takes about 30 minutes<br><strong>(7)	Can I withdraw from the study?</strong><br>Being in this study is completely voluntary - you are not under any obligation to consent. You can withdraw at any time without having to give a reason and without penalty.<br><strong>(8) Will anyone else know the results?</strong><br>All aspects of the study, including results, will be strictly confidential and only the researchers will have access to information on participants.The results and data from the study may be submitted for publication or shared with other research labs, but individual participants will not be identifiable.<br><strong>(9) Will the study benefit me?</strong><br>You will be awarded 0.5 credits for your participation.<br><strong>(10) Can I tell other people about the study?</strong><br>Yes, please tell them to contact Dr Thomas Carlson by email at thomas.carlson@sydney.edu.au.<br><strong>(11) What if I require further information about the study or my involvement in it?</strong><br>When you have read this information, the investigator will discuss it with you further and answer any questions you may have.If you would like to know more at any stage, please feel free to contact Dr Thomas Carlson directly by email at thomas.carlson@sydney.edu.au.If you would like to be informed about the outcomes of the study, contact Dr Thomas Carlson directly by email at thomas.carlson@sydney.edu.au.<br><strong>(12) What if I have a complaint or any concerns?</strong><br>Any person with concerns or complaints about the conduct of a research study can contact The Manager,Human Ethics Administration, University of Sydney on +61 2 8627 8176 (Telephone); +61 2 8627 8177 (Facsimile) or ro.humanethics@sydney.edu.au (Email).</p><p></p><strong>By participating in this experiment, you consent to participate in this study and acknowledge that:</strong><br>1. The procedures required for the project and the times involved have been explained to me, and any questions I have about the project have been answered to my satisfaction.<br>2.	I have read the Above Information Statement and have been given the opportunity to discuss the information and my involvement in the project with the researcher/s.<br>3. I understand that allowing my data to be used in research reports is completely voluntary - I am not under any obligation to consent.<br>4. I understand that my involvement is strictly confidential. I understand that any research data gathered from the results of the study may be publishedhowever no information about me will be used in any way that is identifiable.</p><p></p>","0","","","","","",""
"html-button-response","3","7903","0.0-3.0","74163","","","","","","opening_instructions","3837.7000000029802","<p>In this experiment, you will see three images appear on the screen.</p><p>You need to click the 'odd one out', or the image </p><p>that is MOST CONCEPTUALLY DIFFERENT to the other two. </p><p>(e.g., the word 'tree' and a picture of a tree are conceptually SIMILAR, </p><p> but the word 'tree' and the word 'boat' are conceptually DIFFERENT even though they look similar) </p><p>Just go with your intuition, don't spend too long thinking about each one.</p>","0","12560.199999999255","","","","",""
"html-button-response-mod","4","9284","0.0-4.0","74163","","","","","","triplet","1379","","","","0","stimuli/tree_lowercase.png","stimuli/stim005_animate_bird_1.png","stimuli/stim007_animate_bird_3.png","0"
"html-button-response-mod","5","11128","0.0-5.0","74163","","","","","","triplet","1336.699999999255","","","","0","stimuli/stim018_inanimate_tree_2.png","stimuli/stim009_animate_face_1.png","stimuli/stim011_animate_face_3.png","1"
"html-button-response-mod","6","12989","0.0-6.0","74163","","","","","","triplet","1359.5","","","","0","stimuli/boats_uppercase.png","stimuli/stim012_animate_face_4.png","stimuli/stim001_animate_fish_1.png","2"
"html-button-response-mod","7","14770","0.0-7.0","74163","","","","","","triplet","1279","","","","0","stimuli/stim011_animate_face_3.png","stimuli/stim020_inanimate_tree_4.png","stimuli/stim019_inanimate_tree_3.png","3"
"html-button-response-mod","8","23104","0.0-8.0","74163","","","","","","triplet","7827.60000000149","","","","2","stimuli/stim016_inanimate_boats_4.png","stimuli/stim022_inanimate_tools_2.png","stimuli/stim007_animate_bird_3.png","4"
"html-button-response-mod","9","26264","0.0-9.0","74163","","","","","","triplet","2653.199999999255","","","","2","stimuli/stim023_inanimate_tools_3.png","stimuli/stim018_inanimate_tree_2.png","stimuli/stim006_animate_bird_2.png","5"
"html-button-response-mod","10","28535","0.0-10.0","74163","","","","","","triplet","1763.6000000014901","","","","0","stimuli/stim023_inanimate_tools_3.png","stimuli/boats_lowercase.png","stimuli/stim004_animate_fish_4.png","6"
"html-button-response-mod","11","30636","0.0-11.0","74163","","","","","","triplet","1596.699999999255","","","","2","stimuli/stim003_animate_fish_3.png","stimuli/stim014_inanimate_boats_2.png","stimuli/tree_lowercase.png","7"
"html-button-response-mod","12","32312","0.0-12.0","74163","","","","","","triplet","1169.1000000014901","","","","0","stimuli/tree_uppercase.png","stimuli/stim015_inanimate_boats_3.png","stimuli/stim008_animate_bird_4.png","8"
"html-button-response-mod","13","34833","0.0-13.0","74163","","","","","","triplet","2015.2999999970198","","","","1","stimuli/fish_uppercase.png","stimuli/stim023_inanimate_tools_3.png","stimuli/stim013_inanimate_boats_1.png","9"
"html-button-response-mod","14","39598","0.0-14.0","74163","","","","","","triplet","4259.800000000745","","","","2","stimuli/stim013_inanimate_boats_1.png","stimuli/face_uppercase.png","stimuli/stim023_inanimate_tools_3.png","10"
"html-button-response-mod","15","42117","0.0-15.0","74163","","","","","","triplet","2011.4000000022352","","","","1","stimuli/stim005_animate_bird_1.png","stimuli/stim012_animate_face_4.png","stimuli/fish_lowercase.png","11"
"html-button-response-mod","16","44324","0.0-16.0","74163","","","","","","triplet","1701.1000000014901","","","","1","stimuli/stim013_inanimate_boats_1.png","stimuli/stim004_animate_fish_4.png","stimuli/stim015_inanimate_boats_3.png","12"
"html-button-response-mod","17","48808","0.0-17.0","74163","","","","","","triplet","3979.7999999970198","","","","1","stimuli/fish_lowercase.png","stimuli/face_lowercase.png","stimuli/stim021_inanimate_tools_1.png","13"
"html-button-response-mod","18","51809","0.0-18.0","74163","","","","","","triplet","2494.89999999851","","","","0","stimuli/face_uppercase.png","stimuli/stim020_inanimate_tree_4.png","stimuli/stim006_animate_bird_2.png","14"
"html-button-response-mod","19","55403","0.0-19.0","74163","","","","","","triplet","3089.400000002235","","","","0","stimuli/tools_lowercase.png","stimuli/stim007_animate_bird_3.png","stimuli/tree_lowercase.png","15"
"html-button-response-mod","20","60996","0.0-20.0","74163","","","","","","triplet","5086","","","","2","stimuli/stim018_inanimate_tree_2.png","stimuli/stim003_animate_fish_3.png","stimuli/stim010_animate_face_2.png","16"
"html-button-response-mod","21","62961","0.0-21.0","74163","","","","","","triplet","1461.300000000745","","","","1","stimuli/stim016_inanimate_boats_4.png","stimuli/face_lowercase.png","stimuli/stim006_animate_bird_2.png","17"
"html-button-response-mod","22","65914","0.0-22.0","74163","","","","","","triplet","2446.599999997765","","","","0","stimuli/stim009_animate_face_1.png","stimuli/stim017_inanimate_tree_1.png","stimuli/stim003_animate_fish_3.png","18"
"html-button-response-mod","23","68874","0.0-23.0","74163","","","","","","triplet","2453.5","","","","2","stimuli/stim006_animate_bird_2.png","stimuli/stim007_animate_bird_3.png","stimuli/stim008_animate_bird_4.png","19"
"html-button-response-mod","24","72034","0.0-24.0","74163","","","","","","triplet","2656.2999999970198","","","","0","stimuli/tree_lowercase.png","stimuli/stim014_inanimate_boats_2.png","stimuli/stim015_inanimate_boats_3.png","20"
"html-button-response-mod","25","74970","0.0-25.0","74163","","","","","","triplet","2431.699999999255","","","","0","stimuli/stim016_inanimate_boats_4.png","stimuli/stim019_inanimate_tree_3.png","stimuli/bird_uppercase.png","21"
"html-button-response-mod","26","77891","0.0-26.0","74163","","","","","","triplet","2414.2000000029802","","","","2","stimuli/stim017_inanimate_tree_1.png","stimuli/bird_lowercase.png","stimuli/boats_uppercase.png","22"
"html-button-response-mod","27","81493","0.0-27.0","74163","","","","","","triplet","3096.2000000029802","","","","1","stimuli/bird_lowercase.png","stimuli/stim015_inanimate_boats_3.png","stimuli/stim004_animate_fish_4.png","23"
"html-button-response-mod","28","84438","0.0-28.0","74163","","","","","","triplet","2438.7999999970198","","","","0","stimuli/stim024_inanimate_tools_4.png","stimuli/stim009_animate_face_1.png","stimuli/face_lowercase.png","24"
"html-button-response-mod","29","86300","0.0-29.0","74163","","","","","","triplet","1355.2999999970198","","","","1","stimuli/tools_lowercase.png","stimuli/stim014_inanimate_boats_2.png","stimuli/stim022_inanimate_tools_2.png","25"
"html-button-response-mod","30","89052","0.0-30.0","74163","","","","","","triplet","2246.400000002235","","","","1","stimuli/stim001_animate_fish_1.png","stimuli/boats_uppercase.png","stimuli/stim017_inanimate_tree_1.png","26"
"html-button-response-mod","31","91193","0.0-31.0","74163","","","","","","triplet","1634.9000000022352","","","","2","stimuli/stim008_animate_bird_4.png","stimuli/stim014_inanimate_boats_2.png","stimuli/face_lowercase.png","27"
"html-button-response-mod","32","94243","0.0-32.0","74163","","","","","","triplet","2543.800000000745","","","","1","stimuli/boats_lowercase.png","stimuli/bird_uppercase.png","stimuli/stim014_inanimate_boats_2.png","28"
"html-button-response-mod","33","97492","0.0-33.0","74163","","","","","","triplet","2742.300000000745","","","","1","stimuli/stim024_inanimate_tools_4.png","stimuli/bird_uppercase.png","stimuli/stim015_inanimate_boats_3.png","29"
"html-button-response-mod","34","107357","0.0-34.0","74163","","","","","","triplet","9360.599999997765","","","","2","stimuli/tools_lowercase.png","stimuli/stim022_inanimate_tools_2.png","stimuli/stim007_animate_bird_3.png","30"
"html-button-response-mod","35","115340","0.0-35.0","74163","","","","","","triplet","7478.199999999255","","","","1","stimuli/tools_lowercase.png","stimuli/stim002_animate_fish_2.png","stimuli/tools_uppercase.png","31"
"html-button-response-mod","36","119173","0.0-36.0","74163","","","","","","triplet","3330.39999999851","","","","0","stimuli/stim011_animate_face_3.png","stimuli/stim018_inanimate_tree_2.png","stimuli/bird_lowercase.png","32"
"html-button-response-mod","37","126002","0.0-37.0","74163","","","","","","triplet","6323.20000000298","","","","1","stimuli/bird_lowercase.png","stimuli/stim023_inanimate_tools_3.png","stimuli/stim020_inanimate_tree_4.png","33"
"html-button-response-mod","38","127612","0.0-38.0","74163","","","","","","triplet","1103.7000000029802","","","","2","stimuli/stim009_animate_face_1.png","stimuli/stim010_animate_face_2.png","stimuli/stim008_animate_bird_4.png","34"
"html-button-response-mod","39","130703","0.0-39.0","74163","","","","","","triplet","2586.099999997765","","","","2","stimuli/fish_uppercase.png","stimuli/boats_uppercase.png","stimuli/stim011_animate_face_3.png","35"
"html-button-response-mod","40","132700","0.0-40.0","74163","","","","","","triplet","1491.5","","","","2","stimuli/tools_uppercase.png","stimuli/fish_uppercase.png","stimuli/stim012_animate_face_4.png","36"
"html-button-response-mod","41","136423","0.0-41.0","74163","","","","","","triplet","3216.39999999851","","","","1","stimuli/tools_lowercase.png","stimuli/face_uppercase.png","stimuli/stim022_inanimate_tools_2.png","37"
"html-button-response-mod","42","140819","0.0-42.0","74163","","","","","","triplet","3890.300000000745","","","","0","stimuli/tools_uppercase.png","stimuli/stim009_animate_face_1.png","stimuli/tree_uppercase.png","38"
"html-button-response-mod","43","145000","0.0-43.0","74163","","","","","","triplet","3675.300000000745","","","","1","stimuli/fish_lowercase.png","stimuli/stim021_inanimate_tools_1.png","stimuli/stim007_animate_bird_3.png","39"
"html-button-response-mod","44","147792","0.0-44.0","74163","","","","","","triplet","2285.89999999851","","","","0","stimuli/stim012_animate_face_4.png","stimuli/stim021_inanimate_tools_1.png","stimuli/stim020_inanimate_tree_4.png","40"
"html-button-response-mod","45","152917","0.0-45.0","74163","","","","","","triplet","4619.5","","","","2","stimuli/stim015_inanimate_boats_3.png","stimuli/tools_uppercase.png","stimuli/stim009_animate_face_1.png","41"
"html-button-response-mod","46","153985","0.0-46.0","74163","","","","","","triplet","560.8000000007451","","","","2","stimuli/stim016_inanimate_boats_4.png","stimuli/stim014_inanimate_boats_2.png","stimuli/bird_lowercase.png","42"
"html-button-response-mod","47","154884","0.0-47.0","74163","","","","","","triplet","396","","","","2","stimuli/stim008_animate_bird_4.png","stimuli/stim002_animate_fish_2.png","stimuli/stim017_inanimate_tree_1.png","43"
"html-button-response-mod","48","155943","0.0-48.0","74163","","","","","","triplet","555.6000000014901","","","","2","stimuli/tree_uppercase.png","stimuli/fish_uppercase.png","stimuli/stim017_inanimate_tree_1.png","44"
"html-button-response-mod","49","157852","0.0-49.0","74163","","","","","","triplet","1402.9000000022352","","","","1","stimuli/bird_uppercase.png","stimuli/tree_uppercase.png","stimuli/stim001_animate_fish_1.png","45"
"html-button-response-mod","50","160186","0.0-50.0","74163","","","","","","triplet","1829.199999999255","","","","2","stimuli/tools_lowercase.png","stimuli/fish_uppercase.png","stimuli/face_uppercase.png","46"
"html-button-response-mod","51","161831","0.0-51.0","74163","","","","","","triplet","1139.199999999255","","","","2","stimuli/stim006_animate_bird_2.png","stimuli/stim005_animate_bird_1.png","stimuli/stim012_animate_face_4.png","47"
"html-button-response-mod","52","163164","0.0-52.0","74163","","","","","","triplet","829.6000000014901","","","","1","stimuli/stim008_animate_bird_4.png","stimuli/face_uppercase.png","stimuli/stim006_animate_bird_2.png","48"
"html-button-response-mod","53","165282","0.0-53.0","74163","","","","","","triplet","1611.5","","","","2","stimuli/stim020_inanimate_tree_4.png","stimuli/stim002_animate_fish_2.png","stimuli/face_uppercase.png","49"
"html-button-response","54","166719","0.0-54.0","74163","","","","","","break","931","<p>BREAK</p><p>Take a break for as long as you need</p><p>Click the button to continue</p>","0","","","","","",""
"html-button-response-mod","55","168130","0.0-55.0","74163","","","","","","triplet","1409.8999999985099","","","","0","stimuli/stim024_inanimate_tools_4.png","stimuli/stim019_inanimate_tree_3.png","stimuli/tree_lowercase.png","50"
"html-button-response-mod","56","169800","0.0-56.0","74163","","","","","","triplet","1162.5","","","","2","stimuli/fish_lowercase.png","stimuli/stim002_animate_fish_2.png","stimuli/tree_lowercase.png","51"
"html-button-response-mod","57","173859","0.0-57.0","74163","","","","","","triplet","3556.699999999255","","","","0","stimuli/stim010_animate_face_2.png","stimuli/stim001_animate_fish_1.png","stimuli/tree_lowercase.png","52"
"html-button-response-mod","58","180438","0.0-58.0","74163","","","","","","triplet","6073.400000002235","","","","2","stimuli/stim016_inanimate_boats_4.png","stimuli/stim010_animate_face_2.png","stimuli/bird_uppercase.png","53"
"html-button-response-mod","59","182548","0.0-59.0","74163","","","","","","triplet","1602.800000000745","","","","1","stimuli/fish_lowercase.png","stimuli/stim010_animate_face_2.png","stimuli/stim007_animate_bird_3.png","54"
"html-button-response-mod","60","183928","0.0-60.0","74163","","","","","","triplet","873.6999999992549","","","","1","stimuli/stim002_animate_fish_2.png","stimuli/tree_lowercase.png","stimuli/stim020_inanimate_tree_4.png","55"
"html-button-response-mod","61","185902","0.0-61.0","74163","","","","","","triplet","1469.9000000022352","","","","2","stimuli/stim018_inanimate_tree_2.png","stimuli/stim022_inanimate_tools_2.png","stimuli/stim011_animate_face_3.png","56"
"html-button-response-mod","62","187618","0.0-62.0","74163","","","","","","triplet","1210.0999999977648","","","","2","stimuli/stim006_animate_bird_2.png","stimuli/stim003_animate_fish_3.png","stimuli/stim021_inanimate_tools_1.png","57"
"html-button-response-mod","63","189986","0.0-63.0","74163","","","","","","triplet","1864.6000000014901","","","","1","stimuli/boats_lowercase.png","stimuli/bird_uppercase.png","stimuli/stim023_inanimate_tools_3.png","58"
"html-button-response-mod","64","192521","0.0-64.0","74163","","","","","","triplet","2031.6000000014901","","","","1","stimuli/stim010_animate_face_2.png","stimuli/boats_lowercase.png","stimuli/face_uppercase.png","59"
"html-button-response-mod","65","194647","0.0-65.0","74163","","","","","","triplet","1620","","","","2","stimuli/stim019_inanimate_tree_3.png","stimuli/bird_uppercase.png","stimuli/tools_lowercase.png","60"
"html-button-response-mod","66","196612","0.0-66.0","74163","","","","","","triplet","1459.1000000014901","","","","1","stimuli/stim013_inanimate_boats_1.png","stimuli/tools_uppercase.png","stimuli/stim011_animate_face_3.png","61"
"html-button-response-mod","67","198955","0.0-67.0","74163","","","","","","triplet","1837.3999999985099","","","","1","stimuli/stim008_animate_bird_4.png","stimuli/stim009_animate_face_1.png","stimuli/stim003_animate_fish_3.png","62"
"html-button-response-mod","68","200776","0.0-68.0","74163","","","","","","triplet","1314.800000000745","","","","1","stimuli/bird_uppercase.png","stimuli/stim012_animate_face_4.png","stimuli/stim008_animate_bird_4.png","63"
"html-button-response-mod","69","202388","0.0-69.0","74163","","","","","","triplet","1106","","","","2","stimuli/boats_uppercase.png","stimuli/stim013_inanimate_boats_1.png","stimuli/stim001_animate_fish_1.png","64"
"html-button-response-mod","70","204314","0.0-70.0","74163","","","","","","triplet","1421.5","","","","1","stimuli/face_lowercase.png","stimuli/stim022_inanimate_tools_2.png","stimuli/stim014_inanimate_boats_2.png","65"
"html-button-response-mod","71","208012","0.0-71.0","74163","","","","","","triplet","3191.39999999851","","","","0","stimuli/stim019_inanimate_tree_3.png","stimuli/stim003_animate_fish_3.png","stimuli/stim013_inanimate_boats_1.png","66"
"html-button-response-mod","72","211077","0.0-72.0","74163","","","","","","triplet","2559.400000002235","","","","2","stimuli/stim001_animate_fish_1.png","stimuli/fish_uppercase.png","stimuli/face_uppercase.png","67"
"html-button-response-mod","73","212787","0.0-73.0","74163","","","","","","triplet","1203.1000000014901","","","","1","stimuli/stim023_inanimate_tools_3.png","stimuli/bird_uppercase.png","stimuli/stim022_inanimate_tools_2.png","68"
"html-button-response-mod","74","214847","0.0-74.0","74163","","","","","","triplet","1554.3999999985099","","","","2","stimuli/stim022_inanimate_tools_2.png","stimuli/stim012_animate_face_4.png","stimuli/bird_uppercase.png","69"
"html-button-response-mod","75","215675","0.0-75.0","74163","","","","","","triplet","321.3999999985099","","","","2","stimuli/stim008_animate_bird_4.png","stimuli/face_uppercase.png","stimuli/stim002_animate_fish_2.png","70"
"html-button-response-mod","76","216805","0.0-76.0","74163","","","","","","triplet","623.5","","","","2","stimuli/stim017_inanimate_tree_1.png","stimuli/stim015_inanimate_boats_3.png","stimuli/face_uppercase.png","71"
"html-button-response-mod","77","217472","0.0-77.0","74163","","","","","","triplet","164.20000000298023","","","","0","stimuli/stim018_inanimate_tree_2.png","stimuli/face_uppercase.png","stimuli/tree_lowercase.png","72"
"html-button-response-mod","78","219702","0.0-78.0","74163","","","","","","triplet","1725.5","","","","2","stimuli/fish_uppercase.png","stimuli/stim002_animate_fish_2.png","stimuli/face_uppercase.png","73"
"html-button-response-mod","79","228750","0.0-79.0","74163","","","","","","triplet","8541.5","","","","2","stimuli/stim008_animate_bird_4.png","stimuli/stim020_inanimate_tree_4.png","stimuli/face_uppercase.png","74"
"html-button-response-mod","80","229425","0.0-80.0","74163","","","","","","triplet","173.59999999776483","","","","2","stimuli/stim021_inanimate_tools_1.png","stimuli/stim003_animate_fish_3.png","stimuli/stim010_animate_face_2.png","75"
"html-button-response-mod","81","230091","0.0-81.0","74163","","","","","","triplet","161.09999999776483","","","","2","stimuli/fish_uppercase.png","stimuli/stim007_animate_bird_3.png","stimuli/face_uppercase.png","76"
"html-button-response-mod","82","230645","0.0-82.0","74163","","","","","","triplet","49.80000000074506","","","","2","stimuli/stim010_animate_face_2.png","stimuli/stim014_inanimate_boats_2.png","stimuli/bird_lowercase.png","77"
"html-button-response-mod","83","231619","0.0-83.0","74163","","","","","","triplet","472.19999999925494","","","","2","stimuli/stim013_inanimate_boats_1.png","stimuli/stim020_inanimate_tree_4.png","stimuli/stim002_animate_fish_2.png","78"
"html-button-response-mod","84","232239","0.0-84.0","74163","","","","","","triplet","113","","","","1","stimuli/stim001_animate_fish_1.png","stimuli/boats_uppercase.png","stimuli/tree_uppercase.png","79"
"html-button-response-mod","85","233998","0.0-85.0","74163","","","","","","triplet","1252.3999999985099","","","","0","stimuli/tools_lowercase.png","stimuli/boats_uppercase.png","stimuli/bird_uppercase.png","80"
"html-button-response-mod","86","234558","0.0-86.0","74163","","","","","","triplet","54.099999997764826","","","","0","stimuli/stim020_inanimate_tree_4.png","stimuli/stim022_inanimate_tools_2.png","stimuli/stim010_animate_face_2.png","81"
"html-button-response-mod","87","235481","0.0-87.0","74163","","","","","","triplet","415.69999999925494","","","","1","stimuli/stim024_inanimate_tools_4.png","stimuli/boats_uppercase.png","stimuli/face_lowercase.png","82"
"html-button-response-mod","88","236148","0.0-88.0","74163","","","","","","triplet","161.69999999925494","","","","2","stimuli/stim005_animate_bird_1.png","stimuli/tools_lowercase.png","stimuli/bird_uppercase.png","83"
"html-button-response-mod","89","236910","0.0-89.0","74163","","","","","","triplet","258.5","","","","1","stimuli/stim011_animate_face_3.png","stimuli/tree_uppercase.png","stimuli/fish_lowercase.png","84"
"html-button-response-mod","90","237771","0.0-90.0","74163","","","","","","triplet","353.9000000022352","","","","1","stimuli/tree_lowercase.png","stimuli/stim019_inanimate_tree_3.png","stimuli/tree_uppercase.png","85"
"html-button-response-mod","91","241306","0.0-91.0","74163","","","","","","triplet","3032.800000000745","","","","2","stimuli/stim003_animate_fish_3.png","stimuli/fish_lowercase.png","stimuli/stim021_inanimate_tools_1.png","86"
"html-button-response-mod","92","241963","0.0-92.0","74163","","","","","","triplet","155","","","","0","stimuli/stim015_inanimate_boats_3.png","stimuli/tools_lowercase.png","stimuli/fish_lowercase.png","87"
"html-button-response-mod","93","242516","0.0-93.0","74163","","","","","","triplet","46.5","","","","0","stimuli/tools_uppercase.png","stimuli/bird_uppercase.png","stimuli/stim022_inanimate_tools_2.png","88"
"html-button-response-mod","94","243167","0.0-94.0","74163","","","","","","triplet","149.19999999925494","","","","0","stimuli/stim012_animate_face_4.png","stimuli/stim024_inanimate_tools_4.png","stimuli/stim011_animate_face_3.png","89"
"html-button-response-mod","95","243818","0.0-95.0","74163","","","","","","triplet","148.59999999776483","","","","0","stimuli/stim010_animate_face_2.png","stimuli/stim020_inanimate_tree_4.png","stimuli/stim016_inanimate_boats_4.png","90"
"html-button-response-mod","96","244379","0.0-96.0","74163","","","","","","triplet","59","","","","0","stimuli/face_lowercase.png","stimuli/fish_uppercase.png","stimuli/tools_uppercase.png","91"
"html-button-response-mod","97","245020","0.0-97.0","74163","","","","","","triplet","134.89999999850988","","","","0","stimuli/tree_uppercase.png","stimuli/stim016_inanimate_boats_4.png","stimuli/stim014_inanimate_boats_2.png","92"
"html-button-response-mod","98","245574","0.0-98.0","74163","","","","","","triplet","47.900000002235174","","","","0","stimuli/stim024_inanimate_tools_4.png","stimuli/stim015_inanimate_boats_3.png","stimuli/stim007_animate_bird_3.png","93"
"html-button-response-mod","99","246249","0.0-99.0","74163","","","","","","triplet","169.89999999850988","","","","0","stimuli/face_lowercase.png","stimuli/tools_uppercase.png","stimuli/stim010_animate_face_2.png","94"
"html-button-response-mod","100","246768","0.0-100.0","74163","","","","","","triplet","16.300000000745058","","","","0","stimuli/tools_lowercase.png","stimuli/boats_uppercase.png","stimuli/fish_lowercase.png","95"
"html-button-response-mod","101","247412","0.0-101.0","74163","","","","","","triplet","139.5","","","","2","stimuli/stim003_animate_fish_3.png","stimuli/stim007_animate_bird_3.png","stimuli/stim004_animate_fish_4.png","96"
"html-button-response-mod","102","248110","0.0-102.0","74163","","","","","","triplet","193.60000000149012","","","","2","stimuli/stim020_inanimate_tree_4.png","stimuli/stim007_animate_bird_3.png","stimuli/stim002_animate_fish_2.png","97"
"html-button-response-mod","103","248976","0.0-103.0","74163","","","","","","triplet","361.0999999977648","","","","1","stimuli/stim006_animate_bird_2.png","stimuli/face_uppercase.png","stimuli/stim015_inanimate_boats_3.png","98"
"html-button-response-mod","104","249642","0.0-104.0","74163","","","","","","triplet","164.19999999925494","","","","0","stimuli/face_uppercase.png","stimuli/stim018_inanimate_tree_2.png","stimuli/fish_lowercase.png","99"
"html-button-response","105","251047","0.0-105.0","74163","","","","","","break","898","<p>BREAK</p><p>Take a break for as long as you need</p><p>Click the button to continue</p>","0","","","","","",""
"html-button-response-mod","106","252562","0.0-106.0","74163","","","","","","triplet","1513.2999999970198","","","","1","stimuli/fish_lowercase.png","stimuli/stim020_inanimate_tree_4.png","stimuli/stim012_animate_face_4.png","100"
"html-button-response-mod","107","253075","0.0-107.0","74163","","","","","","triplet","7","","","","0","stimuli/stim024_inanimate_tools_4.png","stimuli/tools_uppercase.png","stimuli/stim005_animate_bird_1.png","101"
"html-button-response-mod","108","253629","0.0-108.0","74163","","","","","","triplet","49.5","","","","0","stimuli/face_lowercase.png","stimuli/stim021_inanimate_tools_1.png","stimuli/bird_lowercase.png","102"
"html-button-response-mod","109","254143","0.0-109.0","74163","","","","","","triplet","6.200000002980232","","","","0","stimuli/stim016_inanimate_boats_4.png","stimuli/fish_lowercase.png","stimuli/stim022_inanimate_tools_2.png","103"
"html-button-response-mod","110","254769","0.0-110.0","74163","","","","","","triplet","118.90000000223517","","","","0","stimuli/tools_lowercase.png","stimuli/fish_lowercase.png","stimuli/stim021_inanimate_tools_1.png","104"
"html-button-response-mod","111","255627","0.0-111.0","74163","","","","","","triplet","354.8999999985099","","","","1","stimuli/boats_lowercase.png","stimuli/stim010_animate_face_2.png","stimuli/face_lowercase.png","105"
"html-button-response-mod","112","256141","0.0-112.0","74163","","","","","","triplet","7.5","","","","2","stimuli/tools_lowercase.png","stimuli/stim009_animate_face_1.png","stimuli/face_lowercase.png","106"
"html-button-response-mod","113","257222","0.0-113.0","74163","","","","","","triplet","575.3000000007451","","","","2","stimuli/stim014_inanimate_boats_2.png","stimuli/stim009_animate_face_1.png","stimuli/stim004_animate_fish_4.png","107"
"html-button-response-mod","114","257744","0.0-114.0","74163","","","","","","triplet","15.199999999254942","","","","2","stimuli/tree_lowercase.png","stimuli/boats_uppercase.png","stimuli/stim016_inanimate_boats_4.png","108"
"html-button-response-mod","115","258282","0.0-115.0","74163","","","","","","triplet","34.30000000074506","","","","1","stimuli/stim022_inanimate_tools_2.png","stimuli/tree_lowercase.png","stimuli/stim010_animate_face_2.png","109"
"html-button-response-mod","116","262046","0.0-116.0","74163","","","","","","triplet","3259.599999997765","","","","1","stimuli/stim021_inanimate_tools_1.png","stimuli/fish_uppercase.png","stimuli/stim013_inanimate_boats_1.png","110"
"html-button-response-mod","117","264019","0.0-117.0","74163","","","","","","triplet","1469.5","","","","0","stimuli/tree_uppercase.png","stimuli/stim001_animate_fish_1.png","stimuli/stim002_animate_fish_2.png","111"
"html-button-response-mod","118","266738","0.0-118.0","74163","","","","","","triplet","2214.300000000745","","","","0","stimuli/stim023_inanimate_tools_3.png","stimuli/boats_lowercase.png","stimuli/stim007_animate_bird_3.png","112"
"html-button-response-mod","119","269539","0.0-119.0","74163","","","","","","triplet","2295.699999999255","","","","0","stimuli/stim015_inanimate_boats_3.png","stimuli/tree_uppercase.png","stimuli/stim007_animate_bird_3.png","113"
"html-button-response-mod","120","272490","0.0-120.0","74163","","","","","","triplet","2446.2000000029802","","","","0","stimuli/stim002_animate_fish_2.png","stimuli/stim007_animate_bird_3.png","stimuli/bird_uppercase.png","114"
"html-button-response-mod","121","277204","0.0-121.0","74163","","","","","","triplet","4207.800000000745","","","","2","stimuli/stim008_animate_bird_4.png","stimuli/stim007_animate_bird_3.png","stimuli/fish_lowercase.png","115"
"html-button-response-mod","122","279202","0.0-122.0","74163","","","","","","triplet","1492.199999999255","","","","2","stimuli/face_uppercase.png","stimuli/stim010_animate_face_2.png","stimuli/tree_uppercase.png","116"
"html-button-response-mod","123","282420","0.0-123.0","74163","","","","","","triplet","2712.10000000149","","","","0","stimuli/face_lowercase.png","stimuli/stim021_inanimate_tools_1.png","stimuli/stim023_inanimate_tools_3.png","117"
"html-button-response-mod","124","282942","0.0-124.0","74163","","","","","","triplet","16.699999999254942","","","","0","stimuli/boats_lowercase.png","stimuli/bird_lowercase.png","stimuli/stim004_animate_fish_4.png","118"
"html-button-response-mod","125","287105","0.0-125.0","74163","","","","","","triplet","3657.5","","","","2","stimuli/stim019_inanimate_tree_3.png","stimuli/fish_uppercase.png","stimuli/stim024_inanimate_tools_4.png","119"
"html-button-response-mod","126","291891","0.0-126.0","74163","","","","","","triplet","4280.10000000149","","","","0","stimuli/stim011_animate_face_3.png","stimuli/stim008_animate_bird_4.png","stimuli/stim020_inanimate_tree_4.png","120"
"html-button-response-mod","127","292413","0.0-127.0","74163","","","","","","triplet","16.399999998509884","","","","0","stimuli/stim003_animate_fish_3.png","stimuli/fish_uppercase.png","stimuli/tree_lowercase.png","121"
"html-button-response-mod","128","292982","0.0-128.0","74163","","","","","","triplet","65.5","","","","0","stimuli/stim005_animate_bird_1.png","stimuli/tree_lowercase.png","stimuli/stim002_animate_fish_2.png","122"
"html-button-response-mod","129","293512","0.0-129.0","74163","","","","","","triplet","24.600000001490116","","","","0","stimuli/stim010_animate_face_2.png","stimuli/stim020_inanimate_tree_4.png","stimuli/stim019_inanimate_tree_3.png","123"
"html-button-response-mod","130","294040","0.0-130.0","74163","","","","","","triplet","24","","","","0","stimuli/boats_lowercase.png","stimuli/stim015_inanimate_boats_3.png","stimuli/stim008_animate_bird_4.png","124"
"html-button-response-mod","131","294573","0.0-131.0","74163","","","","","","triplet","26.100000001490116","","","","2","stimuli/stim015_inanimate_boats_3.png","stimuli/stim012_animate_face_4.png","stimuli/stim014_inanimate_boats_2.png","125"
"html-button-response-mod","132","295180","0.0-132.0","74163","","","","","","triplet","104","","","","2","stimuli/stim023_inanimate_tools_3.png","stimuli/fish_lowercase.png","stimuli/stim006_animate_bird_2.png","126"
"html-button-response-mod","133","295798","0.0-133.0","74163","","","","","","triplet","114.30000000074506","","","","2","stimuli/stim020_inanimate_tree_4.png","stimuli/stim009_animate_face_1.png","stimuli/stim010_animate_face_2.png","127"
"html-button-response-mod","134","296360","0.0-134.0","74163","","","","","","triplet","56.600000001490116","","","","2","stimuli/stim006_animate_bird_2.png","stimuli/stim015_inanimate_boats_3.png","stimuli/stim018_inanimate_tree_2.png","128"
"html-button-response-mod","135","296938","0.0-135.0","74163","","","","","","triplet","72.79999999701977","","","","2","stimuli/stim002_animate_fish_2.png","stimuli/stim011_animate_face_3.png","stimuli/stim018_inanimate_tree_2.png","129"
"html-button-response-mod","136","297497","0.0-136.0","74163","","","","","","triplet","54.30000000074506","","","","2","stimuli/fish_uppercase.png","stimuli/boats_lowercase.png","stimuli/stim023_inanimate_tools_3.png","130"
"html-button-response-mod","137","298021","0.0-137.0","74163","","","","","","triplet","17.599999997764826","","","","2","stimuli/stim023_inanimate_tools_3.png","stimuli/tools_uppercase.png","stimuli/stim010_animate_face_2.png","131"
"html-button-response-mod","138","298533","0.0-138.0","74163","","","","","","triplet","6.799999997019768","","","","2","stimuli/stim007_animate_bird_3.png","stimuli/boats_lowercase.png","stimuli/stim014_inanimate_boats_2.png","132"
"html-button-response-mod","139","299112","0.0-139.0","74163","","","","","","triplet","73","","","","2","stimuli/fish_lowercase.png","stimuli/tree_uppercase.png","stimuli/stim007_animate_bird_3.png","133"
"html-button-response-mod","140","302674","0.0-140.0","74163","","","","","","triplet","3058.60000000149","","","","2","stimuli/fish_lowercase.png","stimuli/face_lowercase.png","stimuli/bird_uppercase.png","134"
"html-button-response-mod","141","304742","0.0-141.0","74163","","","","","","triplet","1561","","","","1","stimuli/stim012_animate_face_4.png","stimuli/stim019_inanimate_tree_3.png","stimuli/face_lowercase.png","135"
"html-button-response-mod","142","307856","0.0-142.0","74163","","","","","","triplet","2609.5","","","","0","stimuli/stim023_inanimate_tools_3.png","stimuli/tree_lowercase.png","stimuli/stim015_inanimate_boats_3.png","136"
"html-button-response-mod","143","309614","0.0-143.0","74163","","","","","","triplet","1251.0999999977648","","","","2","stimuli/stim004_animate_fish_4.png","stimuli/stim018_inanimate_tree_2.png","stimuli/stim011_animate_face_3.png","137"
"html-button-response-mod","144","311450","0.0-144.0","74163","","","","","","triplet","1333.800000000745","","","","1","stimuli/stim021_inanimate_tools_1.png","stimuli/stim008_animate_bird_4.png","stimuli/tools_uppercase.png","138"
"html-button-response-mod","145","315541","0.0-145.0","74163","","","","","","triplet","3588.900000002235","","","","1","stimuli/stim015_inanimate_boats_3.png","stimuli/stim011_animate_face_3.png","stimuli/stim006_animate_bird_2.png","139"
"html-button-response-mod","146","317035","0.0-146.0","74163","","","","","","triplet","991.2000000029802","","","","1","stimuli/stim003_animate_fish_3.png","stimuli/stim024_inanimate_tools_4.png","stimuli/stim019_inanimate_tree_3.png","140"
"html-button-response-mod","147","317740","0.0-147.0","74163","","","","","","triplet","201.30000000074506","","","","2","stimuli/fish_lowercase.png","stimuli/stim022_inanimate_tools_2.png","stimuli/stim021_inanimate_tools_1.png","141"
"html-button-response-mod","148","318294","0.0-148.0","74163","","","","","","triplet","46.19999999925494","","","","1","stimuli/stim006_animate_bird_2.png","stimuli/stim022_inanimate_tools_2.png","stimuli/stim017_inanimate_tree_1.png","142"
"html-button-response-mod","149","319183","0.0-149.0","74163","","","","","","triplet","384.19999999925494","","","","2","stimuli/tools_lowercase.png","stimuli/stim008_animate_bird_4.png","stimuli/stim013_inanimate_boats_1.png","143"
"html-button-response-mod","150","319826","0.0-150.0","74163","","","","","","triplet","139.90000000223517","","","","2","stimuli/stim003_animate_fish_3.png","stimuli/tools_uppercase.png","stimuli/stim021_inanimate_tools_1.png","144"
"html-button-response-mod","151","320372","0.0-151.0","74163","","","","","","triplet","40.5","","","","2","stimuli/stim003_animate_fish_3.png","stimuli/stim008_animate_bird_4.png","stimuli/fish_lowercase.png","145"
"html-button-response-mod","152","320895","0.0-152.0","74163","","","","","","triplet","18","","","","2","stimuli/stim008_animate_bird_4.png","stimuli/bird_uppercase.png","stimuli/face_lowercase.png","146"
"html-button-response-mod","153","321406","0.0-153.0","74163","","","","","","triplet","7.099999997764826","","","","2","stimuli/stim003_animate_fish_3.png","stimuli/stim017_inanimate_tree_1.png","stimuli/fish_uppercase.png","147"
"html-button-response-mod","154","323140","0.0-154.0","74163","","","","","","triplet","1228.6000000014901","","","","2","stimuli/stim021_inanimate_tools_1.png","stimuli/stim022_inanimate_tools_2.png","stimuli/bird_lowercase.png","148"
"html-button-response-mod","155","324767","0.0-155.0","74163","","","","","","triplet","1121.6000000014901","","","","0","stimuli/stim019_inanimate_tree_3.png","stimuli/stim022_inanimate_tools_2.png","stimuli/stim023_inanimate_tools_3.png","149"
"html-button-response","156","326470","0.0-156.0","74163","","","","","","break","1196.8999999985099","<p>BREAK</p><p>Take a break for as long as you need</p><p>Click the button to continue</p>","0","","","","","",""
"html-button-response-mod","157","328107","0.0-157.0","74163","","","","","","triplet","1634.5","","","","2","stimuli/stim003_animate_fish_3.png","stimuli/boats_lowercase.png","stimuli/stim010_animate_face_2.png","150"
"html-button-response-mod","158","328627","0.0-158.0","74163","","","","","","triplet","13.800000000745058","","","","2","stimuli/stim001_animate_fish_1.png","stimuli/boats_uppercase.png","stimuli/stim021_inanimate_tools_1.png","151"
"html-button-response-mod","159","330159","0.0-159.0","74163","","","","","","triplet","1024.5","","","","1","stimuli/stim019_inanimate_tree_3.png","stimuli/stim023_inanimate_tools_3.png","stimuli/stim013_inanimate_boats_1.png","152"
"html-button-response-mod","160","330720","0.0-160.0","74163","","","","","","triplet","56","","","","1","stimuli/stim011_animate_face_3.png","stimuli/stim010_animate_face_2.png","stimuli/stim005_animate_bird_1.png","153"
"html-button-response-mod","161","331259","0.0-161.0","74163","","","","","","triplet","31.599999997764826","","","","2","stimuli/bird_uppercase.png","stimuli/stim011_animate_face_3.png","stimuli/stim023_inanimate_tools_3.png","154"
"html-button-response-mod","162","332126","0.0-162.0","74163","","","","","","triplet","364.4000000022352","","","","0","stimuli/stim016_inanimate_boats_4.png","stimuli/boats_lowercase.png","stimuli/face_lowercase.png","155"
"html-button-response-mod","163","332749","0.0-163.0","74163","","","","","","triplet","118.19999999925494","","","","2","stimuli/stim015_inanimate_boats_3.png","stimuli/stim006_animate_bird_2.png","stimuli/stim002_animate_fish_2.png","156"
"html-button-response-mod","164","333262","0.0-164.0","74163","","","","","","triplet","9.600000001490116","","","","2","stimuli/stim001_animate_fish_1.png","stimuli/stim011_animate_face_3.png","stimuli/stim013_inanimate_boats_1.png","157"
"html-button-response-mod","165","333849","0.0-165.0","74163","","","","","","triplet","79.80000000074506","","","","2","stimuli/stim023_inanimate_tools_3.png","stimuli/face_uppercase.png","stimuli/tools_uppercase.png","158"
"html-button-response-mod","166","334411","0.0-166.0","74163","","","","","","triplet","56.29999999701977","","","","2","stimuli/bird_uppercase.png","stimuli/stim007_animate_bird_3.png","stimuli/bird_lowercase.png","159"
"html-button-response-mod","167","335013","0.0-167.0","74163","","","","","","triplet","95.09999999776483","","","","2","stimuli/stim005_animate_bird_1.png","stimuli/stim015_inanimate_boats_3.png","stimuli/stim021_inanimate_tools_1.png","160"
"html-button-response-mod","168","335606","0.0-168.0","74163","","","","","","triplet","88.40000000223517","","","","2","stimuli/stim012_animate_face_4.png","stimuli/tree_lowercase.png","stimuli/stim002_animate_fish_2.png","161"
"html-button-response-mod","169","336144","0.0-169.0","74163","","","","","","triplet","32.399999998509884","","","","2","stimuli/stim018_inanimate_tree_2.png","stimuli/stim001_animate_fish_1.png","stimuli/face_uppercase.png","162"
"html-button-response-mod","170","337860","0.0-170.0","74163","","","","","","triplet","1210.3999999985099","","","","0","stimuli/stim020_inanimate_tree_4.png","stimuli/stim002_animate_fish_2.png","stimuli/stim024_inanimate_tools_4.png","163"
"html-button-response-mod","171","338510","0.0-171.0","74163","","","","","","triplet","148.80000000074506","","","","0","stimuli/stim014_inanimate_boats_2.png","stimuli/stim022_inanimate_tools_2.png","stimuli/stim015_inanimate_boats_3.png","164"
"html-button-response-mod","172","339241","0.0-172.0","74163","","","","","","triplet","228.80000000074506","","","","2","stimuli/tools_lowercase.png","stimuli/face_lowercase.png","stimuli/stim015_inanimate_boats_3.png","165"
"html-button-response-mod","173","339995","0.0-173.0","74163","","","","","","triplet","252.30000000074506","","","","0","stimuli/face_uppercase.png","stimuli/stim012_animate_face_4.png","stimuli/stim013_inanimate_boats_1.png","166"
"html-button-response-mod","174","340572","0.0-174.0","74163","","","","","","triplet","69.30000000074506","","","","1","stimuli/boats_uppercase.png","stimuli/stim019_inanimate_tree_3.png","stimuli/bird_lowercase.png","167"
"html-button-response-mod","175","341197","0.0-175.0","74163","","","","","","triplet","119.90000000223517","","","","0","stimuli/stim020_inanimate_tree_4.png","stimuli/stim017_inanimate_tree_1.png","stimuli/stim012_animate_face_4.png","168"
"html-button-response-mod","176","341727","0.0-176.0","74163","","","","","","triplet","23.800000000745058","","","","1","stimuli/tools_lowercase.png","stimuli/boats_uppercase.png","stimuli/tools_uppercase.png","169"
"html-button-response-mod","177","342411","0.0-177.0","74163","","","","","","triplet","181","","","","0","stimuli/face_uppercase.png","stimuli/boats_uppercase.png","stimuli/stim016_inanimate_boats_4.png","170"
"html-button-response-mod","178","342956","0.0-178.0","74163","","","","","","triplet","43.30000000074506","","","","1","stimuli/bird_uppercase.png","stimuli/stim020_inanimate_tree_4.png","stimuli/fish_lowercase.png","171"
"html-button-response-mod","179","343479","0.0-179.0","74163","","","","","","triplet","20.700000002980232","","","","0","stimuli/stim022_inanimate_tools_2.png","stimuli/tools_lowercase.png","stimuli/stim016_inanimate_boats_4.png","172"
"html-button-response-mod","180","344053","0.0-180.0","74163","","","","","","triplet","71.19999999925494","","","","0","stimuli/face_lowercase.png","stimuli/stim012_animate_face_4.png","stimuli/stim003_animate_fish_3.png","173"
"html-button-response-mod","181","344696","0.0-181.0","74163","","","","","","triplet","138.60000000149012","","","","1","stimuli/fish_lowercase.png","stimuli/tools_lowercase.png","stimuli/tree_uppercase.png","174"
"html-button-response-mod","182","345715","0.0-182.0","74163","","","","","","triplet","513.5","","","","0","stimuli/boats_lowercase.png","stimuli/tree_lowercase.png","stimuli/stim010_animate_face_2.png","175"
"html-button-response-mod","183","346975","0.0-183.0","74163","","","","","","triplet","757.6000000014901","","","","2","stimuli/stim005_animate_bird_1.png","stimuli/fish_uppercase.png","stimuli/face_uppercase.png","176"
"html-button-response-mod","184","347721","0.0-184.0","74163","","","","","","triplet","240.10000000149012","","","","2","stimuli/stim015_inanimate_boats_3.png","stimuli/boats_uppercase.png","stimuli/boats_lowercase.png","177"
"html-button-response-mod","185","348306","0.0-185.0","74163","","","","","","triplet","80.5","","","","2","stimuli/stim011_animate_face_3.png","stimuli/stim014_inanimate_boats_2.png","stimuli/stim017_inanimate_tree_1.png","178"
"html-button-response-mod","186","348828","0.0-186.0","74163","","","","","","triplet","20.300000000745058","","","","2","stimuli/stim012_animate_face_4.png","stimuli/stim023_inanimate_tools_3.png","stimuli/stim005_animate_bird_1.png","179"
"html-button-response-mod","187","349381","0.0-187.0","74163","","","","","","triplet","48.100000001490116","","","","2","stimuli/tree_uppercase.png","stimuli/bird_uppercase.png","stimuli/stim002_animate_fish_2.png","180"
"html-button-response-mod","188","349912","0.0-188.0","74163","","","","","","triplet","25","","","","2","stimuli/stim004_animate_fish_4.png","stimuli/stim021_inanimate_tools_1.png","stimuli/stim009_animate_face_1.png","181"
"html-button-response-mod","189","350649","0.0-189.0","74163","","","","","","triplet","233.90000000223517","","","","2","stimuli/face_uppercase.png","stimuli/stim002_animate_fish_2.png","stimuli/stim007_animate_bird_3.png","182"
"html-button-response-mod","190","351322","0.0-190.0","74163","","","","","","triplet","169","","","","2","stimuli/stim022_inanimate_tools_2.png","stimuli/stim016_inanimate_boats_4.png","stimuli/stim017_inanimate_tree_1.png","183"
"html-button-response-mod","191","352069","0.0-191.0","74163","","","","","","triplet","243.30000000074506","","","","2","stimuli/stim003_animate_fish_3.png","stimuli/stim021_inanimate_tools_1.png","stimuli/face_uppercase.png","184"
"html-button-response-mod","192","352806","0.0-192.0","74163","","","","","","triplet","230.19999999925494","","","","2","stimuli/tree_lowercase.png","stimuli/stim005_animate_bird_1.png","stimuli/stim012_animate_face_4.png","185"
"html-button-response-mod","193","353865","0.0-193.0","74163","","","","","","triplet","557","","","","2","stimuli/stim024_inanimate_tools_4.png","stimuli/stim016_inanimate_boats_4.png","stimuli/stim003_animate_fish_3.png","186"
"html-button-response-mod","194","356881","0.0-194.0","74163","","","","","","triplet","2509.5","","","","0","stimuli/stim022_inanimate_tools_2.png","stimuli/stim005_animate_bird_1.png","stimuli/boats_lowercase.png","187"
"html-button-response-mod","195","360028","0.0-195.0","74163","","","","","","triplet","2643","","","","2","stimuli/stim014_inanimate_boats_2.png","stimuli/stim024_inanimate_tools_4.png","stimuli/face_lowercase.png","188"
"html-button-response-mod","196","360926","0.0-196.0","74163","","","","","","triplet","393.1000000014901","","","","1","stimuli/tools_uppercase.png","stimuli/boats_uppercase.png","stimuli/face_lowercase.png","189"
"html-button-response-mod","197","361527","0.0-197.0","74163","","","","","","triplet","93.89999999850988","","","","1","stimuli/stim019_inanimate_tree_3.png","stimuli/stim009_animate_face_1.png","stimuli/stim022_inanimate_tools_2.png","190"
"html-button-response-mod","198","362208","0.0-198.0","74163","","","","","","triplet","179.09999999776483","","","","1","stimuli/stim005_animate_bird_1.png","stimuli/tree_uppercase.png","stimuli/stim011_animate_face_3.png","191"
"html-button-response-mod","199","362787","0.0-199.0","74163","","","","","","triplet","75","","","","0","stimuli/tools_uppercase.png","stimuli/stim007_animate_bird_3.png","stimuli/stim024_inanimate_tools_4.png","192"
"html-button-response-mod","200","363316","0.0-200.0","74163","","","","","","triplet","24.200000002980232","","","","0","stimuli/stim008_animate_bird_4.png","stimuli/stim022_inanimate_tools_2.png","stimuli/stim014_inanimate_boats_2.png","193"
"html-button-response-mod","201","363871","0.0-201.0","74163","","","","","","triplet","48.899999998509884","","","","0","stimuli/stim001_animate_fish_1.png","stimuli/bird_lowercase.png","stimuli/fish_uppercase.png","194"
"html-button-response-mod","202","364463","0.0-202.0","74163","","","","","","triplet","89.80000000074506","","","","1","stimuli/face_uppercase.png","stimuli/stim004_animate_fish_4.png","stimuli/stim001_animate_fish_1.png","195"
"html-button-response-mod","203","365089","0.0-203.0","74163","","","","","","triplet","123.5","","","","0","stimuli/stim011_animate_face_3.png","stimuli/boats_uppercase.png","stimuli/stim008_animate_bird_4.png","196"
"html-button-response-mod","204","365634","0.0-204.0","74163","","","","","","triplet","39.80000000074506","","","","0","stimuli/stim021_inanimate_tools_1.png","stimuli/boats_uppercase.png","stimuli/stim009_animate_face_1.png","197"
"html-button-response-mod","205","366211","0.0-205.0","74163","","","","","","triplet","70.60000000149012","","","","0","stimuli/stim006_animate_bird_2.png","stimuli/stim001_animate_fish_1.png","stimuli/stim023_inanimate_tools_3.png","198"
"html-button-response-mod","206","366958","0.0-206.0","74163","","","","","","triplet","244.89999999850988","","","","1","stimuli/tools_uppercase.png","stimuli/stim006_animate_bird_2.png","stimuli/boats_lowercase.png","199"
"html-button-response","207","370754","0.0-207.0","74163","","","","","","break","3294.300000000745","<p>BREAK</p><p>Take a break for as long as you need</p><p>Click the button to continue</p>","0","","","","","",""
"html-button-response-mod","208","372991","0.0-208.0","74163","","","","","","triplet","2235","","","","1","stimuli/tools_lowercase.png","stimuli/stim013_inanimate_boats_1.png","stimuli/tree_uppercase.png","200"
"html-button-response-mod","209","373553","0.0-209.0","74163","","","","","","triplet","56.80000000074506","","","","2","stimuli/tree_lowercase.png","stimuli/stim015_inanimate_boats_3.png","stimuli/boats_lowercase.png","201"
"html-button-response-mod","210","376288","0.0-210.0","74163","","","","","","triplet","2232.5","","","","2","stimuli/face_lowercase.png","stimuli/stim022_inanimate_tools_2.png","stimuli/fish_uppercase.png","202"
"html-button-response-mod","211","376800","0.0-211.0","74163","","","","","","triplet","6.600000001490116","","","","2","stimuli/stim003_animate_fish_3.png","stimuli/tools_uppercase.png","stimuli/stim015_inanimate_boats_3.png","203"
"html-button-response-mod","212","377387","0.0-212.0","74163","","","","","","triplet","83.39999999850988","","","","2","stimuli/stim020_inanimate_tree_4.png","stimuli/stim024_inanimate_tools_4.png","stimuli/stim012_animate_face_4.png","204"
"html-button-response-mod","213","377907","0.0-213.0","74163","","","","","","triplet","13.300000000745058","","","","2","stimuli/tree_lowercase.png","stimuli/stim016_inanimate_boats_4.png","stimuli/bird_uppercase.png","205"
"html-button-response-mod","214","386853","0.0-214.0","74163","","","","","","triplet","8440.800000000745","","","","2","stimuli/stim023_inanimate_tools_3.png","stimuli/tools_uppercase.png","stimuli/stim002_animate_fish_2.png","206"
"html-button-response-mod","215","387390","0.0-215.0","74163","","","","","","triplet","31.5","","","","2","stimuli/stim018_inanimate_tree_2.png","stimuli/tree_lowercase.png","stimuli/stim010_animate_face_2.png","207"
"html-button-response-mod","216","391000","0.0-216.0","74163","","","","","","triplet","3107.199999999255","","","","2","stimuli/stim003_animate_fish_3.png","stimuli/stim014_inanimate_boats_2.png","stimuli/stim022_inanimate_tools_2.png","208"
"html-button-response-mod","217","391683","0.0-217.0","74163","","","","","","triplet","180","","","","2","stimuli/stim014_inanimate_boats_2.png","stimuli/tools_lowercase.png","stimuli/tools_uppercase.png","209"
"html-button-response-mod","218","392324","0.0-218.0","74163","","","","","","triplet","136.09999999776483","","","","2","stimuli/stim012_animate_face_4.png","stimuli/stim023_inanimate_tools_3.png","stimuli/stim019_inanimate_tree_3.png","210"
"html-button-response-mod","219","392885","0.0-219.0","74163","","","","","","triplet","56.900000002235174","","","","2","stimuli/stim011_animate_face_3.png","stimuli/stim013_inanimate_boats_1.png","stimuli/stim006_animate_bird_2.png","211"
"html-button-response-mod","220","393447","0.0-220.0","74163","","","","","","triplet","57.100000001490116","","","","2","stimuli/stim003_animate_fish_3.png","stimuli/boats_uppercase.png","stimuli/fish_lowercase.png","212"
"html-button-response-mod","221","394073","0.0-221.0","74163","","","","","","triplet","120.5","","","","2","stimuli/boats_uppercase.png","stimuli/stim013_inanimate_boats_1.png","stimuli/stim023_inanimate_tools_3.png","213"
"html-button-response-mod","222","394691","0.0-222.0","74163","","","","","","triplet","112.19999999925494","","","","2","stimuli/stim011_animate_face_3.png","stimuli/stim015_inanimate_boats_3.png","stimuli/fish_lowercase.png","214"
"html-button-response-mod","223","395324","0.0-223.0","74163","","","","","","triplet","128.5","","","","2","stimuli/stim017_inanimate_tree_1.png","stimuli/stim016_inanimate_boats_4.png","stimuli/fish_uppercase.png","215"
"html-button-response-mod","224","396151","0.0-224.0","74163","","","","","","triplet","323.79999999701977","","","","2","stimuli/fish_uppercase.png","stimuli/stim016_inanimate_boats_4.png","stimuli/tools_uppercase.png","216"
"html-button-response-mod","225","396696","0.0-225.0","74163","","","","","","triplet","40.79999999701977","","","","2","stimuli/fish_lowercase.png","stimuli/boats_uppercase.png","stimuli/stim023_inanimate_tools_3.png","217"
"html-button-response-mod","226","397459","0.0-226.0","74163","","","","","","triplet","259.19999999925494","","","","2","stimuli/stim003_animate_fish_3.png","stimuli/stim015_inanimate_boats_3.png","stimuli/stim012_animate_face_4.png","218"
"html-button-response-mod","227","398076","0.0-227.0","74163","","","","","","triplet","112.39999999850988","","","","2","stimuli/stim011_animate_face_3.png","stimuli/fish_lowercase.png","stimuli/stim020_inanimate_tree_4.png","219"
"html-button-response-mod","228","398821","0.0-228.0","74163","","","","","","triplet","242","","","","2","stimuli/fish_lowercase.png","stimuli/stim014_inanimate_boats_2.png","stimuli/tree_uppercase.png","220"
"html-button-response-mod","229","399334","0.0-229.0","74163","","","","","","triplet","6.5","","","","2","stimuli/stim002_animate_fish_2.png","stimuli/face_lowercase.png","stimuli/stim006_animate_bird_2.png","221"
"html-button-response-mod","230","399897","0.0-230.0","74163","","","","","","triplet","59.900000002235174","","","","2","stimuli/fish_lowercase.png","stimuli/stim010_animate_face_2.png","stimuli/stim005_animate_bird_1.png","222"
"html-button-response-mod","231","402143","0.0-231.0","74163","","","","","","triplet","1741","","","","2","stimuli/stim022_inanimate_tools_2.png","stimuli/stim020_inanimate_tree_4.png","stimuli/tools_uppercase.png","223"
"html-button-response-mod","232","402681","0.0-232.0","74163","","","","","","triplet","32.80000000074506","","","","2","stimuli/bird_uppercase.png","stimuli/stim017_inanimate_tree_1.png","stimuli/boats_lowercase.png","224"
"html-button-response-mod","233","403242","0.0-233.0","74163","","","","","","triplet","55.29999999701977","","","","2","stimuli/stim018_inanimate_tree_2.png","stimuli/stim019_inanimate_tree_3.png","stimuli/stim009_animate_face_1.png","225"
"html-button-response-mod","234","403876","0.0-234.0","74163","","","","","","triplet","129.09999999776483","","","","2","stimuli/stim016_inanimate_boats_4.png","stimuli/stim019_inanimate_tree_3.png","stimuli/stim020_inanimate_tree_4.png","226"
"html-button-response-mod","235","406589","0.0-235.0","74163","","","","","","triplet","2210.599999997765","","","","2","stimuli/face_lowercase.png","stimuli/stim009_animate_face_1.png","stimuli/stim006_animate_bird_2.png","227"
"html-button-response-mod","236","408827","0.0-236.0","74163","","","","","","triplet","1732.2999999970198","","","","1","stimuli/stim013_inanimate_boats_1.png","stimuli/stim010_animate_face_2.png","stimuli/fish_uppercase.png","228"
"html-button-response-mod","237","411194","0.0-237.0","74163","","","","","","triplet","1860.0999999977648","","","","1","stimuli/stim017_inanimate_tree_1.png","stimuli/stim009_animate_face_1.png","stimuli/stim001_animate_fish_1.png","229"
"html-button-response-mod","238","415209","0.0-238.0","74163","","","","","","triplet","3508.5","","","","2","stimuli/stim002_animate_fish_2.png","stimuli/bird_uppercase.png","stimuli/stim016_inanimate_boats_4.png","230"
"html-button-response-mod","239","417007","0.0-239.0","74163","","","","","","triplet","1291.7999999970198","","","","1","stimuli/stim004_animate_fish_4.png","stimuli/stim005_animate_bird_1.png","stimuli/fish_uppercase.png","231"
"html-button-response-mod","240","417665","0.0-240.0","74163","","","","","","triplet","155.80000000074506","","","","1","stimuli/stim010_animate_face_2.png","stimuli/stim005_animate_bird_1.png","stimuli/stim009_animate_face_1.png","232"
"html-button-response-mod","241","418876","0.0-241.0","74163","","","","","","triplet","704.5999999977648","","","","2","stimuli/stim015_inanimate_boats_3.png","stimuli/stim014_inanimate_boats_2.png","stimuli/tools_uppercase.png","233"
"html-button-response-mod","242","419453","0.0-242.0","74163","","","","","","triplet","73.90000000223517","","","","2","stimuli/stim004_animate_fish_4.png","stimuli/stim001_animate_fish_1.png","stimuli/stim002_animate_fish_2.png","234"
"html-button-response-mod","243","420000","0.0-243.0","74163","","","","","","triplet","42.399999998509884","","","","2","stimuli/stim024_inanimate_tools_4.png","stimuli/stim013_inanimate_boats_1.png","stimuli/stim011_animate_face_3.png","235"
"html-button-response-mod","244","420545","0.0-244.0","74163","","","","","","triplet","39.399999998509884","","","","2","stimuli/stim017_inanimate_tree_1.png","stimuli/stim002_animate_fish_2.png","stimuli/tree_uppercase.png","236"
"html-button-response-mod","245","421188","0.0-245.0","74163","","","","","","triplet","135.60000000149012","","","","2","stimuli/stim002_animate_fish_2.png","stimuli/boats_lowercase.png","stimuli/stim021_inanimate_tools_1.png","237"
"html-button-response-mod","246","428610","0.0-246.0","74163","","","","","","triplet","6918.89999999851","","","","1","stimuli/tools_lowercase.png","stimuli/stim001_animate_fish_1.png","stimuli/tools_uppercase.png","238"
"html-button-response-mod","247","431153","0.0-247.0","74163","","","","","","triplet","2036.699999999255","","","","0","stimuli/stim017_inanimate_tree_1.png","stimuli/stim013_inanimate_boats_1.png","stimuli/fish_lowercase.png","239"
"html-button-response-mod","248","433223","0.0-248.0","74163","","","","","","triplet","1565.5","","","","2","stimuli/face_lowercase.png","stimuli/bird_lowercase.png","stimuli/stim014_inanimate_boats_2.png","240"
"html-button-response-mod","249","436527","0.0-249.0","74163","","","","","","triplet","2797.300000000745","","","","1","stimuli/stim017_inanimate_tree_1.png","stimuli/tools_uppercase.png","stimuli/stim014_inanimate_boats_2.png","241"
"html-button-response-mod","250","438565","0.0-250.0","74163","","","","","","triplet","1530.699999999255","","","","2","stimuli/stim002_animate_fish_2.png","stimuli/stim020_inanimate_tree_4.png","stimuli/face_lowercase.png","242"
"html-button-response-mod","251","440065","0.0-251.0","74163","","","","","","triplet","997.8000000007451","","","","2","stimuli/stim007_animate_bird_3.png","stimuli/stim004_animate_fish_4.png","stimuli/boats_uppercase.png","243"
"html-button-response-mod","252","443307","0.0-252.0","74163","","","","","","triplet","2736","","","","2","stimuli/fish_lowercase.png","stimuli/stim013_inanimate_boats_1.png","stimuli/bird_lowercase.png","244"
"html-button-response-mod","253","445457","0.0-253.0","74163","","","","","","triplet","1643","","","","0","stimuli/bird_uppercase.png","stimuli/stim018_inanimate_tree_2.png","stimuli/stim020_inanimate_tree_4.png","245"
"html-button-response-mod","254","447374","0.0-254.0","74163","","","","","","triplet","1411.7999999970198","","","","0","stimuli/stim018_inanimate_tree_2.png","stimuli/bird_lowercase.png","stimuli/stim008_animate_bird_4.png","246"
"html-button-response-mod","255","449002","0.0-255.0","74163","","","","","","triplet","1121.5","","","","0","stimuli/boats_lowercase.png","stimuli/stim007_animate_bird_3.png","stimuli/stim018_inanimate_tree_2.png","247"
"html-button-response-mod","256","451914","0.0-256.0","74163","","","","","","triplet","2405.89999999851","","","","2","stimuli/boats_uppercase.png","stimuli/face_lowercase.png","stimuli/stim006_animate_bird_2.png","248"
"html-button-response-mod","257","454047","0.0-257.0","74163","","","","","","triplet","1627.300000000745","","","","1","stimuli/boats_lowercase.png","stimuli/stim024_inanimate_tools_4.png","stimuli/stim004_animate_fish_4.png","249"
"html-button-response","258","455492","0.0-258.0","74163","","","","","","break","938.5999999977648","<p>BREAK</p><p>Take a break for as long as you need</p><p>Click the button to continue</p>","0","","","","","",""
"html-button-response-mod","259","468529","0.0-259.0","74163","","","","","","triplet","13034.60000000149","","","","2","stimuli/stim014_inanimate_boats_2.png","stimuli/stim011_animate_face_3.png","stimuli/tree_lowercase.png","250"
"html-button-response-mod","260","469097","0.0-260.0","74163","","","","","","triplet","62.600000001490116","","","","2","stimuli/tools_lowercase.png","stimuli/stim022_inanimate_tools_2.png","stimuli/stim010_animate_face_2.png","251"
"html-button-response-mod","261","469723","0.0-261.0","74163","","","","","","triplet","121","","","","2","stimuli/stim021_inanimate_tools_1.png","stimuli/stim015_inanimate_boats_3.png","stimuli/stim002_animate_fish_2.png","252"
"html-button-response-mod","262","470550","0.0-262.0","74163","","","","","","triplet","324.5999999977648","","","","2","stimuli/fish_lowercase.png","stimuli/stim020_inanimate_tree_4.png","stimuli/tools_uppercase.png","253"
"html-button-response-mod","263","472404","0.0-263.0","74163","","","","","","triplet","1347.8999999985099","","","","1","stimuli/stim013_inanimate_boats_1.png","stimuli/face_uppercase.png","stimuli/stim007_animate_bird_3.png","254"
"html-button-response-mod","264","473037","0.0-264.0","74163","","","","","","triplet","131","","","","2","stimuli/stim006_animate_bird_2.png","stimuli/tools_lowercase.png","stimuli/boats_uppercase.png","255"
"html-button-response-mod","265","473559","0.0-265.0","74163","","","","","","triplet","18.699999999254942","","","","1","stimuli/bird_uppercase.png","stimuli/boats_lowercase.png","stimuli/tools_lowercase.png","256"
"html-button-response-mod","266","474145","0.0-266.0","74163","","","","","","triplet","81.5","","","","2","stimuli/stim012_animate_face_4.png","stimuli/stim013_inanimate_boats_1.png","stimuli/stim023_inanimate_tools_3.png","257"
"html-button-response-mod","267","474802","0.0-267.0","74163","","","","","","triplet","153.89999999850988","","","","1","stimuli/stim008_animate_bird_4.png","stimuli/stim020_inanimate_tree_4.png","stimuli/stim010_animate_face_2.png","258"
"html-button-response-mod","268","475316","0.0-268.0","74163","","","","","","triplet","12.199999999254942","","","","1","stimuli/stim016_inanimate_boats_4.png","stimuli/stim015_inanimate_boats_3.png","stimuli/fish_lowercase.png","259"
"html-button-response-mod","269","476023","0.0-269.0","74163","","","","","","triplet","202.10000000149012","","","","2","stimuli/stim021_inanimate_tools_1.png","stimuli/stim004_animate_fish_4.png","stimuli/stim007_animate_bird_3.png","260"
"html-button-response-mod","270","476937","0.0-270.0","74163","","","","","","triplet","410.9000000022352","","","","1","stimuli/stim001_animate_fish_1.png","stimuli/stim016_inanimate_boats_4.png","stimuli/stim009_animate_face_1.png","261"
"html-button-response-mod","271","477844","0.0-271.0","74163","","","","","","triplet","403.30000000074506","","","","2","stimuli/stim021_inanimate_tools_1.png","stimuli/stim008_animate_bird_4.png","stimuli/tree_uppercase.png","262"
"html-button-response-mod","272","478478","0.0-272.0","74163","","","","","","triplet","128.5","","","","2","stimuli/face_uppercase.png","stimuli/bird_uppercase.png","stimuli/stim018_inanimate_tree_2.png","263"
"html-button-response-mod","273","479016","0.0-273.0","74163","","","","","","triplet","31","","","","2","stimuli/bird_lowercase.png","stimuli/face_lowercase.png","stimuli/stim010_animate_face_2.png","264"
"html-button-response-mod","274","479528","0.0-274.0","74163","","","","","","triplet","6.399999998509884","","","","1","stimuli/face_lowercase.png","stimuli/stim010_animate_face_2.png","stimuli/stim019_inanimate_tree_3.png","265"
"html-button-response-mod","275","480130","0.0-275.0","74163","","","","","","triplet","95.5","","","","1","stimuli/boats_lowercase.png","stimuli/tree_uppercase.png","stimuli/stim023_inanimate_tools_3.png","266"
"html-button-response-mod","276","480675","0.0-276.0","74163","","","","","","triplet","42.79999999701977","","","","1","stimuli/stim014_inanimate_boats_2.png","stimuli/stim017_inanimate_tree_1.png","stimuli/tree_uppercase.png","267"
"html-button-response-mod","277","481262","0.0-277.0","74163","","","","","","triplet","82.89999999850988","","","","2","stimuli/stim005_animate_bird_1.png","stimuli/face_lowercase.png","stimuli/stim001_animate_fish_1.png","268"
"html-button-response-mod","278","481816","0.0-278.0","74163","","","","","","triplet","47.70000000298023","","","","1","stimuli/stim020_inanimate_tree_4.png","stimuli/stim011_animate_face_3.png","stimuli/fish_uppercase.png","269"
"html-button-response-mod","279","482360","0.0-279.0","74163","","","","","","triplet","38.900000002235174","","","","2","stimuli/stim017_inanimate_tree_1.png","stimuli/stim024_inanimate_tools_4.png","stimuli/stim014_inanimate_boats_2.png","270"
"html-button-response-mod","280","486211","0.0-280.0","74163","","","","","","triplet","3347.60000000149","","","","0","stimuli/bird_uppercase.png","stimuli/stim006_animate_bird_2.png","stimuli/face_lowercase.png","271"
"html-button-response-mod","281","487930","0.0-281.0","74163","","","","","","triplet","1211.6000000014901","","","","0","stimuli/stim007_animate_bird_3.png","stimuli/stim015_inanimate_boats_3.png","stimuli/face_uppercase.png","272"
"html-button-response-mod","282","488449","0.0-282.0","74163","","","","","","triplet","14.399999998509884","","","","0","stimuli/stim008_animate_bird_4.png","stimuli/fish_lowercase.png","stimuli/stim001_animate_fish_1.png","273"
"html-button-response-mod","283","489013","0.0-283.0","74163","","","","","","triplet","56.30000000074506","","","","0","stimuli/stim006_animate_bird_2.png","stimuli/tools_uppercase.png","stimuli/tree_lowercase.png","274"
"html-button-response-mod","284","489558","0.0-284.0","74163","","","","","","triplet","40.099999997764826","","","","0","stimuli/stim018_inanimate_tree_2.png","stimuli/stim015_inanimate_boats_3.png","stimuli/stim024_inanimate_tools_4.png","275"
"html-button-response-mod","285","491354","0.0-285.0","74163","","","","","","triplet","1290.4000000022352","","","","2","stimuli/bird_lowercase.png","stimuli/tools_lowercase.png","stimuli/stim013_inanimate_boats_1.png","276"
"html-button-response-mod","286","491884","0.0-286.0","74163","","","","","","triplet","25.099999997764826","","","","2","stimuli/stim019_inanimate_tree_3.png","stimuli/tools_uppercase.png","stimuli/face_lowercase.png","277"
"html-button-response-mod","287","492583","0.0-287.0","74163","","","","","","triplet","192","","","","2","stimuli/stim012_animate_face_4.png","stimuli/bird_uppercase.png","stimuli/fish_uppercase.png","278"
"html-button-response-mod","288","496495","0.0-288.0","74163","","","","","","triplet","3408.800000000745","","","","2","stimuli/tools_lowercase.png","stimuli/bird_lowercase.png","stimuli/tree_uppercase.png","279"
"html-button-response-mod","289","497891","0.0-289.0","74163","","","","","","triplet","888.7000000029802","","","","2","stimuli/stim003_animate_fish_3.png","stimuli/stim010_animate_face_2.png","stimuli/face_uppercase.png","280"
"html-button-response-mod","290","498420","0.0-290.0","74163","","","","","","triplet","27.299999997019768","","","","2","stimuli/stim024_inanimate_tools_4.png","stimuli/stim011_animate_face_3.png","stimuli/stim001_animate_fish_1.png","281"
"html-button-response-mod","291","500081","0.0-291.0","74163","","","","","","triplet","1154.699999999255","","","","2","stimuli/stim019_inanimate_tree_3.png","stimuli/stim024_inanimate_tools_4.png","stimuli/stim012_animate_face_4.png","282"
"html-button-response-mod","292","500594","0.0-292.0","74163","","","","","","triplet","7.5","","","","2","stimuli/stim003_animate_fish_3.png","stimuli/stim018_inanimate_tree_2.png","stimuli/stim005_animate_bird_1.png","283"
"html-button-response-mod","293","501157","0.0-293.0","74163","","","","","","triplet","58.19999999925494","","","","2","stimuli/stim022_inanimate_tools_2.png","stimuli/face_uppercase.png","stimuli/boats_uppercase.png","284"
"html-button-response-mod","294","501733","0.0-294.0","74163","","","","","","triplet","71.09999999776483","","","","2","stimuli/boats_lowercase.png","stimuli/boats_uppercase.png","stimuli/stim023_inanimate_tools_3.png","285"
"html-button-response-mod","295","502256","0.0-295.0","74163","","","","","","triplet","16.899999998509884","","","","2","stimuli/stim013_inanimate_boats_1.png","stimuli/face_uppercase.png","stimuli/stim009_animate_face_1.png","286"
"html-button-response-mod","296","503090","0.0-296.0","74163","","","","","","triplet","332.29999999701977","","","","2","stimuli/stim019_inanimate_tree_3.png","stimuli/stim016_inanimate_boats_4.png","stimuli/tree_uppercase.png","287"
"html-button-response-mod","297","503603","0.0-297.0","74163","","","","","","triplet","7.199999999254942","","","","2","stimuli/tree_lowercase.png","stimuli/boats_uppercase.png","stimuli/bird_uppercase.png","288"
"html-button-response-mod","298","504832","0.0-298.0","74163","","","","","","triplet","724.6000000014901","","","","2","stimuli/stim007_animate_bird_3.png","stimuli/stim021_inanimate_tools_1.png","stimuli/boats_uppercase.png","289"
"html-button-response-mod","299","505353","0.0-299.0","74163","","","","","","triplet","18.700000002980232","","","","2","stimuli/bird_uppercase.png","stimuli/stim016_inanimate_boats_4.png","stimuli/stim003_animate_fish_3.png","290"
"html-button-response-mod","300","505906","0.0-300.0","74163","","","","","","triplet","50.900000002235174","","","","2","stimuli/stim009_animate_face_1.png","stimuli/stim002_animate_fish_2.png","stimuli/stim016_inanimate_boats_4.png","291"
"html-button-response-mod","301","506476","0.0-301.0","74163","","","","","","triplet","68.30000000074506","","","","2","stimuli/stim008_animate_bird_4.png","stimuli/stim024_inanimate_tools_4.png","stimuli/stim010_animate_face_2.png","292"
"html-button-response-mod","302","507167","0.0-302.0","74163","","","","","","triplet","188.60000000149012","","","","2","stimuli/stim003_animate_fish_3.png","stimuli/stim012_animate_face_4.png","stimuli/stim010_animate_face_2.png","293"
"html-button-response-mod","303","509998","0.0-303.0","74163","","","","","","triplet","2328.39999999851","","","","2","stimuli/stim001_animate_fish_1.png","stimuli/bird_lowercase.png","stimuli/stim023_inanimate_tools_3.png","294"
"html-button-response-mod","304","512213","0.0-304.0","74163","","","","","","triplet","1712.5","","","","2","stimuli/stim023_inanimate_tools_3.png","stimuli/stim024_inanimate_tools_4.png","stimuli/stim011_animate_face_3.png","295"
"html-button-response-mod","305","512815","0.0-305.0","74163","","","","","","triplet","96","","","","2","stimuli/boats_uppercase.png","stimuli/stim016_inanimate_boats_4.png","stimuli/stim001_animate_fish_1.png","296"
"html-button-response-mod","306","513384","0.0-306.0","74163","","","","","","triplet","65.69999999925494","","","","2","stimuli/stim010_animate_face_2.png","stimuli/fish_uppercase.png","stimuli/stim009_animate_face_1.png","297"
"html-button-response-mod","307","514011","0.0-307.0","74163","","","","","","triplet","121.30000000074506","","","","2","stimuli/stim003_animate_fish_3.png","stimuli/stim022_inanimate_tools_2.png","stimuli/stim001_animate_fish_1.png","298"
"html-button-response-mod","308","514877","0.0-308.0","74163","","","","","","triplet","361.5","","","","1","stimuli/stim007_animate_bird_3.png","stimuli/fish_lowercase.png","stimuli/stim020_inanimate_tree_4.png","299"
"html-button-response","309","517301","0.0-309.0","74163","","","","","","break","1917.699999999255","<p>BREAK</p><p>Take a break for as long as you need</p><p>Click the button to continue</p>","0","","","","","",""
"html-button-response-mod","310","520791","0.0-310.0","74163","","","","","","triplet","3488.300000000745","","","","0","stimuli/stim008_animate_bird_4.png","stimuli/stim010_animate_face_2.png","stimuli/stim016_inanimate_boats_4.png","300"
"html-button-response-mod","311","521320","0.0-311.0","74163","","","","","","triplet","23.400000002235174","","","","0","stimuli/stim008_animate_bird_4.png","stimuli/stim024_inanimate_tools_4.png","stimuli/stim016_inanimate_boats_4.png","301"
"html-button-response-mod","312","521857","0.0-312.0","74163","","","","","","triplet","31.5","","","","0","stimuli/tree_uppercase.png","stimuli/stim002_animate_fish_2.png","stimuli/stim005_animate_bird_1.png","302"
"html-button-response-mod","313","522412","0.0-313.0","74163","","","","","","triplet","49.600000001490116","","","","0","stimuli/face_uppercase.png","stimuli/stim024_inanimate_tools_4.png","stimuli/bird_uppercase.png","303"
"html-button-response-mod","314","523043","0.0-314.0","74163","","","","","","triplet","124.89999999850988","","","","0","stimuli/tree_lowercase.png","stimuli/stim012_animate_face_4.png","stimuli/stim021_inanimate_tools_1.png","304"
"html-button-response-mod","315","524930","0.0-315.0","74163","","","","","","triplet","1382.300000000745","","","","0","stimuli/stim009_animate_face_1.png","stimuli/stim022_inanimate_tools_2.png","stimuli/stim023_inanimate_tools_3.png","305"
"html-button-response-mod","316","525620","0.0-316.0","74163","","","","","","triplet","183.5","","","","1","stimuli/stim024_inanimate_tools_4.png","stimuli/stim012_animate_face_4.png","stimuli/stim005_animate_bird_1.png","306"
"html-button-response-mod","317","526133","0.0-317.0","74163","","","","","","triplet","7.799999997019768","","","","1","stimuli/stim018_inanimate_tree_2.png","stimuli/stim010_animate_face_2.png","stimuli/stim022_inanimate_tools_2.png","307"
"html-button-response-mod","318","529158","0.0-318.0","74163","","","","","","triplet","2521.800000000745","","","","0","stimuli/stim014_inanimate_boats_2.png","stimuli/stim020_inanimate_tree_4.png","stimuli/stim005_animate_bird_1.png","308"
"html-button-response-mod","319","529703","0.0-319.0","74163","","","","","","triplet","39.5","","","","0","stimuli/stim009_animate_face_1.png","stimuli/tree_uppercase.png","stimuli/bird_lowercase.png","309"
"html-button-response-mod","320","531734","0.0-320.0","74163","","","","","","triplet","1529.199999999255","","","","2","stimuli/stim016_inanimate_boats_4.png","stimuli/stim022_inanimate_tools_2.png","stimuli/stim015_inanimate_boats_3.png","310"
"html-button-response-mod","321","532303","0.0-321.0","74163","","","","","","triplet","66.30000000074506","","","","2","stimuli/fish_uppercase.png","stimuli/stim017_inanimate_tree_1.png","stimuli/tree_lowercase.png","311"
"html-button-response-mod","322","532882","0.0-322.0","74163","","","","","","triplet","72.29999999701977","","","","2","stimuli/stim021_inanimate_tools_1.png","stimuli/stim019_inanimate_tree_3.png","stimuli/tree_uppercase.png","312"
"html-button-response-mod","323","533443","0.0-323.0","74163","","","","","","triplet","56.80000000074506","","","","2","stimuli/stim019_inanimate_tree_3.png","stimuli/face_uppercase.png","stimuli/fish_lowercase.png","313"
"html-button-response-mod","324","534021","0.0-324.0","74163","","","","","","triplet","75.09999999776483","","","","2","stimuli/tools_uppercase.png","stimuli/stim018_inanimate_tree_2.png","stimuli/stim021_inanimate_tools_1.png","314"
"html-button-response-mod","325","534558","0.0-325.0","74163","","","","","","triplet","31.599999997764826","","","","2","stimuli/boats_lowercase.png","stimuli/face_lowercase.png","stimuli/boats_uppercase.png","315"
"html-button-response-mod","326","535248","0.0-326.0","74163","","","","","","triplet","187.89999999850988","","","","2","stimuli/stim003_animate_fish_3.png","stimuli/tree_lowercase.png","stimuli/stim021_inanimate_tools_1.png","316"
"html-button-response-mod","327","535874","0.0-327.0","74163","","","","","","triplet","124","","","","2","stimuli/stim016_inanimate_boats_4.png","stimuli/tree_lowercase.png","stimuli/fish_uppercase.png","317"
"html-button-response-mod","328","536435","0.0-328.0","74163","","","","","","triplet","57.099999997764826","","","","2","stimuli/stim002_animate_fish_2.png","stimuli/stim021_inanimate_tools_1.png","stimuli/tree_lowercase.png","318"
"html-button-response-mod","329","536997","0.0-329.0","74163","","","","","","triplet","55.80000000074506","","","","2","stimuli/stim011_animate_face_3.png","stimuli/tools_lowercase.png","stimuli/stim015_inanimate_boats_3.png","319"
"html-button-response-mod","330","537518","0.0-330.0","74163","","","","","","triplet","16.099999997764826","","","","2","stimuli/tools_lowercase.png","stimuli/tree_lowercase.png","stimuli/face_uppercase.png","320"
"html-button-response-mod","331","538064","0.0-331.0","74163","","","","","","triplet","44.69999999925494","","","","2","stimuli/fish_lowercase.png","stimuli/stim011_animate_face_3.png","stimuli/boats_uppercase.png","321"
"html-button-response-mod","332","538722","0.0-332.0","74163","","","","","","triplet","155.39999999850988","","","","2","stimuli/stim013_inanimate_boats_1.png","stimuli/stim008_animate_bird_4.png","stimuli/stim022_inanimate_tools_2.png","322"
"html-button-response-mod","333","539404","0.0-333.0","74163","","","","","","triplet","174.89999999850988","","","","2","stimuli/tools_uppercase.png","stimuli/stim010_animate_face_2.png","stimuli/stim004_animate_fish_4.png","323"
"html-button-response-mod","334","543294","0.0-334.0","74163","","","","","","triplet","3383.800000000745","","","","0","stimuli/tree_lowercase.png","stimuli/stim016_inanimate_boats_4.png","stimuli/stim010_animate_face_2.png","324"
"html-button-response-mod","335","543944","0.0-335.0","74163","","","","","","triplet","143.39999999850988","","","","1","stimuli/stim020_inanimate_tree_4.png","stimuli/stim005_animate_bird_1.png","stimuli/stim021_inanimate_tools_1.png","325"
"html-button-response-mod","336","544457","0.0-336.0","74163","","","","","","triplet","9.400000002235174","","","","1","stimuli/stim003_animate_fish_3.png","stimuli/boats_uppercase.png","stimuli/stim007_animate_bird_3.png","326"
"html-button-response-mod","337","545628","0.0-337.0","74163","","","","","","triplet","669.1000000014901","","","","0","stimuli/stim002_animate_fish_2.png","stimuli/boats_uppercase.png","stimuli/stim001_animate_fish_1.png","327"
"html-button-response-mod","338","546175","0.0-338.0","74163","","","","","","triplet","40.5","","","","0","stimuli/stim006_animate_bird_2.png","stimuli/tree_uppercase.png","stimuli/tools_uppercase.png","328"
"html-button-response-mod","339","548702","0.0-339.0","74163","","","","","","triplet","2024.8999999985099","","","","1","stimuli/tree_lowercase.png","stimuli/boats_uppercase.png","stimuli/stim012_animate_face_4.png","329"
"html-button-response-mod","340","550010","0.0-340.0","74163","","","","","","triplet","800.5","","","","1","stimuli/face_lowercase.png","stimuli/stim003_animate_fish_3.png","stimuli/boats_uppercase.png","330"
"html-button-response-mod","341","551541","0.0-341.0","74163","","","","","","triplet","1026.8999999985099","","","","0","stimuli/stim016_inanimate_boats_4.png","stimuli/stim019_inanimate_tree_3.png","stimuli/stim001_animate_fish_1.png","331"
"html-button-response-mod","342","552994","0.0-342.0","74163","","","","","","triplet","950.3000000007451","","","","2","stimuli/stim018_inanimate_tree_2.png","stimuli/stim002_animate_fish_2.png","stimuli/tools_lowercase.png","332"
"html-button-response-mod","343","553604","0.0-343.0","74163","","","","","","triplet","103.19999999925494","","","","2","stimuli/stim018_inanimate_tree_2.png","stimuli/boats_lowercase.png","stimuli/tools_uppercase.png","333"
"html-button-response-mod","344","554181","0.0-344.0","74163","","","","","","triplet","73.19999999925494","","","","2","stimuli/tools_uppercase.png","stimuli/stim002_animate_fish_2.png","stimuli/stim024_inanimate_tools_4.png","334"
"html-button-response-mod","345","555632","0.0-345.0","74163","","","","","","triplet","944.4000000022352","","","","2","stimuli/stim014_inanimate_boats_2.png","stimuli/stim008_animate_bird_4.png","stimuli/stim024_inanimate_tools_4.png","335"
"html-button-response-mod","346","556243","0.0-346.0","74163","","","","","","triplet","103.60000000149012","","","","2","stimuli/stim024_inanimate_tools_4.png","stimuli/stim023_inanimate_tools_3.png","stimuli/stim015_inanimate_boats_3.png","336"
"html-button-response-mod","347","556828","0.0-347.0","74163","","","","","","triplet","80.90000000223517","","","","2","stimuli/stim003_animate_fish_3.png","stimuli/tools_lowercase.png","stimuli/stim022_inanimate_tools_2.png","337"
"html-button-response-mod","348","557470","0.0-348.0","74163","","","","","","triplet","137.80000000074506","","","","2","stimuli/stim015_inanimate_boats_3.png","stimuli/stim018_inanimate_tree_2.png","stimuli/stim022_inanimate_tools_2.png","338"
"html-button-response-mod","349","558071","0.0-349.0","74163","","","","","","triplet","93.5","","","","2","stimuli/bird_uppercase.png","stimuli/stim005_animate_bird_1.png","stimuli/stim004_animate_fish_4.png","339"
"html-button-response-mod","350","558819","0.0-350.0","74163","","","","","","triplet","242.39999999850988","","","","2","stimuli/stim023_inanimate_tools_3.png","stimuli/tree_lowercase.png","stimuli/stim022_inanimate_tools_2.png","340"
"html-button-response-mod","351","559357","0.0-351.0","74163","","","","","","triplet","33.5","","","","2","stimuli/stim023_inanimate_tools_3.png","stimuli/tools_lowercase.png","stimuli/stim008_animate_bird_4.png","341"
"html-button-response-mod","352","561313","0.0-352.0","74163","","","","","","triplet","1453.7000000029802","","","","2","stimuli/stim020_inanimate_tree_4.png","stimuli/stim015_inanimate_boats_3.png","stimuli/stim001_animate_fish_1.png","342"
"html-button-response-mod","353","561866","0.0-353.0","74163","","","","","","triplet","47.5","","","","2","stimuli/stim024_inanimate_tools_4.png","stimuli/stim006_animate_bird_2.png","stimuli/fish_lowercase.png","343"
"html-button-response-mod","354","562717","0.0-354.0","74163","","","","","","triplet","345.5","","","","2","stimuli/stim021_inanimate_tools_1.png","stimuli/face_uppercase.png","stimuli/stim013_inanimate_boats_1.png","344"
"html-button-response-mod","355","563311","0.0-355.0","74163","","","","","","triplet","92.09999999776483","","","","2","stimuli/fish_uppercase.png","stimuli/tree_uppercase.png","stimuli/tools_uppercase.png","345"
"html-button-response-mod","356","563872","0.0-356.0","74163","","","","","","triplet","55.099999997764826","","","","2","stimuli/stim021_inanimate_tools_1.png","stimuli/tree_lowercase.png","stimuli/fish_lowercase.png","346"
"html-button-response-mod","357","564385","0.0-357.0","74163","","","","","","triplet","7","","","","2","stimuli/stim020_inanimate_tree_4.png","stimuli/stim010_animate_face_2.png","stimuli/stim005_animate_bird_1.png","347"
"html-button-response-mod","358","565148","0.0-358.0","74163","","","","","","triplet","261.0999999977648","","","","2","stimuli/stim008_animate_bird_4.png","stimuli/bird_lowercase.png","stimuli/stim023_inanimate_tools_3.png","348"
"html-button-response-mod","359","565710","0.0-359.0","74163","","","","","","triplet","56.70000000298023","","","","2","stimuli/fish_uppercase.png","stimuli/stim013_inanimate_boats_1.png","stimuli/stim022_inanimate_tools_2.png","349"
"html-button-response","360","567420","0.0-360.0","74163","","","","","","break","1205.9000000022352","<p>BREAK</p><p>Take a break for as long as you need</p><p>Click the button to continue</p>","0","","","","","",""
"html-button-response-mod","361","568398","0.0-361.0","74163","","","","","","triplet","976.6999999992549","","","","2","stimuli/stim003_animate_fish_3.png","stimuli/stim001_animate_fish_1.png","stimuli/fish_uppercase.png","350"
"html-button-response-mod","362","569016","0.0-362.0","74163","","","","","","triplet","113.19999999925494","","","","2","stimuli/stim009_animate_face_1.png","stimuli/stim008_animate_bird_4.png","stimuli/stim018_inanimate_tree_2.png","351"
"html-button-response-mod","363","569585","0.0-363.0","74163","","","","","","triplet","65.39999999850988","","","","2","stimuli/stim018_inanimate_tree_2.png","stimuli/stim013_inanimate_boats_1.png","stimuli/stim005_animate_bird_1.png","352"
"html-button-response-mod","364","570292","0.0-364.0","74163","","","","","","triplet","204.30000000074506","","","","2","stimuli/stim001_animate_fish_1.png","stimuli/stim013_inanimate_boats_1.png","stimuli/stim014_inanimate_boats_2.png","353"
"html-button-response-mod","365","570910","0.0-365.0","74163","","","","","","triplet","110.70000000298023","","","","2","stimuli/stim018_inanimate_tree_2.png","stimuli/face_lowercase.png","stimuli/fish_lowercase.png","354"
"html-button-response-mod","366","571527","0.0-366.0","74163","","","","","","triplet","113.60000000149012","","","","1","stimuli/stim002_animate_fish_2.png","stimuli/bird_lowercase.png","stimuli/boats_uppercase.png","355"
"html-button-response-mod","367","572104","0.0-367.0","74163","","","","","","triplet","72.59999999776483","","","","2","stimuli/stim005_animate_bird_1.png","stimuli/bird_lowercase.png","stimuli/tools_lowercase.png","356"
"html-button-response-mod","368","572754","0.0-368.0","74163","","","","","","triplet","145.59999999776483","","","","2","stimuli/bird_lowercase.png","stimuli/stim009_animate_face_1.png","stimuli/stim023_inanimate_tools_3.png","357"
"html-button-response-mod","369","573332","0.0-369.0","74163","","","","","","triplet","74.30000000074506","","","","2","stimuli/stim013_inanimate_boats_1.png","stimuli/tools_uppercase.png","stimuli/stim009_animate_face_1.png","358"
"html-button-response-mod","370","573917","0.0-370.0","74163","","","","","","triplet","81.80000000074506","","","","2","stimuli/stim003_animate_fish_3.png","stimuli/stim019_inanimate_tree_3.png","stimuli/bird_uppercase.png","359"
"html-button-response-mod","371","574528","0.0-371.0","74163","","","","","","triplet","103.69999999925494","","","","1","stimuli/stim023_inanimate_tools_3.png","stimuli/stim017_inanimate_tree_1.png","stimuli/stim014_inanimate_boats_2.png","360"
"html-button-response-mod","372","575535","0.0-372.0","74163","","","","","","triplet","499.80000000074506","","","","2","stimuli/bird_uppercase.png","stimuli/stim001_animate_fish_1.png","stimuli/fish_lowercase.png","361"
"html-button-response-mod","373","576163","0.0-373.0","74163","","","","","","triplet","122.40000000223517","","","","2","stimuli/tools_lowercase.png","stimuli/stim013_inanimate_boats_1.png","stimuli/stim002_animate_fish_2.png","362"
"html-button-response-mod","374","576724","0.0-374.0","74163","","","","","","triplet","55","","","","2","stimuli/stim016_inanimate_boats_4.png","stimuli/tools_lowercase.png","stimuli/stim021_inanimate_tools_1.png","363"
"html-button-response-mod","375","577319","0.0-375.0","74163","","","","","","triplet","87.80000000074506","","","","2","stimuli/stim022_inanimate_tools_2.png","stimuli/stim012_animate_face_4.png","stimuli/stim003_animate_fish_3.png","364"
"html-button-response-mod","376","577992","0.0-376.0","74163","","","","","","triplet","166.5","","","","1","stimuli/tools_lowercase.png","stimuli/tree_lowercase.png","stimuli/tools_uppercase.png","365"
"html-button-response-mod","377","578587","0.0-377.0","74163","","","","","","triplet","92.10000000149012","","","","2","stimuli/stim023_inanimate_tools_3.png","stimuli/stim022_inanimate_tools_2.png","stimuli/tools_uppercase.png","366"
"html-button-response-mod","378","579196","0.0-378.0","74163","","","","","","triplet","102.39999999850988","","","","1","stimuli/stim018_inanimate_tree_2.png","stimuli/stim002_animate_fish_2.png","stimuli/stim005_animate_bird_1.png","367"
"html-button-response-mod","379","579822","0.0-379.0","74163","","","","","","triplet","123.30000000074506","","","","2","stimuli/stim023_inanimate_tools_3.png","stimuli/face_lowercase.png","stimuli/tree_lowercase.png","368"
"html-button-response-mod","380","580456","0.0-380.0","74163","","","","","","triplet","127.10000000149012","","","","2","stimuli/stim024_inanimate_tools_4.png","stimuli/boats_lowercase.png","stimuli/tools_lowercase.png","369"
"html-button-response-mod","381","581306","0.0-381.0","74163","","","","","","triplet","346","","","","2","stimuli/stim011_animate_face_3.png","stimuli/tools_lowercase.png","stimuli/stim004_animate_fish_4.png","370"
"html-button-response-mod","382","581932","0.0-382.0","74163","","","","","","triplet","122.80000000074506","","","","2","stimuli/stim022_inanimate_tools_2.png","stimuli/face_lowercase.png","stimuli/stim020_inanimate_tree_4.png","371"
"html-button-response-mod","383","584067","0.0-383.0","74163","","","","","","triplet","1630.9000000022352","","","","1","stimuli/stim016_inanimate_boats_4.png","stimuli/stim019_inanimate_tree_3.png","stimuli/face_lowercase.png","372"
"html-button-response-mod","384","584644","0.0-384.0","74163","","","","","","triplet","75.79999999701977","","","","2","stimuli/bird_lowercase.png","stimuli/stim022_inanimate_tools_2.png","stimuli/stim010_animate_face_2.png","373"
"html-button-response-mod","385","585261","0.0-385.0","74163","","","","","","triplet","110.19999999925494","","","","2","stimuli/stim004_animate_fish_4.png","stimuli/stim024_inanimate_tools_4.png","stimuli/tools_lowercase.png","374"
"html-button-response-mod","386","585879","0.0-386.0","74163","","","","","","triplet","115.09999999776483","","","","1","stimuli/stim004_animate_fish_4.png","stimuli/stim007_animate_bird_3.png","stimuli/bird_lowercase.png","375"
"html-button-response-mod","387","586754","0.0-387.0","74163","","","","","","triplet","367.80000000074506","","","","1","stimuli/stim022_inanimate_tools_2.png","stimuli/stim001_animate_fish_1.png","stimuli/stim009_animate_face_1.png","376"
"html-button-response-mod","388","587348","0.0-388.0","74163","","","","","","triplet","90.59999999776483","","","","2","stimuli/stim003_animate_fish_3.png","stimuli/stim006_animate_bird_2.png","stimuli/boats_uppercase.png","377"
"html-button-response-mod","389","587909","0.0-389.0","74163","","","","","","triplet","55.400000002235174","","","","2","stimuli/stim022_inanimate_tools_2.png","stimuli/stim009_animate_face_1.png","stimuli/bird_lowercase.png","378"
"html-button-response-mod","390","588533","0.0-390.0","74163","","","","","","triplet","117.80000000074506","","","","2","stimuli/stim013_inanimate_boats_1.png","stimuli/stim021_inanimate_tools_1.png","stimuli/boats_uppercase.png","379"
"html-button-response-mod","391","589506","0.0-391.0","74163","","","","","","triplet","470.5999999977648","","","","1","stimuli/stim017_inanimate_tree_1.png","stimuli/bird_lowercase.png","stimuli/face_uppercase.png","380"
"html-button-response-mod","392","590147","0.0-392.0","74163","","","","","","triplet","134","","","","2","stimuli/stim003_animate_fish_3.png","stimuli/stim001_animate_fish_1.png","stimuli/stim009_animate_face_1.png","381"
"html-button-response-mod","393","590724","0.0-393.0","74163","","","","","","triplet","72.80000000074506","","","","2","stimuli/stim011_animate_face_3.png","stimuli/stim007_animate_bird_3.png","stimuli/stim023_inanimate_tools_3.png","382"
"html-button-response-mod","394","591295","0.0-394.0","74163","","","","","","triplet","65.80000000074506","","","","2","stimuli/stim013_inanimate_boats_1.png","stimuli/stim011_animate_face_3.png","stimuli/bird_uppercase.png","383"
"html-button-response-mod","395","593375","0.0-395.0","74163","","","","","","triplet","1572.1000000014901","","","","2","stimuli/stim005_animate_bird_1.png","stimuli/stim015_inanimate_boats_3.png","stimuli/stim010_animate_face_2.png","384"
"html-button-response-mod","396","593950","0.0-396.0","74163","","","","","","triplet","69.69999999925494","","","","2","stimuli/bird_lowercase.png","stimuli/stim001_animate_fish_1.png","stimuli/tree_uppercase.png","385"
"html-button-response-mod","397","595042","0.0-397.0","74163","","","","","","triplet","584.8000000007451","","","","2","stimuli/stim018_inanimate_tree_2.png","stimuli/stim015_inanimate_boats_3.png","stimuli/stim013_inanimate_boats_1.png","386"
"html-button-response-mod","398","600468","0.0-398.0","74163","","","","","","triplet","4921.099999997765","","","","1","stimuli/stim004_animate_fish_4.png","stimuli/stim011_animate_face_3.png","stimuli/stim017_inanimate_tree_1.png","387"
"html-button-response-mod","399","601889","0.0-399.0","74163","","","","","","triplet","916.3000000007451","","","","1","stimuli/stim022_inanimate_tools_2.png","stimuli/boats_lowercase.png","stimuli/tools_uppercase.png","388"
"html-button-response-mod","400","602491","0.0-400.0","74163","","","","","","triplet","98.30000000074506","","","","1","stimuli/stim002_animate_fish_2.png","stimuli/face_uppercase.png","stimuli/stim018_inanimate_tree_2.png","389"
"html-button-response-mod","401","603044","0.0-401.0","74163","","","","","","triplet","47.80000000074506","","","","0","stimuli/stim006_animate_bird_2.png","stimuli/fish_uppercase.png","stimuli/stim012_animate_face_4.png","390"
"html-button-response-mod","402","604833","0.0-402.0","74163","","","","","","triplet","1282.5","","","","0","stimuli/fish_uppercase.png","stimuli/stim010_animate_face_2.png","stimuli/tools_uppercase.png","391"
"html-button-response-mod","403","607070","0.0-403.0","74163","","","","","","triplet","1730.8999999985099","","","","1","stimuli/stim005_animate_bird_1.png","stimuli/tree_uppercase.png","stimuli/stim021_inanimate_tools_1.png","392"
"html-button-response-mod","404","607753","0.0-404.0","74163","","","","","","triplet","181.19999999925494","","","","0","stimuli/boats_uppercase.png","stimuli/stim007_animate_bird_3.png","stimuli/boats_lowercase.png","393"
"html-button-response-mod","405","608323","0.0-405.0","74163","","","","","","triplet","63.80000000074506","","","","1","stimuli/tools_uppercase.png","stimuli/stim011_animate_face_3.png","stimuli/fish_uppercase.png","394"
"html-button-response-mod","406","608947","0.0-406.0","74163","","","","","","triplet","118","","","","1","stimuli/stim016_inanimate_boats_4.png","stimuli/tree_lowercase.png","stimuli/stim017_inanimate_tree_1.png","395"
"html-button-response-mod","407","609550","0.0-407.0","74163","","","","","","triplet","96.60000000149012","","","","0","stimuli/bird_uppercase.png","stimuli/stim018_inanimate_tree_2.png","stimuli/stim011_animate_face_3.png","396"
"html-button-response-mod","408","610521","0.0-408.0","74163","","","","","","triplet","468","","","","1","stimuli/stim005_animate_bird_1.png","stimuli/tools_lowercase.png","stimuli/fish_uppercase.png","397"
"html-button-response-mod","409","611083","0.0-409.0","74163","","","","","","triplet","58.70000000298023","","","","1","stimuli/stim019_inanimate_tree_3.png","stimuli/stim007_animate_bird_3.png","stimuli/stim023_inanimate_tools_3.png","398"
"html-button-response-mod","410","611781","0.0-410.0","74163","","","","","","triplet","195.29999999701977","","","","0","stimuli/bird_uppercase.png","stimuli/stim012_animate_face_4.png","stimuli/stim011_animate_face_3.png","399"
"html-button-response","411","616411","0.0-411.0","74163","","","","","","break","4124.20000000298","<p>BREAK</p><p>Take a break for as long as you need</p><p>Click the button to continue</p>","0","","","","","",""
"survey-text","412","657781","0.0-412.0","74163","","","","","","data_patterns","41359.900000002235","","{""Q0"":""I looked at capital letters vs lowercase\nAny relationship e.g. fish can be fished from a boat or bird and fish are both animals\n\nSometimes, there was no clear one especially the ones with tools so i just did a random pick""}","","","","","",""
"survey-text","413","659907","0.0-413.0","74163","","","","","","age_question","2123.5","","{""Age"":""20""}","","","","","",""
"html-button-response","414","660901","0.0-414.0","74163","","","","","","gender_question","992.6999999992549","How would you like your gender to be recorded?","1","","","","","",""
"html-button-response","415","661511","0.0-415.0","74163","","","","","","debrief","608.6999999992549","<p> Thank you for participating in this experiment! </p><p> We are investigating the dimensions along which you perceive the world </p><p>The images were all sorted according to whether they are animate or not, and </p><p> whether they are text or images. We are comparing this to some neuroimaging data to see </p> how your conscious classification relates to how your brain classifies the objects automatically. </p>","0","666145.6999999993","","","","",""
