"trial_type","trial_index","time_elapsed","internal_node_id","subject","success","timeout","failed_images","failed_audio","failed_video","test_part","rt","stimulus","response","end_time","button_pressed","stim0","stim1","stim2","trialnr"
"pavlovia","0","20","0.0-0.0","74256","","","","","","","","","","","","","","",""
"preload","1","2100","0.0-1.0","74256","true","false","[]","[]","[]","preload","","","","","","","","",""
"html-button-response","2","6910","0.0-2.0","74256","","","","","","","4806.799999952316","<p>Welcome to the experiment. To begin, please read the following and press the button at the bottom of the screen.</p><p></p><p><strong>Project Name: A study on cognitive processes involved in visual perception</p></strong><p></p><p><strong>PARTICIPANT INFORMATION STATEMENT</strong></p><p></p><strong>(1) What is the study about?</strong><br>You are invited to participate in a study that investigates the cognitive processes involved in perceiving and recognizing visual stimuli.If you decide to participate, you will be asked to complete a task in which you will view pictures, letters, numbers, or words presented on a computer screen.<br><strong>(2) Who can participate?</strong><br>Anyone aged 18 years or over with access to a computer (not a phone/tablet)<br><strong>(3) Where is the study located?</strong><br>The study will be conducted in your browser<br><strong>(4) Who is carrying out the study?</strong><br>The study is being conducted by Sophia Shatek from the Computational Cognitive Neuroscience laboratory at the University of Sydney.<br><strong>(5) What does the study involve?</strong><br>In this study, you will be asked to perform tasks where you will see different stimuli appear on the computer screen.You will respond by pressing a key or using a computer mouse.<br><strong>(6) How much time will the study take?</strong><br>The study takes about 30 minutes<br><strong>(7)	Can I withdraw from the study?</strong><br>Being in this study is completely voluntary - you are not under any obligation to consent. You can withdraw at any time without having to give a reason and without penalty.<br><strong>(8) Will anyone else know the results?</strong><br>All aspects of the study, including results, will be strictly confidential and only the researchers will have access to information on participants.The results and data from the study may be submitted for publication or shared with other research labs, but individual participants will not be identifiable.<br><strong>(9) Will the study benefit me?</strong><br>You will be awarded 0.5 credits for your participation.<br><strong>(10) Can I tell other people about the study?</strong><br>Yes, please tell them to contact Dr Thomas Carlson by email at thomas.carlson@sydney.edu.au.<br><strong>(11) What if I require further information about the study or my involvement in it?</strong><br>When you have read this information, the investigator will discuss it with you further and answer any questions you may have.If you would like to know more at any stage, please feel free to contact Dr Thomas Carlson directly by email at thomas.carlson@sydney.edu.au.If you would like to be informed about the outcomes of the study, contact Dr Thomas Carlson directly by email at thomas.carlson@sydney.edu.au.<br><strong>(12) What if I have a complaint or any concerns?</strong><br>Any person with concerns or complaints about the conduct of a research study can contact The Manager,Human Ethics Administration, University of Sydney on +61 2 8627 8176 (Telephone); +61 2 8627 8177 (Facsimile) or ro.humanethics@sydney.edu.au (Email).</p><p></p><strong>By participating in this experiment, you consent to participate in this study and acknowledge that:</strong><br>1. The procedures required for the project and the times involved have been explained to me, and any questions I have about the project have been answered to my satisfaction.<br>2.	I have read the Above Information Statement and have been given the opportunity to discuss the information and my involvement in the project with the researcher/s.<br>3. I understand that allowing my data to be used in research reports is completely voluntary - I am not under any obligation to consent.<br>4. I understand that my involvement is strictly confidential. I understand that any research data gathered from the results of the study may be publishedhowever no information about me will be used in any way that is identifiable.</p><p></p>","0","","","","","",""
"html-button-response","3","8414","0.0-3.0","74256","","","","","","opening_instructions","1500.4000000953674","<p>In this experiment, you will see three images appear on the screen.</p><p>You need to click the 'odd one out', or the image </p><p>that is MOST CONCEPTUALLY DIFFERENT to the other two. </p><p>(e.g., the word 'tree' and a picture of a tree are conceptually SIMILAR, </p><p> but the word 'tree' and the word 'boat' are conceptually DIFFERENT even though they look similar) </p><p>Just go with your intuition, don't spend too long thinking about each one.</p>","0","13544.099999904633","","","","",""
"html-button-response-mod","4","70610","0.0-4.0","74256","","","","","","triplet","62190.799999952316","","","","0","stimuli/boats_uppercase.png","stimuli/stim011_animate_face_3.png","stimuli/stim009_animate_face_1.png","0"
"html-button-response-mod","5","106364","0.0-5.0","74256","","","","","","triplet","35249.799999952316","","","","1","stimuli/stim011_animate_face_3.png","stimuli/tree_uppercase.png","stimuli/stim006_animate_bird_2.png","1"
"html-button-response-mod","6","110507","0.0-6.0","74256","","","","","","triplet","3640.899999856949","","","","2","stimuli/stim021_inanimate_tools_1.png","stimuli/stim022_inanimate_tools_2.png","stimuli/stim005_animate_bird_1.png","2"
"html-button-response-mod","7","116468","0.0-7.0","74256","","","","","","triplet","5457.900000095367","","","","1","stimuli/stim014_inanimate_boats_2.png","stimuli/boats_lowercase.png","stimuli/stim015_inanimate_boats_3.png","3"
"html-button-response-mod","8","118092","0.0-8.0","74256","","","","","","triplet","1118.0999999046326","","","","2","stimuli/tools_uppercase.png","stimuli/face_lowercase.png","stimuli/stim011_animate_face_3.png","4"
"html-button-response-mod","9","119514","0.0-9.0","74256","","","","","","triplet","920.0999999046326","","","","1","stimuli/stim013_inanimate_boats_1.png","stimuli/bird_uppercase.png","stimuli/stim016_inanimate_boats_4.png","5"
"html-button-response-mod","10","126583","0.0-10.0","74256","","","","","","triplet","6566.099999904633","","","","1","stimuli/fish_lowercase.png","stimuli/stim019_inanimate_tree_3.png","stimuli/stim001_animate_fish_1.png","6"
"html-button-response-mod","11","131379","0.0-11.0","74256","","","","","","triplet","4293.799999952316","","","","2","stimuli/stim002_animate_fish_2.png","stimuli/stim005_animate_bird_1.png","stimuli/boats_lowercase.png","7"
"html-button-response-mod","12","134086","0.0-12.0","74256","","","","","","triplet","2205.399999856949","","","","1","stimuli/fish_lowercase.png","stimuli/stim010_animate_face_2.png","stimuli/bird_uppercase.png","8"
"html-button-response-mod","13","137705","0.0-13.0","74256","","","","","","triplet","3117","","","","1","stimuli/stim012_animate_face_4.png","stimuli/tools_uppercase.png","stimuli/stim006_animate_bird_2.png","9"
"html-button-response-mod","14","140159","0.0-14.0","74256","","","","","","triplet","1952.2999999523163","","","","2","stimuli/fish_lowercase.png","stimuli/stim004_animate_fish_4.png","stimuli/face_uppercase.png","10"
"html-button-response-mod","15","144087","0.0-15.0","74256","","","","","","triplet","3423.100000143051","","","","2","stimuli/boats_uppercase.png","stimuli/tools_lowercase.png","stimuli/tree_uppercase.png","11"
"html-button-response-mod","16","145977","0.0-16.0","74256","","","","","","triplet","1389.2999999523163","","","","1","stimuli/stim007_animate_bird_3.png","stimuli/stim010_animate_face_2.png","stimuli/stim005_animate_bird_1.png","12"
"html-button-response-mod","17","150330","0.0-17.0","74256","","","","","","triplet","3851.2000000476837","","","","1","stimuli/tree_lowercase.png","stimuli/stim011_animate_face_3.png","stimuli/stim013_inanimate_boats_1.png","13"
"html-button-response-mod","18","155520","0.0-18.0","74256","","","","","","triplet","4687.399999856949","","","","1","stimuli/boats_uppercase.png","stimuli/stim020_inanimate_tree_4.png","stimuli/fish_uppercase.png","14"
"html-button-response-mod","19","158476","0.0-19.0","74256","","","","","","triplet","2453.2000000476837","","","","2","stimuli/stim019_inanimate_tree_3.png","stimuli/stim002_animate_fish_2.png","stimuli/stim010_animate_face_2.png","15"
"html-button-response-mod","20","160034","0.0-20.0","74256","","","","","","triplet","1056.5","","","","1","stimuli/stim022_inanimate_tools_2.png","stimuli/stim019_inanimate_tree_3.png","stimuli/stim024_inanimate_tools_4.png","16"
"html-button-response-mod","21","165999","0.0-21.0","74256","","","","","","triplet","5462","","","","1","stimuli/stim012_animate_face_4.png","stimuli/stim015_inanimate_boats_3.png","stimuli/stim008_animate_bird_4.png","17"
"html-button-response-mod","22","168199","0.0-22.0","74256","","","","","","triplet","1698.2999999523163","","","","2","stimuli/tree_uppercase.png","stimuli/face_uppercase.png","stimuli/stim023_inanimate_tools_3.png","18"
"html-button-response-mod","23","170081","0.0-23.0","74256","","","","","","triplet","1380","","","","0","stimuli/stim011_animate_face_3.png","stimuli/tree_uppercase.png","stimuli/fish_lowercase.png","19"
"html-button-response-mod","24","172432","0.0-24.0","74256","","","","","","triplet","1849.2999999523163","","","","1","stimuli/tree_lowercase.png","stimuli/bird_lowercase.png","stimuli/stim019_inanimate_tree_3.png","20"
"html-button-response-mod","25","174188","0.0-25.0","74256","","","","","","triplet","1253.8999998569489","","","","1","stimuli/stim009_animate_face_1.png","stimuli/tree_uppercase.png","stimuli/stim011_animate_face_3.png","21"
"html-button-response-mod","26","176772","0.0-26.0","74256","","","","","","triplet","2081.7000000476837","","","","1","stimuli/tools_uppercase.png","stimuli/stim001_animate_fish_1.png","stimuli/bird_lowercase.png","22"
"html-button-response-mod","27","181855","0.0-27.0","74256","","","","","","triplet","4582","","","","1","stimuli/boats_lowercase.png","stimuli/tree_uppercase.png","stimuli/stim013_inanimate_boats_1.png","23"
"html-button-response-mod","28","183481","0.0-28.0","74256","","","","","","triplet","1123.5","","","","1","stimuli/stim019_inanimate_tree_3.png","stimuli/face_uppercase.png","stimuli/tree_uppercase.png","24"
"html-button-response-mod","29","185669","0.0-29.0","74256","","","","","","triplet","1684.7999999523163","","","","0","stimuli/stim017_inanimate_tree_1.png","stimuli/stim004_animate_fish_4.png","stimuli/bird_lowercase.png","25"
"html-button-response-mod","30","189167","0.0-30.0","74256","","","","","","triplet","2995.2000000476837","","","","1","stimuli/stim009_animate_face_1.png","stimuli/fish_uppercase.png","stimuli/stim020_inanimate_tree_4.png","26"
"html-button-response-mod","31","194094","0.0-31.0","74256","","","","","","triplet","4425.100000143051","","","","2","stimuli/stim013_inanimate_boats_1.png","stimuli/stim018_inanimate_tree_2.png","stimuli/stim008_animate_bird_4.png","27"
"html-button-response-mod","32","197526","0.0-32.0","74256","","","","","","triplet","2930.4000000953674","","","","1","stimuli/stim013_inanimate_boats_1.png","stimuli/fish_lowercase.png","stimuli/stim010_animate_face_2.png","28"
"html-button-response-mod","33","200841","0.0-33.0","74256","","","","","","triplet","2813.2999999523163","","","","2","stimuli/tree_lowercase.png","stimuli/stim002_animate_fish_2.png","stimuli/face_uppercase.png","29"
"html-button-response-mod","34","203249","0.0-34.0","74256","","","","","","triplet","1904.0999999046326","","","","1","stimuli/stim020_inanimate_tree_4.png","stimuli/stim006_animate_bird_2.png","stimuli/tree_lowercase.png","30"
"html-button-response-mod","35","206276","0.0-35.0","74256","","","","","","triplet","2524.9000000953674","","","","0","stimuli/boats_uppercase.png","stimuli/stim003_animate_fish_3.png","stimuli/bird_lowercase.png","31"
"html-button-response-mod","36","207908","0.0-36.0","74256","","","","","","triplet","1127.7000000476837","","","","1","stimuli/stim009_animate_face_1.png","stimuli/stim021_inanimate_tools_1.png","stimuli/stim011_animate_face_3.png","32"
"html-button-response-mod","37","209986","0.0-37.0","74256","","","","","","triplet","1575.5","","","","1","stimuli/tools_lowercase.png","stimuli/stim014_inanimate_boats_2.png","stimuli/stim024_inanimate_tools_4.png","33"
"html-button-response-mod","38","213618","0.0-38.0","74256","","","","","","triplet","3129.399999856949","","","","0","stimuli/tree_uppercase.png","stimuli/stim014_inanimate_boats_2.png","stimuli/stim010_animate_face_2.png","34"
"html-button-response-mod","39","215610","0.0-39.0","74256","","","","","","triplet","1490.2000000476837","","","","0","stimuli/stim001_animate_fish_1.png","stimuli/stim006_animate_bird_2.png","stimuli/stim008_animate_bird_4.png","35"
"html-button-response-mod","40","217155","0.0-40.0","74256","","","","","","triplet","1043","","","","2","stimuli/tree_lowercase.png","stimuli/stim020_inanimate_tree_4.png","stimuli/bird_uppercase.png","36"
"html-button-response-mod","41","219676","0.0-41.0","74256","","","","","","triplet","2018.7999999523163","","","","0","stimuli/stim019_inanimate_tree_3.png","stimuli/stim001_animate_fish_1.png","stimuli/bird_uppercase.png","37"
"html-button-response-mod","42","222919","0.0-42.0","74256","","","","","","triplet","2741.7999999523163","","","","0","stimuli/face_lowercase.png","stimuli/fish_uppercase.png","stimuli/stim005_animate_bird_1.png","38"
"html-button-response-mod","43","225794","0.0-43.0","74256","","","","","","triplet","2374.199999809265","","","","0","stimuli/tree_lowercase.png","stimuli/stim012_animate_face_4.png","stimuli/stim002_animate_fish_2.png","39"
"html-button-response-mod","44","228002","0.0-44.0","74256","","","","","","triplet","1706.5","","","","1","stimuli/boats_uppercase.png","stimuli/stim022_inanimate_tools_2.png","stimuli/stim015_inanimate_boats_3.png","40"
"html-button-response-mod","45","231401","0.0-45.0","74256","","","","","","triplet","2897.2000000476837","","","","2","stimuli/stim003_animate_fish_3.png","stimuli/tree_uppercase.png","stimuli/stim014_inanimate_boats_2.png","41"
"html-button-response-mod","46","234099","0.0-46.0","74256","","","","","","triplet","2196.4000000953674","","","","2","stimuli/stim016_inanimate_boats_4.png","stimuli/stim018_inanimate_tree_2.png","stimuli/stim011_animate_face_3.png","42"
"html-button-response-mod","47","238119","0.0-47.0","74256","","","","","","triplet","3518.0999999046326","","","","2","stimuli/tree_lowercase.png","stimuli/face_lowercase.png","stimuli/stim003_animate_fish_3.png","43"
"html-button-response-mod","48","246520","0.0-48.0","74256","","","","","","triplet","7898.700000047684","","","","1","stimuli/tree_uppercase.png","stimuli/tools_lowercase.png","stimuli/fish_lowercase.png","44"
"html-button-response-mod","49","248393","0.0-49.0","74256","","","","","","triplet","1370.5999999046326","","","","0","stimuli/stim010_animate_face_2.png","stimuli/stim002_animate_fish_2.png","stimuli/fish_lowercase.png","45"
"html-button-response-mod","50","250026","0.0-50.0","74256","","","","","","triplet","1127.0999999046326","","","","2","stimuli/stim021_inanimate_tools_1.png","stimuli/stim022_inanimate_tools_2.png","stimuli/stim002_animate_fish_2.png","46"
"html-button-response-mod","51","252537","0.0-51.0","74256","","","","","","triplet","2008","","","","2","stimuli/stim007_animate_bird_3.png","stimuli/stim002_animate_fish_2.png","stimuli/stim016_inanimate_boats_4.png","47"
"html-button-response-mod","52","254902","0.0-52.0","74256","","","","","","triplet","1862.5","","","","2","stimuli/fish_lowercase.png","stimuli/bird_lowercase.png","stimuli/stim017_inanimate_tree_1.png","48"
"html-button-response-mod","53","257013","0.0-53.0","74256","","","","","","triplet","1608.7999999523163","","","","1","stimuli/stim022_inanimate_tools_2.png","stimuli/face_lowercase.png","stimuli/stim020_inanimate_tree_4.png","49"
"html-button-response","54","261337","0.0-54.0","74256","","","","","","break","3821.4000000953674","<p>BREAK</p><p>Take a break for as long as you need</p><p>Click the button to continue</p>","0","","","","","",""
"html-button-response-mod","55","264101","0.0-55.0","74256","","","","","","triplet","2760.5999999046326","","","","1","stimuli/stim020_inanimate_tree_4.png","stimuli/tree_lowercase.png","stimuli/stim019_inanimate_tree_3.png","50"
"html-button-response-mod","56","269348","0.0-56.0","74256","","","","","","triplet","4744","","","","0","stimuli/stim024_inanimate_tools_4.png","stimuli/tree_uppercase.png","stimuli/stim008_animate_bird_4.png","51"
"html-button-response-mod","57","273765","0.0-57.0","74256","","","","","","triplet","3913.9000000953674","","","","2","stimuli/tree_uppercase.png","stimuli/fish_uppercase.png","stimuli/face_uppercase.png","52"
"html-button-response-mod","58","275865","0.0-58.0","74256","","","","","","triplet","1597","","","","1","stimuli/tree_uppercase.png","stimuli/stim024_inanimate_tools_4.png","stimuli/fish_uppercase.png","53"
"html-button-response-mod","59","277616","0.0-59.0","74256","","","","","","triplet","1249.1000001430511","","","","0","stimuli/stim002_animate_fish_2.png","stimuli/stim012_animate_face_4.png","stimuli/stim010_animate_face_2.png","54"
"html-button-response-mod","60","279763","0.0-60.0","74256","","","","","","triplet","1644.0999999046326","","","","1","stimuli/bird_lowercase.png","stimuli/stim012_animate_face_4.png","stimuli/stim002_animate_fish_2.png","55"
"html-button-response-mod","61","282276","0.0-61.0","74256","","","","","","triplet","2009.7999999523163","","","","0","stimuli/stim003_animate_fish_3.png","stimuli/stim023_inanimate_tools_3.png","stimuli/tree_lowercase.png","56"
"html-button-response-mod","62","284966","0.0-62.0","74256","","","","","","triplet","2186.7000000476837","","","","2","stimuli/fish_lowercase.png","stimuli/stim007_animate_bird_3.png","stimuli/stim022_inanimate_tools_2.png","57"
"html-button-response-mod","63","288063","0.0-63.0","74256","","","","","","triplet","2595","","","","1","stimuli/face_lowercase.png","stimuli/boats_uppercase.png","stimuli/stim012_animate_face_4.png","58"
"html-button-response-mod","64","290438","0.0-64.0","74256","","","","","","triplet","1871.4000000953674","","","","1","stimuli/tools_uppercase.png","stimuli/face_uppercase.png","stimuli/stim024_inanimate_tools_4.png","59"
"html-button-response-mod","65","292950","0.0-65.0","74256","","","","","","triplet","2008.6000001430511","","","","1","stimuli/bird_lowercase.png","stimuli/stim004_animate_fish_4.png","stimuli/fish_uppercase.png","60"
"html-button-response-mod","66","298959","0.0-66.0","74256","","","","","","triplet","5505.299999952316","","","","2","stimuli/stim013_inanimate_boats_1.png","stimuli/tools_lowercase.png","stimuli/stim019_inanimate_tree_3.png","61"
"html-button-response-mod","67","300833","0.0-67.0","74256","","","","","","triplet","1371.6000001430511","","","","1","stimuli/boats_uppercase.png","stimuli/stim009_animate_face_1.png","stimuli/boats_lowercase.png","62"
"html-button-response-mod","68","303964","0.0-68.0","74256","","","","","","triplet","2629.5","","","","0","stimuli/boats_uppercase.png","stimuli/stim008_animate_bird_4.png","stimuli/stim021_inanimate_tools_1.png","63"
"html-button-response-mod","69","305624","0.0-69.0","74256","","","","","","triplet","1157.5","","","","2","stimuli/stim018_inanimate_tree_2.png","stimuli/stim017_inanimate_tree_1.png","stimuli/stim008_animate_bird_4.png","64"
"html-button-response-mod","70","307226","0.0-70.0","74256","","","","","","triplet","1099.7999999523163","","","","2","stimuli/stim019_inanimate_tree_3.png","stimuli/stim017_inanimate_tree_1.png","stimuli/boats_uppercase.png","65"
"html-button-response-mod","71","310146","0.0-71.0","74256","","","","","","triplet","2417.7999999523163","","","","2","stimuli/stim006_animate_bird_2.png","stimuli/stim007_animate_bird_3.png","stimuli/tree_lowercase.png","66"
"html-button-response-mod","72","313781","0.0-72.0","74256","","","","","","triplet","3132.5999999046326","","","","1","stimuli/stim013_inanimate_boats_1.png","stimuli/fish_uppercase.png","stimuli/stim017_inanimate_tree_1.png","67"
"html-button-response-mod","73","319100","0.0-73.0","74256","","","","","","triplet","4817.299999952316","","","","0","stimuli/stim005_animate_bird_1.png","stimuli/stim024_inanimate_tools_4.png","stimuli/stim014_inanimate_boats_2.png","68"
"html-button-response-mod","74","321352","0.0-74.0","74256","","","","","","triplet","1748.6000001430511","","","","2","stimuli/stim019_inanimate_tree_3.png","stimuli/stim014_inanimate_boats_2.png","stimuli/stim001_animate_fish_1.png","69"
"html-button-response-mod","75","324066","0.0-75.0","74256","","","","","","triplet","2212.5999999046326","","","","2","stimuli/stim016_inanimate_boats_4.png","stimuli/boats_lowercase.png","stimuli/fish_lowercase.png","70"
"html-button-response-mod","76","326806","0.0-76.0","74256","","","","","","triplet","2237.100000143051","","","","1","stimuli/boats_uppercase.png","stimuli/stim002_animate_fish_2.png","stimuli/tools_uppercase.png","71"
"html-button-response-mod","77","328301","0.0-77.0","74256","","","","","","triplet","992","","","","1","stimuli/fish_lowercase.png","stimuli/tree_uppercase.png","stimuli/stim001_animate_fish_1.png","72"
"html-button-response-mod","78","331236","0.0-78.0","74256","","","","","","triplet","2433.300000190735","","","","1","stimuli/stim021_inanimate_tools_1.png","stimuli/fish_lowercase.png","stimuli/stim010_animate_face_2.png","73"
"html-button-response-mod","79","334343","0.0-79.0","74256","","","","","","triplet","2603.699999809265","","","","0","stimuli/boats_lowercase.png","stimuli/stim004_animate_fish_4.png","stimuli/stim012_animate_face_4.png","74"
"html-button-response-mod","80","336459","0.0-80.0","74256","","","","","","triplet","1613.2000000476837","","","","0","stimuli/stim012_animate_face_4.png","stimuli/stim015_inanimate_boats_3.png","stimuli/tools_uppercase.png","75"
"html-button-response-mod","81","339043","0.0-81.0","74256","","","","","","triplet","2077.7999999523163","","","","1","stimuli/stim013_inanimate_boats_1.png","stimuli/stim008_animate_bird_4.png","stimuli/stim024_inanimate_tools_4.png","76"
"html-button-response-mod","82","341099","0.0-82.0","74256","","","","","","triplet","1553.7000000476837","","","","0","stimuli/bird_uppercase.png","stimuli/face_lowercase.png","stimuli/stim011_animate_face_3.png","77"
"html-button-response-mod","83","344859","0.0-83.0","74256","","","","","","triplet","3258.4000000953674","","","","1","stimuli/bird_lowercase.png","stimuli/stim006_animate_bird_2.png","stimuli/tools_lowercase.png","78"
"html-button-response-mod","84","346889","0.0-84.0","74256","","","","","","triplet","1525.8999998569489","","","","0","stimuli/stim018_inanimate_tree_2.png","stimuli/boats_lowercase.png","stimuli/stim015_inanimate_boats_3.png","79"
"html-button-response-mod","85","348740","0.0-85.0","74256","","","","","","triplet","1347.2000000476837","","","","1","stimuli/face_uppercase.png","stimuli/stim023_inanimate_tools_3.png","stimuli/stim001_animate_fish_1.png","80"
"html-button-response-mod","86","352934","0.0-86.0","74256","","","","","","triplet","3691.4000000953674","","","","2","stimuli/stim008_animate_bird_4.png","stimuli/stim017_inanimate_tree_1.png","stimuli/stim014_inanimate_boats_2.png","81"
"html-button-response-mod","87","354879","0.0-87.0","74256","","","","","","triplet","1442.4000000953674","","","","1","stimuli/boats_lowercase.png","stimuli/fish_uppercase.png","stimuli/stim013_inanimate_boats_1.png","82"
"html-button-response-mod","88","357754","0.0-88.0","74256","","","","","","triplet","2372.5","","","","0","stimuli/stim018_inanimate_tree_2.png","stimuli/tools_lowercase.png","stimuli/stim014_inanimate_boats_2.png","83"
"html-button-response-mod","89","364514","0.0-89.0","74256","","","","","","triplet","6258.900000095367","","","","1","stimuli/stim005_animate_bird_1.png","stimuli/stim010_animate_face_2.png","stimuli/stim003_animate_fish_3.png","84"
"html-button-response-mod","90","378496","0.0-90.0","74256","","","","","","triplet","13478.900000095367","","","","1","stimuli/stim017_inanimate_tree_1.png","stimuli/stim013_inanimate_boats_1.png","stimuli/stim007_animate_bird_3.png","85"
"html-button-response-mod","91","380171","0.0-91.0","74256","","","","","","triplet","1173.0999999046326","","","","1","stimuli/stim018_inanimate_tree_2.png","stimuli/tools_uppercase.png","stimuli/stim019_inanimate_tree_3.png","86"
"html-button-response-mod","92","382251","0.0-92.0","74256","","","","","","triplet","1577.2999999523163","","","","1","stimuli/stim020_inanimate_tree_4.png","stimuli/stim024_inanimate_tools_4.png","stimuli/stim018_inanimate_tree_2.png","87"
"html-button-response-mod","93","384071","0.0-93.0","74256","","","","","","triplet","1317.8999998569489","","","","1","stimuli/stim024_inanimate_tools_4.png","stimuli/stim009_animate_face_1.png","stimuli/stim013_inanimate_boats_1.png","88"
"html-button-response-mod","94","385760","0.0-94.0","74256","","","","","","triplet","1186.8000001907349","","","","2","stimuli/stim008_animate_bird_4.png","stimuli/stim006_animate_bird_2.png","stimuli/tools_lowercase.png","89"
"html-button-response-mod","95","388161","0.0-95.0","74256","","","","","","triplet","1898.0999999046326","","","","0","stimuli/tree_lowercase.png","stimuli/stim002_animate_fish_2.png","stimuli/fish_uppercase.png","90"
"html-button-response-mod","96","390736","0.0-96.0","74256","","","","","","triplet","2073.399999856949","","","","1","stimuli/stim014_inanimate_boats_2.png","stimuli/stim010_animate_face_2.png","stimuli/stim003_animate_fish_3.png","91"
"html-button-response-mod","97","394387","0.0-97.0","74256","","","","","","triplet","3147.4000000953674","","","","2","stimuli/stim018_inanimate_tree_2.png","stimuli/stim020_inanimate_tree_4.png","stimuli/tree_uppercase.png","92"
"html-button-response-mod","98","396550","0.0-98.0","74256","","","","","","triplet","1660.4000000953674","","","","1","stimuli/tools_uppercase.png","stimuli/bird_uppercase.png","stimuli/stim016_inanimate_boats_4.png","93"
"html-button-response-mod","99","404188","0.0-99.0","74256","","","","","","triplet","7136.5","","","","1","stimuli/stim011_animate_face_3.png","stimuli/fish_uppercase.png","stimuli/stim024_inanimate_tools_4.png","94"
"html-button-response-mod","100","406447","0.0-100.0","74256","","","","","","triplet","1755.7000000476837","","","","1","stimuli/stim012_animate_face_4.png","stimuli/stim016_inanimate_boats_4.png","stimuli/stim001_animate_fish_1.png","95"
"html-button-response-mod","101","408232","0.0-101.0","74256","","","","","","triplet","1282.4000000953674","","","","0","stimuli/stim021_inanimate_tools_1.png","stimuli/stim012_animate_face_4.png","stimuli/face_uppercase.png","96"
"html-button-response-mod","102","410956","0.0-102.0","74256","","","","","","triplet","2221.2999999523163","","","","0","stimuli/stim009_animate_face_1.png","stimuli/tree_lowercase.png","stimuli/stim008_animate_bird_4.png","97"
"html-button-response-mod","103","414206","0.0-103.0","74256","","","","","","triplet","2748.2999999523163","","","","2","stimuli/stim015_inanimate_boats_3.png","stimuli/bird_uppercase.png","stimuli/stim011_animate_face_3.png","98"
"html-button-response-mod","104","416088","0.0-104.0","74256","","","","","","triplet","1379.4000000953674","","","","2","stimuli/boats_lowercase.png","stimuli/stim014_inanimate_boats_2.png","stimuli/bird_uppercase.png","99"
"html-button-response","105","417959","0.0-105.0","74256","","","","","","break","1366.7000000476837","<p>BREAK</p><p>Take a break for as long as you need</p><p>Click the button to continue</p>","0","","","","","",""
"html-button-response-mod","106","422258","0.0-106.0","74256","","","","","","triplet","4296.600000143051","","","","0","stimuli/stim010_animate_face_2.png","stimuli/stim005_animate_bird_1.png","stimuli/tree_uppercase.png","100"
"html-button-response-mod","107","424021","0.0-107.0","74256","","","","","","triplet","1261.3999998569489","","","","2","stimuli/stim017_inanimate_tree_1.png","stimuli/stim013_inanimate_boats_1.png","stimuli/bird_uppercase.png","101"
"html-button-response-mod","108","426176","0.0-108.0","74256","","","","","","triplet","1653.1000001430511","","","","2","stimuli/fish_uppercase.png","stimuli/stim004_animate_fish_4.png","stimuli/tree_lowercase.png","102"
"html-button-response-mod","109","428704","0.0-109.0","74256","","","","","","triplet","2025.9000000953674","","","","2","stimuli/stim001_animate_fish_1.png","stimuli/stim011_animate_face_3.png","stimuli/stim016_inanimate_boats_4.png","103"
"html-button-response-mod","110","431809","0.0-110.0","74256","","","","","","triplet","2603.2999999523163","","","","0","stimuli/face_uppercase.png","stimuli/bird_uppercase.png","stimuli/fish_lowercase.png","104"
"html-button-response-mod","111","434198","0.0-111.0","74256","","","","","","triplet","1886.2999999523163","","","","0","stimuli/boats_lowercase.png","stimuli/stim004_animate_fish_4.png","stimuli/stim001_animate_fish_1.png","105"
"html-button-response-mod","112","436564","0.0-112.0","74256","","","","","","triplet","1864.2000000476837","","","","2","stimuli/stim020_inanimate_tree_4.png","stimuli/stim007_animate_bird_3.png","stimuli/stim012_animate_face_4.png","106"
"html-button-response-mod","113","438199","0.0-113.0","74256","","","","","","triplet","1132.1999998092651","","","","2","stimuli/stim007_animate_bird_3.png","stimuli/boats_lowercase.png","stimuli/stim023_inanimate_tools_3.png","107"
"html-button-response-mod","114","439804","0.0-114.0","74256","","","","","","triplet","1102.8000001907349","","","","2","stimuli/stim008_animate_bird_4.png","stimuli/stim005_animate_bird_1.png","stimuli/bird_lowercase.png","108"
"html-button-response-mod","115","442306","0.0-115.0","74256","","","","","","triplet","1999.6999998092651","","","","2","stimuli/stim016_inanimate_boats_4.png","stimuli/tools_lowercase.png","stimuli/stim002_animate_fish_2.png","109"
"html-button-response-mod","116","444490","0.0-116.0","74256","","","","","","triplet","1681.2999999523163","","","","0","stimuli/tools_uppercase.png","stimuli/stim004_animate_fish_4.png","stimuli/face_lowercase.png","110"
"html-button-response-mod","117","446708","0.0-117.0","74256","","","","","","triplet","1715.3999998569489","","","","0","stimuli/stim024_inanimate_tools_4.png","stimuli/stim001_animate_fish_1.png","stimuli/face_uppercase.png","111"
"html-button-response-mod","118","449988","0.0-118.0","74256","","","","","","triplet","2777.9000000953674","","","","2","stimuli/tree_lowercase.png","stimuli/stim019_inanimate_tree_3.png","stimuli/boats_uppercase.png","112"
"html-button-response-mod","119","457361","0.0-119.0","74256","","","","","","triplet","6871.899999856949","","","","0","stimuli/stim006_animate_bird_2.png","stimuli/stim008_animate_bird_4.png","stimuli/stim005_animate_bird_1.png","113"
"html-button-response-mod","120","460223","0.0-120.0","74256","","","","","","triplet","2359.2999999523163","","","","1","stimuli/stim013_inanimate_boats_1.png","stimuli/face_lowercase.png","stimuli/stim023_inanimate_tools_3.png","114"
"html-button-response-mod","121","462248","0.0-121.0","74256","","","","","","triplet","1517.8999998569489","","","","2","stimuli/stim014_inanimate_boats_2.png","stimuli/stim021_inanimate_tools_1.png","stimuli/bird_uppercase.png","115"
"html-button-response-mod","122","464647","0.0-122.0","74256","","","","","","triplet","1896.7000000476837","","","","2","stimuli/tools_uppercase.png","stimuli/stim024_inanimate_tools_4.png","stimuli/stim001_animate_fish_1.png","116"
"html-button-response-mod","123","466851","0.0-123.0","74256","","","","","","triplet","1701.3999998569489","","","","1","stimuli/stim024_inanimate_tools_4.png","stimuli/stim008_animate_bird_4.png","stimuli/stim023_inanimate_tools_3.png","117"
"html-button-response-mod","124","469227","0.0-124.0","74256","","","","","","triplet","1873.5","","","","2","stimuli/stim015_inanimate_boats_3.png","stimuli/stim018_inanimate_tree_2.png","stimuli/stim008_animate_bird_4.png","118"
"html-button-response-mod","125","470900","0.0-125.0","74256","","","","","","triplet","1170.8999998569489","","","","1","stimuli/stim005_animate_bird_1.png","stimuli/stim020_inanimate_tree_4.png","stimuli/stim004_animate_fish_4.png","119"
"html-button-response-mod","126","472487","0.0-126.0","74256","","","","","","triplet","1085.4000000953674","","","","2","stimuli/stim008_animate_bird_4.png","stimuli/bird_uppercase.png","stimuli/stim016_inanimate_boats_4.png","120"
"html-button-response-mod","127","474102","0.0-127.0","74256","","","","","","triplet","1110.3000001907349","","","","2","stimuli/stim004_animate_fish_4.png","stimuli/stim002_animate_fish_2.png","stimuli/stim010_animate_face_2.png","121"
"html-button-response-mod","128","476848","0.0-128.0","74256","","","","","","triplet","2242.5","","","","2","stimuli/tools_uppercase.png","stimuli/stim021_inanimate_tools_1.png","stimuli/stim017_inanimate_tree_1.png","122"
"html-button-response-mod","129","478409","0.0-129.0","74256","","","","","","triplet","1058.7999999523163","","","","1","stimuli/tools_uppercase.png","stimuli/boats_uppercase.png","stimuli/tools_lowercase.png","123"
"html-button-response-mod","130","481557","0.0-130.0","74256","","","","","","triplet","2646.5999999046326","","","","0","stimuli/boats_uppercase.png","stimuli/stim008_animate_bird_4.png","stimuli/fish_lowercase.png","124"
"html-button-response-mod","131","483455","0.0-131.0","74256","","","","","","triplet","1396.6000001430511","","","","1","stimuli/tools_lowercase.png","stimuli/stim005_animate_bird_1.png","stimuli/stim021_inanimate_tools_1.png","125"
"html-button-response-mod","132","485199","0.0-132.0","74256","","","","","","triplet","1241.5","","","","0","stimuli/tree_lowercase.png","stimuli/stim004_animate_fish_4.png","stimuli/stim011_animate_face_3.png","126"
"html-button-response-mod","133","486970","0.0-133.0","74256","","","","","","triplet","1268","","","","1","stimuli/stim005_animate_bird_1.png","stimuli/fish_uppercase.png","stimuli/bird_lowercase.png","127"
"html-button-response-mod","134","489210","0.0-134.0","74256","","","","","","triplet","1735.5","","","","1","stimuli/stim003_animate_fish_3.png","stimuli/stim011_animate_face_3.png","stimuli/stim006_animate_bird_2.png","128"
"html-button-response-mod","135","491575","0.0-135.0","74256","","","","","","triplet","1861.7000000476837","","","","2","stimuli/stim002_animate_fish_2.png","stimuli/fish_lowercase.png","stimuli/tree_lowercase.png","129"
"html-button-response-mod","136","493993","0.0-136.0","74256","","","","","","triplet","1915.5999999046326","","","","0","stimuli/boats_lowercase.png","stimuli/face_lowercase.png","stimuli/bird_uppercase.png","130"
"html-button-response-mod","137","495616","0.0-137.0","74256","","","","","","triplet","1121.7000000476837","","","","2","stimuli/stim008_animate_bird_4.png","stimuli/bird_lowercase.png","stimuli/stim021_inanimate_tools_1.png","131"
"html-button-response-mod","138","497728","0.0-138.0","74256","","","","","","triplet","1609.9000000953674","","","","2","stimuli/stim004_animate_fish_4.png","stimuli/stim014_inanimate_boats_2.png","stimuli/stim009_animate_face_1.png","132"
"html-button-response-mod","139","499246","0.0-139.0","74256","","","","","","triplet","1013.8000001907349","","","","1","stimuli/stim008_animate_bird_4.png","stimuli/stim013_inanimate_boats_1.png","stimuli/stim006_animate_bird_2.png","133"
"html-button-response-mod","140","501827","0.0-140.0","74256","","","","","","triplet","2079.5","","","","0","stimuli/stim020_inanimate_tree_4.png","stimuli/boats_lowercase.png","stimuli/stim021_inanimate_tools_1.png","134"
"html-button-response-mod","141","503363","0.0-141.0","74256","","","","","","triplet","1030.2999999523163","","","","2","stimuli/stim002_animate_fish_2.png","stimuli/stim005_animate_bird_1.png","stimuli/tree_uppercase.png","135"
"html-button-response-mod","142","505654","0.0-142.0","74256","","","","","","triplet","1788.2999999523163","","","","0","stimuli/stim008_animate_bird_4.png","stimuli/stim003_animate_fish_3.png","stimuli/fish_uppercase.png","136"
"html-button-response-mod","143","507725","0.0-143.0","74256","","","","","","triplet","1569.5","","","","0","stimuli/stim019_inanimate_tree_3.png","stimuli/stim023_inanimate_tools_3.png","stimuli/stim022_inanimate_tools_2.png","137"
"html-button-response-mod","144","510410","0.0-144.0","74256","","","","","","triplet","2182.0999999046326","","","","0","stimuli/stim010_animate_face_2.png","stimuli/tools_lowercase.png","stimuli/stim024_inanimate_tools_4.png","138"
"html-button-response-mod","145","514119","0.0-145.0","74256","","","","","","triplet","3207.100000143051","","","","1","stimuli/stim011_animate_face_3.png","stimuli/boats_lowercase.png","stimuli/fish_uppercase.png","139"
"html-button-response-mod","146","516379","0.0-146.0","74256","","","","","","triplet","1758.6999998092651","","","","2","stimuli/stim013_inanimate_boats_1.png","stimuli/boats_lowercase.png","stimuli/bird_uppercase.png","140"
"html-button-response-mod","147","519190","0.0-147.0","74256","","","","","","triplet","2309","","","","2","stimuli/face_uppercase.png","stimuli/stim005_animate_bird_1.png","stimuli/stim014_inanimate_boats_2.png","141"
"html-button-response-mod","148","522477","0.0-148.0","74256","","","","","","triplet","2784.4000000953674","","","","2","stimuli/face_uppercase.png","stimuli/tree_lowercase.png","stimuli/stim021_inanimate_tools_1.png","142"
"html-button-response-mod","149","524081","0.0-149.0","74256","","","","","","triplet","1101.9000000953674","","","","2","stimuli/stim022_inanimate_tools_2.png","stimuli/tools_lowercase.png","stimuli/stim014_inanimate_boats_2.png","143"
"html-button-response-mod","150","526336","0.0-150.0","74256","","","","","","triplet","1752.1000001430511","","","","0","stimuli/stim002_animate_fish_2.png","stimuli/stim014_inanimate_boats_2.png","stimuli/stim022_inanimate_tools_2.png","144"
"html-button-response-mod","151","536677","0.0-151.0","74256","","","","","","triplet","9838.799999952316","","","","0","stimuli/stim022_inanimate_tools_2.png","stimuli/stim021_inanimate_tools_1.png","stimuli/stim023_inanimate_tools_3.png","145"
"html-button-response-mod","152","538838","0.0-152.0","74256","","","","","","triplet","1658.5","","","","0","stimuli/tools_lowercase.png","stimuli/stim012_animate_face_4.png","stimuli/face_lowercase.png","146"
"html-button-response-mod","153","540249","0.0-153.0","74256","","","","","","triplet","908.8999998569489","","","","2","stimuli/stim017_inanimate_tree_1.png","stimuli/stim019_inanimate_tree_3.png","stimuli/stim024_inanimate_tools_4.png","147"
"html-button-response-mod","154","542841","0.0-154.0","74256","","","","","","triplet","2088.899999856949","","","","0","stimuli/stim007_animate_bird_3.png","stimuli/stim013_inanimate_boats_1.png","stimuli/fish_uppercase.png","148"
"html-button-response-mod","155","544565","0.0-155.0","74256","","","","","","triplet","1220.2999999523163","","","","0","stimuli/fish_uppercase.png","stimuli/stim011_animate_face_3.png","stimuli/face_uppercase.png","149"
"html-button-response","156","546558","0.0-156.0","74256","","","","","","break","1490.5999999046326","<p>BREAK</p><p>Take a break for as long as you need</p><p>Click the button to continue</p>","0","","","","","",""
"html-button-response-mod","157","548188","0.0-157.0","74256","","","","","","triplet","1627.4000000953674","","","","0","stimuli/face_uppercase.png","stimuli/stim005_animate_bird_1.png","stimuli/fish_lowercase.png","150"
"html-button-response-mod","158","551357","0.0-158.0","74256","","","","","","triplet","2667.4000000953674","","","","2","stimuli/bird_lowercase.png","stimuli/stim017_inanimate_tree_1.png","stimuli/stim016_inanimate_boats_4.png","151"
"html-button-response-mod","159","553233","0.0-159.0","74256","","","","","","triplet","1373.4000000953674","","","","1","stimuli/stim011_animate_face_3.png","stimuli/tools_uppercase.png","stimuli/stim007_animate_bird_3.png","152"
"html-button-response-mod","160","556218","0.0-160.0","74256","","","","","","triplet","2480.5999999046326","","","","1","stimuli/stim010_animate_face_2.png","stimuli/tree_lowercase.png","stimuli/stim001_animate_fish_1.png","153"
"html-button-response-mod","161","557966","0.0-161.0","74256","","","","","","triplet","1245.4000000953674","","","","2","stimuli/tools_uppercase.png","stimuli/stim021_inanimate_tools_1.png","stimuli/boats_uppercase.png","154"
"html-button-response-mod","162","561045","0.0-162.0","74256","","","","","","triplet","2577.199999809265","","","","1","stimuli/fish_uppercase.png","stimuli/stim020_inanimate_tree_4.png","stimuli/stim005_animate_bird_1.png","155"
"html-button-response-mod","163","562657","0.0-163.0","74256","","","","","","triplet","1110.2999999523163","","","","2","stimuli/face_uppercase.png","stimuli/stim012_animate_face_4.png","stimuli/stim005_animate_bird_1.png","156"
"html-button-response-mod","164","564660","0.0-164.0","74256","","","","","","triplet","1497.7999999523163","","","","2","stimuli/fish_lowercase.png","stimuli/boats_lowercase.png","stimuli/stim020_inanimate_tree_4.png","157"
"html-button-response-mod","165","566537","0.0-165.0","74256","","","","","","triplet","1373","","","","2","stimuli/stim013_inanimate_boats_1.png","stimuli/stim014_inanimate_boats_2.png","stimuli/stim018_inanimate_tree_2.png","158"
"html-button-response-mod","166","567906","0.0-166.0","74256","","","","","","triplet","865","","","","0","stimuli/stim019_inanimate_tree_3.png","stimuli/stim005_animate_bird_1.png","stimuli/stim008_animate_bird_4.png","159"
"html-button-response-mod","167","569406","0.0-167.0","74256","","","","","","triplet","998","","","","2","stimuli/stim014_inanimate_boats_2.png","stimuli/boats_uppercase.png","stimuli/stim018_inanimate_tree_2.png","160"
"html-button-response-mod","168","571122","0.0-168.0","74256","","","","","","triplet","1213.6000001430511","","","","2","stimuli/bird_uppercase.png","stimuli/stim007_animate_bird_3.png","stimuli/stim020_inanimate_tree_4.png","161"
"html-button-response-mod","169","573246","0.0-169.0","74256","","","","","","triplet","1622.0999999046326","","","","0","stimuli/stim020_inanimate_tree_4.png","stimuli/stim024_inanimate_tools_4.png","stimuli/stim016_inanimate_boats_4.png","162"
"html-button-response-mod","170","577055","0.0-170.0","74256","","","","","","triplet","3306.4000000953674","","","","2","stimuli/stim002_animate_fish_2.png","stimuli/stim007_animate_bird_3.png","stimuli/stim017_inanimate_tree_1.png","163"
"html-button-response-mod","171","578960","0.0-171.0","74256","","","","","","triplet","1403.2999999523163","","","","2","stimuli/stim022_inanimate_tools_2.png","stimuli/stim024_inanimate_tools_4.png","stimuli/stim012_animate_face_4.png","164"
"html-button-response-mod","172","580848","0.0-172.0","74256","","","","","","triplet","1385.2000000476837","","","","0","stimuli/stim021_inanimate_tools_1.png","stimuli/stim010_animate_face_2.png","stimuli/stim006_animate_bird_2.png","165"
"html-button-response-mod","173","584058","0.0-173.0","74256","","","","","","triplet","2707","","","","0","stimuli/stim017_inanimate_tree_1.png","stimuli/stim002_animate_fish_2.png","stimuli/stim013_inanimate_boats_1.png","166"
"html-button-response-mod","174","584610","0.0-174.0","74256","","","","","","triplet","49.40000009536743","","","","0","stimuli/tools_uppercase.png","stimuli/stim019_inanimate_tree_3.png","stimuli/stim008_animate_bird_4.png","167"
"html-button-response-mod","175","586550","0.0-175.0","74256","","","","","","triplet","1438.7999999523163","","","","0","stimuli/bird_uppercase.png","stimuli/stim011_animate_face_3.png","stimuli/stim010_animate_face_2.png","168"
"html-button-response-mod","176","588012","0.0-176.0","74256","","","","","","triplet","959.7000000476837","","","","2","stimuli/stim006_animate_bird_2.png","stimuli/stim005_animate_bird_1.png","stimuli/tools_uppercase.png","169"
"html-button-response-mod","177","589302","0.0-177.0","74256","","","","","","triplet","788.7000000476837","","","","0","stimuli/tools_lowercase.png","stimuli/stim001_animate_fish_1.png","stimuli/stim018_inanimate_tree_2.png","170"
"html-button-response-mod","178","590760","0.0-178.0","74256","","","","","","triplet","952.5","","","","1","stimuli/stim024_inanimate_tools_4.png","stimuli/fish_lowercase.png","stimuli/stim023_inanimate_tools_3.png","171"
"html-button-response-mod","179","592407","0.0-179.0","74256","","","","","","triplet","1144.7000000476837","","","","2","stimuli/tree_lowercase.png","stimuli/stim019_inanimate_tree_3.png","stimuli/bird_uppercase.png","172"
"html-button-response-mod","180","594818","0.0-180.0","74256","","","","","","triplet","1909.3999998569489","","","","0","stimuli/stim013_inanimate_boats_1.png","stimuli/stim019_inanimate_tree_3.png","stimuli/stim003_animate_fish_3.png","173"
"html-button-response-mod","181","598211","0.0-181.0","74256","","","","","","triplet","2890.4000000953674","","","","2","stimuli/face_uppercase.png","stimuli/bird_uppercase.png","stimuli/tools_lowercase.png","174"
"html-button-response-mod","182","599902","0.0-182.0","74256","","","","","","triplet","1188.7000000476837","","","","2","stimuli/stim012_animate_face_4.png","stimuli/stim011_animate_face_3.png","stimuli/stim014_inanimate_boats_2.png","175"
"html-button-response-mod","183","602140","0.0-183.0","74256","","","","","","triplet","1736.2999999523163","","","","2","stimuli/face_lowercase.png","stimuli/fish_uppercase.png","stimuli/boats_lowercase.png","176"
"html-button-response-mod","184","603742","0.0-184.0","74256","","","","","","triplet","1100.2999999523163","","","","0","stimuli/stim008_animate_bird_4.png","stimuli/stim017_inanimate_tree_1.png","stimuli/stim019_inanimate_tree_3.png","177"
"html-button-response-mod","185","605241","0.0-185.0","74256","","","","","","triplet","996.5","","","","1","stimuli/fish_lowercase.png","stimuli/stim009_animate_face_1.png","stimuli/stim003_animate_fish_3.png","178"
"html-button-response-mod","186","608145","0.0-186.0","74256","","","","","","triplet","2401.300000190735","","","","1","stimuli/stim005_animate_bird_1.png","stimuli/stim021_inanimate_tools_1.png","stimuli/stim019_inanimate_tree_3.png","179"
"html-button-response-mod","187","609997","0.0-187.0","74256","","","","","","triplet","1349.3000001907349","","","","1","stimuli/stim006_animate_bird_2.png","stimuli/stim014_inanimate_boats_2.png","stimuli/stim019_inanimate_tree_3.png","180"
"html-button-response-mod","188","611932","0.0-188.0","74256","","","","","","triplet","1433.2999999523163","","","","0","stimuli/boats_uppercase.png","stimuli/stim024_inanimate_tools_4.png","stimuli/stim007_animate_bird_3.png","181"
"html-button-response-mod","189","613815","0.0-189.0","74256","","","","","","triplet","1381.5","","","","1","stimuli/stim011_animate_face_3.png","stimuli/stim018_inanimate_tree_2.png","stimuli/stim005_animate_bird_1.png","182"
"html-button-response-mod","190","615543","0.0-190.0","74256","","","","","","triplet","1225.2999999523163","","","","0","stimuli/tree_uppercase.png","stimuli/stim002_animate_fish_2.png","stimuli/stim001_animate_fish_1.png","183"
"html-button-response-mod","191","618239","0.0-191.0","74256","","","","","","triplet","2193.5999999046326","","","","1","stimuli/face_lowercase.png","stimuli/stim017_inanimate_tree_1.png","stimuli/boats_lowercase.png","184"
"html-button-response-mod","192","622615","0.0-192.0","74256","","","","","","triplet","3873.9000000953674","","","","2","stimuli/stim006_animate_bird_2.png","stimuli/stim004_animate_fish_4.png","stimuli/stim010_animate_face_2.png","185"
"html-button-response-mod","193","625267","0.0-193.0","74256","","","","","","triplet","2149.399999856949","","","","2","stimuli/stim011_animate_face_3.png","stimuli/stim012_animate_face_4.png","stimuli/stim009_animate_face_1.png","186"
"html-button-response-mod","194","627154","0.0-194.0","74256","","","","","","triplet","1385","","","","0","stimuli/stim008_animate_bird_4.png","stimuli/tree_lowercase.png","stimuli/face_uppercase.png","187"
"html-button-response-mod","195","629468","0.0-195.0","74256","","","","","","triplet","1810.7999999523163","","","","1","stimuli/tools_lowercase.png","stimuli/stim016_inanimate_boats_4.png","stimuli/fish_lowercase.png","188"
"html-button-response-mod","196","631821","0.0-196.0","74256","","","","","","triplet","1851.2000000476837","","","","0","stimuli/stim014_inanimate_boats_2.png","stimuli/stim002_animate_fish_2.png","stimuli/stim020_inanimate_tree_4.png","189"
"html-button-response-mod","197","633327","0.0-197.0","74256","","","","","","triplet","1003.6999998092651","","","","0","stimuli/stim019_inanimate_tree_3.png","stimuli/stim005_animate_bird_1.png","stimuli/stim001_animate_fish_1.png","190"
"html-button-response-mod","198","635034","0.0-198.0","74256","","","","","","triplet","1204.5","","","","1","stimuli/stim004_animate_fish_4.png","stimuli/stim016_inanimate_boats_4.png","stimuli/stim008_animate_bird_4.png","191"
"html-button-response-mod","199","637049","0.0-199.0","74256","","","","","","triplet","1513","","","","2","stimuli/bird_uppercase.png","stimuli/stim010_animate_face_2.png","stimuli/tools_uppercase.png","192"
"html-button-response-mod","200","639102","0.0-200.0","74256","","","","","","triplet","1550.5","","","","1","stimuli/face_uppercase.png","stimuli/fish_lowercase.png","stimuli/stim009_animate_face_1.png","193"
"html-button-response-mod","201","640682","0.0-201.0","74256","","","","","","triplet","1078.0999999046326","","","","1","stimuli/stim008_animate_bird_4.png","stimuli/stim002_animate_fish_2.png","stimuli/stim005_animate_bird_1.png","194"
"html-button-response-mod","202","642452","0.0-202.0","74256","","","","","","triplet","1267.5999999046326","","","","2","stimuli/tree_uppercase.png","stimuli/tree_lowercase.png","stimuli/stim006_animate_bird_2.png","195"
"html-button-response-mod","203","643828","0.0-203.0","74256","","","","","","triplet","873","","","","0","stimuli/fish_lowercase.png","stimuli/stim012_animate_face_4.png","stimuli/stim023_inanimate_tools_3.png","196"
"html-button-response-mod","204","645263","0.0-204.0","74256","","","","","","triplet","931.8999998569489","","","","2","stimuli/stim020_inanimate_tree_4.png","stimuli/stim013_inanimate_boats_1.png","stimuli/boats_uppercase.png","197"
"html-button-response-mod","205","646662","0.0-205.0","74256","","","","","","triplet","897.0999999046326","","","","1","stimuli/stim004_animate_fish_4.png","stimuli/stim007_animate_bird_3.png","stimuli/stim013_inanimate_boats_1.png","198"
"html-button-response-mod","206","648103","0.0-206.0","74256","","","","","","triplet","938","","","","1","stimuli/fish_lowercase.png","stimuli/tools_lowercase.png","stimuli/stim001_animate_fish_1.png","199"
"html-button-response","207","649793","0.0-207.0","74256","","","","","","break","1188.7000000476837","<p>BREAK</p><p>Take a break for as long as you need</p><p>Click the button to continue</p>","0","","","","","",""
"html-button-response-mod","208","651258","0.0-208.0","74256","","","","","","triplet","1462.3999998569489","","","","0","stimuli/fish_lowercase.png","stimuli/stim022_inanimate_tools_2.png","stimuli/tools_uppercase.png","200"
"html-button-response-mod","209","653025","0.0-209.0","74256","","","","","","triplet","1264.2999999523163","","","","0","stimuli/fish_uppercase.png","stimuli/stim007_animate_bird_3.png","stimuli/bird_uppercase.png","201"
"html-button-response-mod","210","654988","0.0-210.0","74256","","","","","","triplet","1460.5999999046326","","","","1","stimuli/stim002_animate_fish_2.png","stimuli/stim019_inanimate_tree_3.png","stimuli/stim009_animate_face_1.png","202"
"html-button-response-mod","211","657235","0.0-211.0","74256","","","","","","triplet","1744.2999999523163","","","","2","stimuli/stim024_inanimate_tools_4.png","stimuli/boats_lowercase.png","stimuli/tree_lowercase.png","203"
"html-button-response-mod","212","658734","0.0-212.0","74256","","","","","","triplet","997.2000000476837","","","","2","stimuli/stim023_inanimate_tools_3.png","stimuli/tools_lowercase.png","stimuli/stim011_animate_face_3.png","204"
"html-button-response-mod","213","660503","0.0-213.0","74256","","","","","","triplet","1264.7999999523163","","","","2","stimuli/stim003_animate_fish_3.png","stimuli/stim005_animate_bird_1.png","stimuli/tools_lowercase.png","205"
"html-button-response-mod","214","661864","0.0-214.0","74256","","","","","","triplet","858.5999999046326","","","","0","stimuli/fish_lowercase.png","stimuli/stim019_inanimate_tree_3.png","stimuli/stim006_animate_bird_2.png","206"
"html-button-response-mod","215","663688","0.0-215.0","74256","","","","","","triplet","1319.9000000953674","","","","0","stimuli/stim019_inanimate_tree_3.png","stimuli/stim013_inanimate_boats_1.png","stimuli/stim014_inanimate_boats_2.png","207"
"html-button-response-mod","216","667586","0.0-216.0","74256","","","","","","triplet","3396.2000000476837","","","","0","stimuli/boats_uppercase.png","stimuli/tree_uppercase.png","stimuli/face_lowercase.png","208"
"html-button-response-mod","217","670086","0.0-217.0","74256","","","","","","triplet","1998.2000000476837","","","","2","stimuli/boats_lowercase.png","stimuli/bird_lowercase.png","stimuli/stim011_animate_face_3.png","209"
"html-button-response-mod","218","671589","0.0-218.0","74256","","","","","","triplet","1000.6000001430511","","","","1","stimuli/stim013_inanimate_boats_1.png","stimuli/stim020_inanimate_tree_4.png","stimuli/stim016_inanimate_boats_4.png","210"
"html-button-response-mod","219","672904","0.0-219.0","74256","","","","","","triplet","812.1000001430511","","","","0","stimuli/stim010_animate_face_2.png","stimuli/stim001_animate_fish_1.png","stimuli/stim002_animate_fish_2.png","211"
"html-button-response-mod","220","674392","0.0-220.0","74256","","","","","","triplet","986.9000000953674","","","","1","stimuli/bird_uppercase.png","stimuli/stim015_inanimate_boats_3.png","stimuli/stim005_animate_bird_1.png","212"
"html-button-response-mod","221","676151","0.0-221.0","74256","","","","","","triplet","1257.0999999046326","","","","0","stimuli/boats_uppercase.png","stimuli/face_uppercase.png","stimuli/stim004_animate_fish_4.png","213"
"html-button-response-mod","222","678004","0.0-222.0","74256","","","","","","triplet","1346.5","","","","1","stimuli/stim022_inanimate_tools_2.png","stimuli/boats_lowercase.png","stimuli/stim001_animate_fish_1.png","214"
"html-button-response-mod","223","679493","0.0-223.0","74256","","","","","","triplet","986.0999999046326","","","","1","stimuli/stim020_inanimate_tree_4.png","stimuli/bird_uppercase.png","stimuli/stim017_inanimate_tree_1.png","215"
"html-button-response-mod","224","681604","0.0-224.0","74256","","","","","","triplet","1609.3999998569489","","","","0","stimuli/bird_uppercase.png","stimuli/tools_lowercase.png","stimuli/stim013_inanimate_boats_1.png","216"
"html-button-response-mod","225","683199","0.0-225.0","74256","","","","","","triplet","1092.2000000476837","","","","2","stimuli/boats_lowercase.png","stimuli/stim014_inanimate_boats_2.png","stimuli/stim012_animate_face_4.png","217"
"html-button-response-mod","226","685046","0.0-226.0","74256","","","","","","triplet","1344","","","","2","stimuli/stim004_animate_fish_4.png","stimuli/stim008_animate_bird_4.png","stimuli/boats_lowercase.png","218"
"html-button-response-mod","227","687916","0.0-227.0","74256","","","","","","triplet","2368.399999856949","","","","0","stimuli/stim021_inanimate_tools_1.png","stimuli/stim015_inanimate_boats_3.png","stimuli/stim008_animate_bird_4.png","219"
"html-button-response-mod","228","690987","0.0-228.0","74256","","","","","","triplet","2569","","","","0","stimuli/fish_uppercase.png","stimuli/bird_uppercase.png","stimuli/stim008_animate_bird_4.png","220"
"html-button-response-mod","229","692853","0.0-229.0","74256","","","","","","triplet","1362.8999998569489","","","","1","stimuli/stim006_animate_bird_2.png","stimuli/stim003_animate_fish_3.png","stimuli/bird_uppercase.png","221"
"html-button-response-mod","230","694428","0.0-230.0","74256","","","","","","triplet","1072.2000000476837","","","","2","stimuli/stim017_inanimate_tree_1.png","stimuli/stim004_animate_fish_4.png","stimuli/stim024_inanimate_tools_4.png","222"
"html-button-response-mod","231","695814","0.0-231.0","74256","","","","","","triplet","883.7999999523163","","","","1","stimuli/stim003_animate_fish_3.png","stimuli/stim021_inanimate_tools_1.png","stimuli/stim005_animate_bird_1.png","223"
"html-button-response-mod","232","697356","0.0-232.0","74256","","","","","","triplet","1039","","","","0","stimuli/stim009_animate_face_1.png","stimuli/stim007_animate_bird_3.png","stimuli/fish_lowercase.png","224"
"html-button-response-mod","233","701982","0.0-233.0","74256","","","","","","triplet","4123.600000143051","","","","0","stimuli/stim010_animate_face_2.png","stimuli/stim013_inanimate_boats_1.png","stimuli/stim023_inanimate_tools_3.png","225"
"html-button-response-mod","234","704250","0.0-234.0","74256","","","","","","triplet","1765.2999999523163","","","","2","stimuli/stim015_inanimate_boats_3.png","stimuli/stim016_inanimate_boats_4.png","stimuli/tools_lowercase.png","226"
"html-button-response-mod","235","705759","0.0-235.0","74256","","","","","","triplet","1004","","","","0","stimuli/tools_uppercase.png","stimuli/stim011_animate_face_3.png","stimuli/stim004_animate_fish_4.png","227"
"html-button-response-mod","236","707827","0.0-236.0","74256","","","","","","triplet","1565.2999999523163","","","","1","stimuli/stim024_inanimate_tools_4.png","stimuli/stim014_inanimate_boats_2.png","stimuli/tools_uppercase.png","228"
"html-button-response-mod","237","709332","0.0-237.0","74256","","","","","","triplet","1002.6000001430511","","","","2","stimuli/face_uppercase.png","stimuli/stim011_animate_face_3.png","stimuli/stim005_animate_bird_1.png","229"
"html-button-response-mod","238","712654","0.0-238.0","74256","","","","","","triplet","2820.5","","","","0","stimuli/face_lowercase.png","stimuli/stim003_animate_fish_3.png","stimuli/stim010_animate_face_2.png","230"
"html-button-response-mod","239","715931","0.0-239.0","74256","","","","","","triplet","2770.5","","","","2","stimuli/stim007_animate_bird_3.png","stimuli/fish_lowercase.png","stimuli/boats_uppercase.png","231"
"html-button-response-mod","240","717384","0.0-240.0","74256","","","","","","triplet","945.7999999523163","","","","0","stimuli/stim021_inanimate_tools_1.png","stimuli/stim012_animate_face_4.png","stimuli/stim013_inanimate_boats_1.png","232"
"html-button-response-mod","241","719270","0.0-241.0","74256","","","","","","triplet","1379.7999999523163","","","","2","stimuli/stim007_animate_bird_3.png","stimuli/face_uppercase.png","stimuli/stim019_inanimate_tree_3.png","233"
"html-button-response-mod","242","720951","0.0-242.0","74256","","","","","","triplet","1172.1000001430511","","","","2","stimuli/stim010_animate_face_2.png","stimuli/stim023_inanimate_tools_3.png","stimuli/fish_uppercase.png","234"
"html-button-response-mod","243","722394","0.0-243.0","74256","","","","","","triplet","940","","","","0","stimuli/face_lowercase.png","stimuli/stim017_inanimate_tree_1.png","stimuli/stim021_inanimate_tools_1.png","235"
"html-button-response-mod","244","724397","0.0-244.0","74256","","","","","","triplet","1498.5","","","","1","stimuli/stim010_animate_face_2.png","stimuli/stim019_inanimate_tree_3.png","stimuli/stim007_animate_bird_3.png","236"
"html-button-response-mod","245","726257","0.0-245.0","74256","","","","","","triplet","1355.0999999046326","","","","2","stimuli/stim013_inanimate_boats_1.png","stimuli/stim015_inanimate_boats_3.png","stimuli/stim011_animate_face_3.png","237"
"html-button-response-mod","246","728142","0.0-246.0","74256","","","","","","triplet","1380.9000000953674","","","","2","stimuli/stim001_animate_fish_1.png","stimuli/stim011_animate_face_3.png","stimuli/tools_lowercase.png","238"
"html-button-response-mod","247","729853","0.0-247.0","74256","","","","","","triplet","1207.2999999523163","","","","2","stimuli/stim002_animate_fish_2.png","stimuli/stim006_animate_bird_2.png","stimuli/stim017_inanimate_tree_1.png","239"
"html-button-response-mod","248","731264","0.0-248.0","74256","","","","","","triplet","907.6000001430511","","","","2","stimuli/stim020_inanimate_tree_4.png","stimuli/stim023_inanimate_tools_3.png","stimuli/boats_lowercase.png","240"
"html-button-response-mod","249","732147","0.0-249.0","74256","","","","","","triplet","379.7000000476837","","","","2","stimuli/tree_lowercase.png","stimuli/fish_uppercase.png","stimuli/stim008_animate_bird_4.png","241"
"html-button-response-mod","250","732769","0.0-250.0","74256","","","","","","triplet","118.39999985694885","","","","2","stimuli/face_uppercase.png","stimuli/boats_lowercase.png","stimuli/stim006_animate_bird_2.png","242"
"html-button-response-mod","251","733312","0.0-251.0","74256","","","","","","triplet","37.799999952316284","","","","2","stimuli/boats_lowercase.png","stimuli/bird_uppercase.png","stimuli/face_uppercase.png","243"
"html-button-response-mod","252","733899","0.0-252.0","74256","","","","","","triplet","83.70000004768372","","","","2","stimuli/stim001_animate_fish_1.png","stimuli/stim019_inanimate_tree_3.png","stimuli/boats_lowercase.png","244"
"html-button-response-mod","253","734506","0.0-253.0","74256","","","","","","triplet","100","","","","2","stimuli/stim007_animate_bird_3.png","stimuli/stim003_animate_fish_3.png","stimuli/stim015_inanimate_boats_3.png","245"
"html-button-response-mod","254","736348","0.0-254.0","74256","","","","","","triplet","1336.7000000476837","","","","0","stimuli/bird_lowercase.png","stimuli/stim015_inanimate_boats_3.png","stimuli/stim013_inanimate_boats_1.png","246"
"html-button-response-mod","255","737999","0.0-255.0","74256","","","","","","triplet","1147.8999998569489","","","","2","stimuli/stim002_animate_fish_2.png","stimuli/fish_uppercase.png","stimuli/stim008_animate_bird_4.png","247"
"html-button-response-mod","256","739899","0.0-256.0","74256","","","","","","triplet","1396.7000000476837","","","","0","stimuli/stim018_inanimate_tree_2.png","stimuli/stim014_inanimate_boats_2.png","stimuli/stim015_inanimate_boats_3.png","248"
"html-button-response-mod","257","741400","0.0-257.0","74256","","","","","","triplet","997.7000000476837","","","","2","stimuli/stim011_animate_face_3.png","stimuli/face_lowercase.png","stimuli/stim002_animate_fish_2.png","249"
"html-button-response","258","743412","0.0-258.0","74256","","","","","","break","1509.1000001430511","<p>BREAK</p><p>Take a break for as long as you need</p><p>Click the button to continue</p>","0","","","","","",""
"html-button-response-mod","259","744819","0.0-259.0","74256","","","","","","triplet","1405.2000000476837","","","","2","stimuli/stim022_inanimate_tools_2.png","stimuli/tools_lowercase.png","stimuli/bird_lowercase.png","250"
"html-button-response-mod","260","746344","0.0-260.0","74256","","","","","","triplet","1021.5","","","","0","stimuli/tree_uppercase.png","stimuli/tools_lowercase.png","stimuli/stim021_inanimate_tools_1.png","251"
"html-button-response-mod","261","750867","0.0-261.0","74256","","","","","","triplet","4019.5","","","","2","stimuli/stim019_inanimate_tree_3.png","stimuli/stim011_animate_face_3.png","stimuli/bird_lowercase.png","252"
"html-button-response-mod","262","752341","0.0-262.0","74256","","","","","","triplet","969.7999999523163","","","","2","stimuli/stim001_animate_fish_1.png","stimuli/boats_uppercase.png","stimuli/stim009_animate_face_1.png","253"
"html-button-response-mod","263","754083","0.0-263.0","74256","","","","","","triplet","1240.2000000476837","","","","2","stimuli/stim001_animate_fish_1.png","stimuli/fish_uppercase.png","stimuli/stim002_animate_fish_2.png","254"
"html-button-response-mod","264","756150","0.0-264.0","74256","","","","","","triplet","1563.7000000476837","","","","0","stimuli/stim024_inanimate_tools_4.png","stimuli/stim009_animate_face_1.png","stimuli/stim011_animate_face_3.png","255"
"html-button-response-mod","265","758894","0.0-265.0","74256","","","","","","triplet","2241.0999999046326","","","","2","stimuli/stim003_animate_fish_3.png","stimuli/tree_lowercase.png","stimuli/boats_uppercase.png","256"
"html-button-response-mod","266","760666","0.0-266.0","74256","","","","","","triplet","1270","","","","1","stimuli/boats_uppercase.png","stimuli/stim003_animate_fish_3.png","stimuli/stim015_inanimate_boats_3.png","257"
"html-button-response-mod","267","762749","0.0-267.0","74256","","","","","","triplet","1580.5","","","","1","stimuli/boats_uppercase.png","stimuli/tree_lowercase.png","stimuli/tools_lowercase.png","258"
"html-button-response-mod","268","764140","0.0-268.0","74256","","","","","","triplet","889.4000000953674","","","","1","stimuli/stim002_animate_fish_2.png","stimuli/stim020_inanimate_tree_4.png","stimuli/stim003_animate_fish_3.png","259"
"html-button-response-mod","269","765879","0.0-269.0","74256","","","","","","triplet","1236.5","","","","1","stimuli/stim002_animate_fish_2.png","stimuli/stim009_animate_face_1.png","stimuli/tools_uppercase.png","260"
"html-button-response-mod","270","767463","0.0-270.0","74256","","","","","","triplet","1081.5","","","","1","stimuli/stim023_inanimate_tools_3.png","stimuli/face_uppercase.png","stimuli/stim020_inanimate_tree_4.png","261"
"html-button-response-mod","271","768889","0.0-271.0","74256","","","","","","triplet","923.9000000953674","","","","2","stimuli/stim002_animate_fish_2.png","stimuli/stim005_animate_bird_1.png","stimuli/stim015_inanimate_boats_3.png","262"
"html-button-response-mod","272","770211","0.0-272.0","74256","","","","","","triplet","820.2999999523163","","","","0","stimuli/stim013_inanimate_boats_1.png","stimuli/stim012_animate_face_4.png","stimuli/stim018_inanimate_tree_2.png","263"
"html-button-response-mod","273","771481","0.0-273.0","74256","","","","","","triplet","767","","","","1","stimuli/stim018_inanimate_tree_2.png","stimuli/tools_lowercase.png","stimuli/stim020_inanimate_tree_4.png","264"
"html-button-response-mod","274","773109","0.0-274.0","74256","","","","","","triplet","1125.0999999046326","","","","2","stimuli/stim006_animate_bird_2.png","stimuli/stim021_inanimate_tools_1.png","stimuli/stim016_inanimate_boats_4.png","265"
"html-button-response-mod","275","775304","0.0-275.0","74256","","","","","","triplet","1692.3999998569489","","","","2","stimuli/stim020_inanimate_tree_4.png","stimuli/stim019_inanimate_tree_3.png","stimuli/tree_uppercase.png","266"
"html-button-response-mod","276","777720","0.0-276.0","74256","","","","","","triplet","1913.6000001430511","","","","1","stimuli/stim015_inanimate_boats_3.png","stimuli/tree_lowercase.png","stimuli/stim001_animate_fish_1.png","267"
"html-button-response-mod","277","779561","0.0-277.0","74256","","","","","","triplet","1338.5","","","","0","stimuli/stim008_animate_bird_4.png","stimuli/stim015_inanimate_boats_3.png","stimuli/stim013_inanimate_boats_1.png","268"
"html-button-response-mod","278","781370","0.0-278.0","74256","","","","","","triplet","1305.8999998569489","","","","0","stimuli/tools_uppercase.png","stimuli/stim020_inanimate_tree_4.png","stimuli/tree_lowercase.png","269"
"html-button-response-mod","279","783223","0.0-279.0","74256","","","","","","triplet","1351.0999999046326","","","","2","stimuli/stim015_inanimate_boats_3.png","stimuli/stim013_inanimate_boats_1.png","stimuli/stim005_animate_bird_1.png","270"
"html-button-response-mod","280","785142","0.0-280.0","74256","","","","","","triplet","1415.6000001430511","","","","0","stimuli/stim001_animate_fish_1.png","stimuli/stim021_inanimate_tools_1.png","stimuli/tools_lowercase.png","271"
"html-button-response-mod","281","787441","0.0-281.0","74256","","","","","","triplet","1796.7999999523163","","","","2","stimuli/stim023_inanimate_tools_3.png","stimuli/fish_lowercase.png","stimuli/face_uppercase.png","272"
"html-button-response-mod","282","788070","0.0-282.0","74256","","","","","","triplet","126.70000004768372","","","","2","stimuli/tree_uppercase.png","stimuli/stim007_animate_bird_3.png","stimuli/fish_uppercase.png","273"
"html-button-response-mod","283","789915","0.0-283.0","74256","","","","","","triplet","1339.2000000476837","","","","2","stimuli/face_uppercase.png","stimuli/stim009_animate_face_1.png","stimuli/stim013_inanimate_boats_1.png","274"
"html-button-response-mod","284","792162","0.0-284.0","74256","","","","","","triplet","1744.6999998092651","","","","0","stimuli/stim021_inanimate_tools_1.png","stimuli/stim008_animate_bird_4.png","stimuli/stim019_inanimate_tree_3.png","275"
"html-button-response-mod","285","794617","0.0-285.0","74256","","","","","","triplet","1951.1999998092651","","","","2","stimuli/stim007_animate_bird_3.png","stimuli/bird_lowercase.png","stimuli/stim016_inanimate_boats_4.png","276"
"html-button-response-mod","286","796414","0.0-286.0","74256","","","","","","triplet","1294.5999999046326","","","","2","stimuli/bird_uppercase.png","stimuli/stim020_inanimate_tree_4.png","stimuli/stim024_inanimate_tools_4.png","277"
"html-button-response-mod","287","798266","0.0-287.0","74256","","","","","","triplet","1349.5","","","","0","stimuli/stim024_inanimate_tools_4.png","stimuli/stim003_animate_fish_3.png","stimuli/stim005_animate_bird_1.png","278"
"html-button-response-mod","288","800051","0.0-288.0","74256","","","","","","triplet","1283","","","","0","stimuli/stim003_animate_fish_3.png","stimuli/boats_lowercase.png","stimuli/stim015_inanimate_boats_3.png","279"
"html-button-response-mod","289","801932","0.0-289.0","74256","","","","","","triplet","1379.0999999046326","","","","0","stimuli/bird_uppercase.png","stimuli/stim002_animate_fish_2.png","stimuli/face_lowercase.png","280"
"html-button-response-mod","290","804163","0.0-290.0","74256","","","","","","triplet","1727.5","","","","0","stimuli/bird_lowercase.png","stimuli/stim021_inanimate_tools_1.png","stimuli/tools_uppercase.png","281"
"html-button-response-mod","291","806600","0.0-291.0","74256","","","","","","triplet","1933.8999998569489","","","","2","stimuli/stim012_animate_face_4.png","stimuli/face_lowercase.png","stimuli/stim014_inanimate_boats_2.png","282"
"html-button-response-mod","292","808876","0.0-292.0","74256","","","","","","triplet","1771.2000000476837","","","","2","stimuli/tools_lowercase.png","stimuli/stim022_inanimate_tools_2.png","stimuli/tree_lowercase.png","283"
"html-button-response-mod","293","810713","0.0-293.0","74256","","","","","","triplet","1335","","","","2","stimuli/face_uppercase.png","stimuli/face_lowercase.png","stimuli/stim020_inanimate_tree_4.png","284"
"html-button-response-mod","294","812569","0.0-294.0","74256","","","","","","triplet","1352.7999999523163","","","","0","stimuli/stim008_animate_bird_4.png","stimuli/stim019_inanimate_tree_3.png","stimuli/tree_lowercase.png","285"
"html-button-response-mod","295","814258","0.0-295.0","74256","","","","","","triplet","1187.2000000476837","","","","1","stimuli/stim008_animate_bird_4.png","stimuli/stim020_inanimate_tree_4.png","stimuli/stim007_animate_bird_3.png","286"
"html-button-response-mod","296","815652","0.0-296.0","74256","","","","","","triplet","892","","","","0","stimuli/stim003_animate_fish_3.png","stimuli/stim018_inanimate_tree_2.png","stimuli/stim019_inanimate_tree_3.png","287"
"html-button-response-mod","297","817932","0.0-297.0","74256","","","","","","triplet","1778.2000000476837","","","","2","stimuli/stim010_animate_face_2.png","stimuli/stim006_animate_bird_2.png","stimuli/stim024_inanimate_tools_4.png","288"
"html-button-response-mod","298","819389","0.0-298.0","74256","","","","","","triplet","956.2000000476837","","","","0","stimuli/stim002_animate_fish_2.png","stimuli/stim017_inanimate_tree_1.png","stimuli/stim018_inanimate_tree_2.png","289"
"html-button-response-mod","299","821452","0.0-299.0","74256","","","","","","triplet","1561","","","","0","stimuli/face_lowercase.png","stimuli/fish_lowercase.png","stimuli/stim002_animate_fish_2.png","290"
"html-button-response-mod","300","823239","0.0-300.0","74256","","","","","","triplet","1285.4000000953674","","","","0","stimuli/face_uppercase.png","stimuli/stim006_animate_bird_2.png","stimuli/stim007_animate_bird_3.png","291"
"html-button-response-mod","301","825231","0.0-301.0","74256","","","","","","triplet","1490","","","","2","stimuli/stim008_animate_bird_4.png","stimuli/tree_lowercase.png","stimuli/stim013_inanimate_boats_1.png","292"
"html-button-response-mod","302","827132","0.0-302.0","74256","","","","","","triplet","1399.7000000476837","","","","2","stimuli/boats_lowercase.png","stimuli/stim014_inanimate_boats_2.png","stimuli/stim017_inanimate_tree_1.png","293"
"html-button-response-mod","303","829850","0.0-303.0","74256","","","","","","triplet","2216.2000000476837","","","","0","stimuli/stim013_inanimate_boats_1.png","stimuli/stim019_inanimate_tree_3.png","stimuli/bird_lowercase.png","294"
"html-button-response-mod","304","831372","0.0-304.0","74256","","","","","","triplet","1019.5","","","","2","stimuli/stim001_animate_fish_1.png","stimuli/stim004_animate_fish_4.png","stimuli/tree_uppercase.png","295"
"html-button-response-mod","305","833789","0.0-305.0","74256","","","","","","triplet","1909.8000001907349","","","","1","stimuli/fish_uppercase.png","stimuli/stim012_animate_face_4.png","stimuli/stim024_inanimate_tools_4.png","296"
"html-button-response-mod","306","836024","0.0-306.0","74256","","","","","","triplet","1727.6999998092651","","","","0","stimuli/stim017_inanimate_tree_1.png","stimuli/stim009_animate_face_1.png","stimuli/stim014_inanimate_boats_2.png","297"
"html-button-response-mod","307","837806","0.0-307.0","74256","","","","","","triplet","1279.7000000476837","","","","0","stimuli/fish_uppercase.png","stimuli/stim008_animate_bird_4.png","stimuli/stim015_inanimate_boats_3.png","298"
"html-button-response-mod","308","839217","0.0-308.0","74256","","","","","","triplet","908.7999999523163","","","","1","stimuli/stim021_inanimate_tools_1.png","stimuli/stim010_animate_face_2.png","stimuli/stim022_inanimate_tools_2.png","299"
"html-button-response","309","840763","0.0-309.0","74256","","","","","","break","1044.6000001430511","<p>BREAK</p><p>Take a break for as long as you need</p><p>Click the button to continue</p>","0","","","","","",""
"html-button-response-mod","310","842916","0.0-310.0","74256","","","","","","triplet","2150.2999999523163","","","","2","stimuli/bird_lowercase.png","stimuli/stim018_inanimate_tree_2.png","stimuli/tools_uppercase.png","300"
"html-button-response-mod","311","844798","0.0-311.0","74256","","","","","","triplet","1380.2999999523163","","","","2","stimuli/stim006_animate_bird_2.png","stimuli/stim015_inanimate_boats_3.png","stimuli/tools_lowercase.png","301"
"html-button-response-mod","312","846321","0.0-312.0","74256","","","","","","triplet","1021.0999999046326","","","","0","stimuli/tools_uppercase.png","stimuli/stim010_animate_face_2.png","stimuli/stim005_animate_bird_1.png","302"
"html-button-response-mod","313","847614","0.0-313.0","74256","","","","","","triplet","791.2000000476837","","","","2","stimuli/stim010_animate_face_2.png","stimuli/stim009_animate_face_1.png","stimuli/stim024_inanimate_tools_4.png","303"
"html-button-response-mod","314","849066","0.0-314.0","74256","","","","","","triplet","947.7000000476837","","","","2","stimuli/stim006_animate_bird_2.png","stimuli/stim007_animate_bird_3.png","stimuli/stim024_inanimate_tools_4.png","304"
"html-button-response-mod","315","851407","0.0-315.0","74256","","","","","","triplet","1839.1000001430511","","","","2","stimuli/stim002_animate_fish_2.png","stimuli/tree_uppercase.png","stimuli/stim015_inanimate_boats_3.png","305"
"html-button-response-mod","316","853802","0.0-316.0","74256","","","","","","triplet","1893.6999998092651","","","","2","stimuli/face_lowercase.png","stimuli/stim005_animate_bird_1.png","stimuli/boats_uppercase.png","306"
"html-button-response-mod","317","855650","0.0-317.0","74256","","","","","","triplet","1345.3999998569489","","","","1","stimuli/stim002_animate_fish_2.png","stimuli/tree_uppercase.png","stimuli/face_uppercase.png","307"
"html-button-response-mod","318","857099","0.0-318.0","74256","","","","","","triplet","946.7000000476837","","","","2","stimuli/fish_uppercase.png","stimuli/stim007_animate_bird_3.png","stimuli/stim024_inanimate_tools_4.png","308"
"html-button-response-mod","319","858646","0.0-319.0","74256","","","","","","triplet","1044.2000000476837","","","","2","stimuli/fish_uppercase.png","stimuli/fish_lowercase.png","stimuli/stim024_inanimate_tools_4.png","309"
"html-button-response-mod","320","861239","0.0-320.0","74256","","","","","","triplet","2090.2999999523163","","","","2","stimuli/stim003_animate_fish_3.png","stimuli/fish_lowercase.png","stimuli/stim012_animate_face_4.png","310"
"html-button-response-mod","321","862815","0.0-321.0","74256","","","","","","triplet","1074.3000001907349","","","","0","stimuli/stim020_inanimate_tree_4.png","stimuli/stim001_animate_fish_1.png","stimuli/tree_lowercase.png","311"
"html-button-response-mod","322","864760","0.0-322.0","74256","","","","","","triplet","1442.0999999046326","","","","2","stimuli/stim004_animate_fish_4.png","stimuli/boats_uppercase.png","stimuli/stim024_inanimate_tools_4.png","312"
"html-button-response-mod","323","866337","0.0-323.0","74256","","","","","","triplet","1075.1000001430511","","","","2","stimuli/fish_lowercase.png","stimuli/fish_uppercase.png","stimuli/bird_uppercase.png","313"
"html-button-response-mod","324","867587","0.0-324.0","74256","","","","","","triplet","747.5","","","","2","stimuli/stim002_animate_fish_2.png","stimuli/fish_lowercase.png","stimuli/stim014_inanimate_boats_2.png","314"
"html-button-response-mod","325","869289","0.0-325.0","74256","","","","","","triplet","1199.1999998092651","","","","0","stimuli/stim009_animate_face_1.png","stimuli/fish_uppercase.png","stimuli/stim001_animate_fish_1.png","315"
"html-button-response-mod","326","870755","0.0-326.0","74256","","","","","","triplet","964.6000001430511","","","","0","stimuli/stim013_inanimate_boats_1.png","stimuli/fish_lowercase.png","stimuli/stim002_animate_fish_2.png","316"
"html-button-response-mod","327","872274","0.0-327.0","74256","","","","","","triplet","1015.7999999523163","","","","2","stimuli/boats_uppercase.png","stimuli/stim002_animate_fish_2.png","stimuli/stim009_animate_face_1.png","317"
"html-button-response-mod","328","875078","0.0-328.0","74256","","","","","","triplet","2302.5999999046326","","","","0","stimuli/tools_lowercase.png","stimuli/fish_uppercase.png","stimuli/stim002_animate_fish_2.png","318"
"html-button-response-mod","329","876533","0.0-329.0","74256","","","","","","triplet","951.9000000953674","","","","2","stimuli/stim022_inanimate_tools_2.png","stimuli/stim023_inanimate_tools_3.png","stimuli/bird_uppercase.png","319"
"html-button-response-mod","330","877927","0.0-330.0","74256","","","","","","triplet","892.2999999523163","","","","1","stimuli/stim001_animate_fish_1.png","stimuli/stim011_animate_face_3.png","stimuli/fish_lowercase.png","320"
"html-button-response-mod","331","880904","0.0-331.0","74256","","","","","","triplet","2470.699999809265","","","","0","stimuli/stim023_inanimate_tools_3.png","stimuli/face_uppercase.png","stimuli/bird_lowercase.png","321"
"html-button-response-mod","332","883666","0.0-332.0","74256","","","","","","triplet","2260.100000143051","","","","0","stimuli/stim024_inanimate_tools_4.png","stimuli/stim009_animate_face_1.png","stimuli/stim017_inanimate_tree_1.png","322"
"html-button-response-mod","333","885431","0.0-333.0","74256","","","","","","triplet","1262.5999999046326","","","","0","stimuli/tree_uppercase.png","stimuli/stim016_inanimate_boats_4.png","stimuli/stim017_inanimate_tree_1.png","323"
"html-button-response-mod","334","887244","0.0-334.0","74256","","","","","","triplet","1311.4000000953674","","","","1","stimuli/stim006_animate_bird_2.png","stimuli/stim012_animate_face_4.png","stimuli/bird_uppercase.png","324"
"html-button-response-mod","335","889178","0.0-335.0","74256","","","","","","triplet","1431.4000000953674","","","","1","stimuli/stim007_animate_bird_3.png","stimuli/tree_uppercase.png","stimuli/stim003_animate_fish_3.png","325"
"html-button-response-mod","336","892135","0.0-336.0","74256","","","","","","triplet","2455.2999999523163","","","","1","stimuli/tools_uppercase.png","stimuli/tree_lowercase.png","stimuli/stim015_inanimate_boats_3.png","326"
"html-button-response-mod","337","894406","0.0-337.0","74256","","","","","","triplet","1765.8000001907349","","","","1","stimuli/stim007_animate_bird_3.png","stimuli/stim021_inanimate_tools_1.png","stimuli/tree_uppercase.png","327"
"html-button-response-mod","338","898436","0.0-338.0","74256","","","","","","triplet","3527.7000000476837","","","","2","stimuli/stim004_animate_fish_4.png","stimuli/stim019_inanimate_tree_3.png","stimuli/boats_lowercase.png","328"
"html-button-response-mod","339","900558","0.0-339.0","74256","","","","","","triplet","1618.6999998092651","","","","0","stimuli/stim024_inanimate_tools_4.png","stimuli/stim004_animate_fish_4.png","stimuli/bird_lowercase.png","329"
"html-button-response-mod","340","903394","0.0-340.0","74256","","","","","","triplet","2333.7000000476837","","","","2","stimuli/stim018_inanimate_tree_2.png","stimuli/stim002_animate_fish_2.png","stimuli/stim011_animate_face_3.png","330"
"html-button-response-mod","341","905140","0.0-341.0","74256","","","","","","triplet","1244.2999999523163","","","","0","stimuli/stim023_inanimate_tools_3.png","stimuli/face_lowercase.png","stimuli/stim003_animate_fish_3.png","331"
"html-button-response-mod","342","907621","0.0-342.0","74256","","","","","","triplet","1978.4000000953674","","","","0","stimuli/stim003_animate_fish_3.png","stimuli/fish_lowercase.png","stimuli/fish_uppercase.png","332"
"html-button-response-mod","343","910157","0.0-343.0","74256","","","","","","triplet","2033.2000000476837","","","","0","stimuli/stim013_inanimate_boats_1.png","stimuli/stim019_inanimate_tree_3.png","stimuli/stim001_animate_fish_1.png","333"
"html-button-response-mod","344","912747","0.0-344.0","74256","","","","","","triplet","2087.899999856949","","","","0","stimuli/boats_lowercase.png","stimuli/stim005_animate_bird_1.png","stimuli/stim020_inanimate_tree_4.png","334"
"html-button-response-mod","345","914329","0.0-345.0","74256","","","","","","triplet","1080.1000001430511","","","","0","stimuli/stim024_inanimate_tools_4.png","stimuli/fish_lowercase.png","stimuli/stim008_animate_bird_4.png","335"
"html-button-response-mod","346","915964","0.0-346.0","74256","","","","","","triplet","1131.8999998569489","","","","1","stimuli/stim008_animate_bird_4.png","stimuli/stim003_animate_fish_3.png","stimuli/stim007_animate_bird_3.png","336"
"html-button-response-mod","347","917759","0.0-347.0","74256","","","","","","triplet","1293","","","","0","stimuli/stim021_inanimate_tools_1.png","stimuli/bird_uppercase.png","stimuli/stim008_animate_bird_4.png","337"
"html-button-response-mod","348","919797","0.0-348.0","74256","","","","","","triplet","1535.7000000476837","","","","0","stimuli/stim001_animate_fish_1.png","stimuli/stim018_inanimate_tree_2.png","stimuli/tree_uppercase.png","338"
"html-button-response-mod","349","921785","0.0-349.0","74256","","","","","","triplet","1485.4000000953674","","","","0","stimuli/stim017_inanimate_tree_1.png","stimuli/stim014_inanimate_boats_2.png","stimuli/stim016_inanimate_boats_4.png","339"
"html-button-response-mod","350","924339","0.0-350.0","74256","","","","","","triplet","2051.5","","","","0","stimuli/stim014_inanimate_boats_2.png","stimuli/stim006_animate_bird_2.png","stimuli/stim020_inanimate_tree_4.png","340"
"html-button-response-mod","351","926635","0.0-351.0","74256","","","","","","triplet","1794","","","","2","stimuli/tools_uppercase.png","stimuli/fish_uppercase.png","stimuli/stim010_animate_face_2.png","341"
"html-button-response-mod","352","928380","0.0-352.0","74256","","","","","","triplet","1241","","","","2","stimuli/stim004_animate_fish_4.png","stimuli/stim013_inanimate_boats_1.png","stimuli/boats_lowercase.png","342"
"html-button-response-mod","353","930516","0.0-353.0","74256","","","","","","triplet","1633.3999998569489","","","","1","stimuli/stim024_inanimate_tools_4.png","stimuli/stim004_animate_fish_4.png","stimuli/tools_lowercase.png","343"
"html-button-response-mod","354","932057","0.0-354.0","74256","","","","","","triplet","1038.2000000476837","","","","2","stimuli/stim019_inanimate_tree_3.png","stimuli/stim007_animate_bird_3.png","stimuli/stim015_inanimate_boats_3.png","344"
"html-button-response-mod","355","934020","0.0-355.0","74256","","","","","","triplet","1461.2000000476837","","","","0","stimuli/boats_uppercase.png","stimuli/stim023_inanimate_tools_3.png","stimuli/stim011_animate_face_3.png","345"
"html-button-response-mod","356","936211","0.0-356.0","74256","","","","","","triplet","1688.7999999523163","","","","0","stimuli/bird_lowercase.png","stimuli/stim011_animate_face_3.png","stimuli/stim023_inanimate_tools_3.png","346"
"html-button-response-mod","357","937846","0.0-357.0","74256","","","","","","triplet","1132.7000000476837","","","","0","stimuli/stim021_inanimate_tools_1.png","stimuli/stim003_animate_fish_3.png","stimuli/stim011_animate_face_3.png","347"
"html-button-response-mod","358","939342","0.0-358.0","74256","","","","","","triplet","992.7000000476837","","","","1","stimuli/stim014_inanimate_boats_2.png","stimuli/stim004_animate_fish_4.png","stimuli/stim016_inanimate_boats_4.png","348"
"html-button-response-mod","359","940999","0.0-359.0","74256","","","","","","triplet","1154.9000000953674","","","","0","stimuli/stim022_inanimate_tools_2.png","stimuli/stim002_animate_fish_2.png","stimuli/stim011_animate_face_3.png","349"
"html-button-response","360","942379","0.0-360.0","74256","","","","","","break","878.2000000476837","<p>BREAK</p><p>Take a break for as long as you need</p><p>Click the button to continue</p>","0","","","","","",""
"html-button-response-mod","361","943673","0.0-361.0","74256","","","","","","triplet","1292.8999998569489","","","","2","stimuli/stim008_animate_bird_4.png","stimuli/stim018_inanimate_tree_2.png","stimuli/stim012_animate_face_4.png","350"
"html-button-response-mod","362","945331","0.0-362.0","74256","","","","","","triplet","1155.9000000953674","","","","2","stimuli/stim011_animate_face_3.png","stimuli/stim001_animate_fish_1.png","stimuli/boats_uppercase.png","351"
"html-button-response-mod","363","947765","0.0-363.0","74256","","","","","","triplet","1931.3000001907349","","","","0","stimuli/bird_lowercase.png","stimuli/stim015_inanimate_boats_3.png","stimuli/tools_uppercase.png","352"
"html-button-response-mod","364","949656","0.0-364.0","74256","","","","","","triplet","1389.2000000476837","","","","0","stimuli/stim015_inanimate_boats_3.png","stimuli/stim001_animate_fish_1.png","stimuli/stim017_inanimate_tree_1.png","353"
"html-button-response-mod","365","951334","0.0-365.0","74256","","","","","","triplet","1176.3999998569489","","","","1","stimuli/stim024_inanimate_tools_4.png","stimuli/stim012_animate_face_4.png","stimuli/stim015_inanimate_boats_3.png","354"
"html-button-response-mod","366","953283","0.0-366.0","74256","","","","","","triplet","1444.6999998092651","","","","0","stimuli/fish_uppercase.png","stimuli/stim024_inanimate_tools_4.png","stimuli/stim015_inanimate_boats_3.png","355"
"html-button-response-mod","367","954716","0.0-367.0","74256","","","","","","triplet","930.3000001907349","","","","0","stimuli/stim009_animate_face_1.png","stimuli/stim017_inanimate_tree_1.png","stimuli/tree_lowercase.png","356"
"html-button-response-mod","368","956283","0.0-368.0","74256","","","","","","triplet","1061.1000001430511","","","","0","stimuli/tools_lowercase.png","stimuli/face_uppercase.png","stimuli/stim017_inanimate_tree_1.png","357"
"html-button-response-mod","369","957644","0.0-369.0","74256","","","","","","triplet","859.0999999046326","","","","0","stimuli/boats_lowercase.png","stimuli/stim017_inanimate_tree_1.png","stimuli/stim019_inanimate_tree_3.png","358"
"html-button-response-mod","370","959157","0.0-370.0","74256","","","","","","triplet","1010.8999998569489","","","","2","stimuli/stim024_inanimate_tools_4.png","stimuli/tools_uppercase.png","stimuli/stim004_animate_fish_4.png","359"
"html-button-response-mod","371","960662","0.0-371.0","74256","","","","","","triplet","1001","","","","0","stimuli/stim012_animate_face_4.png","stimuli/stim008_animate_bird_4.png","stimuli/fish_lowercase.png","360"
"html-button-response-mod","372","962817","0.0-372.0","74256","","","","","","triplet","1652.7000000476837","","","","1","stimuli/stim021_inanimate_tools_1.png","stimuli/stim014_inanimate_boats_2.png","stimuli/stim009_animate_face_1.png","361"
"html-button-response-mod","373","964391","0.0-373.0","74256","","","","","","triplet","1072.0999999046326","","","","2","stimuli/stim016_inanimate_boats_4.png","stimuli/tools_uppercase.png","stimuli/stim012_animate_face_4.png","362"
"html-button-response-mod","374","966836","0.0-374.0","74256","","","","","","triplet","1942.4000000953674","","","","0","stimuli/tree_lowercase.png","stimuli/stim015_inanimate_boats_3.png","stimuli/stim013_inanimate_boats_1.png","363"
"html-button-response-mod","375","968465","0.0-375.0","74256","","","","","","triplet","1126.2999999523163","","","","2","stimuli/stim016_inanimate_boats_4.png","stimuli/boats_uppercase.png","stimuli/bird_uppercase.png","364"
"html-button-response-mod","376","970124","0.0-376.0","74256","","","","","","triplet","1156.5","","","","2","stimuli/stim016_inanimate_boats_4.png","stimuli/tree_uppercase.png","stimuli/stim021_inanimate_tools_1.png","365"
"html-button-response-mod","377","972382","0.0-377.0","74256","","","","","","triplet","1751.2000000476837","","","","1","stimuli/stim016_inanimate_boats_4.png","stimuli/stim011_animate_face_3.png","stimuli/boats_uppercase.png","366"
"html-button-response-mod","378","974107","0.0-378.0","74256","","","","","","triplet","1219.0999999046326","","","","1","stimuli/tree_uppercase.png","stimuli/stim009_animate_face_1.png","stimuli/stim021_inanimate_tools_1.png","367"
"html-button-response-mod","379","975976","0.0-379.0","74256","","","","","","triplet","1366.2000000476837","","","","0","stimuli/stim007_animate_bird_3.png","stimuli/stim009_animate_face_1.png","stimuli/stim023_inanimate_tools_3.png","368"
"html-button-response-mod","380","977810","0.0-380.0","74256","","","","","","triplet","1331.9000000953674","","","","1","stimuli/stim008_animate_bird_4.png","stimuli/stim013_inanimate_boats_1.png","stimuli/fish_lowercase.png","369"
"html-button-response-mod","381","979404","0.0-381.0","74256","","","","","","triplet","1091.7999999523163","","","","2","stimuli/stim020_inanimate_tree_4.png","stimuli/stim023_inanimate_tools_3.png","stimuli/boats_uppercase.png","370"
"html-button-response-mod","382","981123","0.0-382.0","74256","","","","","","triplet","1217.5999999046326","","","","2","stimuli/stim013_inanimate_boats_1.png","stimuli/stim016_inanimate_boats_4.png","stimuli/stim022_inanimate_tools_2.png","371"
"html-button-response-mod","383","983151","0.0-383.0","74256","","","","","","triplet","1525.7999999523163","","","","0","stimuli/tree_lowercase.png","stimuli/stim011_animate_face_3.png","stimuli/stim005_animate_bird_1.png","372"
"html-button-response-mod","384","984682","0.0-384.0","74256","","","","","","triplet","1029.1000001430511","","","","2","stimuli/stim021_inanimate_tools_1.png","stimuli/stim013_inanimate_boats_1.png","stimuli/fish_lowercase.png","373"
"html-button-response-mod","385","985887","0.0-385.0","74256","","","","","","triplet","700","","","","0","stimuli/fish_lowercase.png","stimuli/stim016_inanimate_boats_4.png","stimuli/stim022_inanimate_tools_2.png","374"
"html-button-response-mod","386","987512","0.0-386.0","74256","","","","","","triplet","1122.2999999523163","","","","1","stimuli/stim019_inanimate_tree_3.png","stimuli/bird_lowercase.png","stimuli/stim017_inanimate_tree_1.png","375"
"html-button-response-mod","387","989014","0.0-387.0","74256","","","","","","triplet","1000.2000000476837","","","","2","stimuli/stim011_animate_face_3.png","stimuli/stim023_inanimate_tools_3.png","stimuli/stim004_animate_fish_4.png","376"
"html-button-response-mod","388","990556","0.0-388.0","74256","","","","","","triplet","1038.2000000476837","","","","1","stimuli/stim004_animate_fish_4.png","stimuli/face_uppercase.png","stimuli/stim002_animate_fish_2.png","377"
"html-button-response-mod","389","992029","0.0-389.0","74256","","","","","","triplet","971.0999999046326","","","","1","stimuli/stim007_animate_bird_3.png","stimuli/boats_lowercase.png","stimuli/stim013_inanimate_boats_1.png","378"
"html-button-response-mod","390","993505","0.0-390.0","74256","","","","","","triplet","973.2000000476837","","","","1","stimuli/stim001_animate_fish_1.png","stimuli/stim023_inanimate_tools_3.png","stimuli/stim002_animate_fish_2.png","379"
"html-button-response-mod","391","994865","0.0-391.0","74256","","","","","","triplet","857.9000000953674","","","","0","stimuli/tools_uppercase.png","stimuli/stim002_animate_fish_2.png","stimuli/stim003_animate_fish_3.png","380"
"html-button-response-mod","392","996713","0.0-392.0","74256","","","","","","triplet","1344.3999998569489","","","","0","stimuli/stim023_inanimate_tools_3.png","stimuli/stim006_animate_bird_2.png","stimuli/face_uppercase.png","381"
"html-button-response-mod","393","998482","0.0-393.0","74256","","","","","","triplet","1266","","","","1","stimuli/boats_uppercase.png","stimuli/tools_lowercase.png","stimuli/boats_lowercase.png","382"
"html-button-response-mod","394","1000228","0.0-394.0","74256","","","","","","triplet","1243.7000000476837","","","","1","stimuli/boats_lowercase.png","stimuli/stim011_animate_face_3.png","stimuli/stim023_inanimate_tools_3.png","383"
"html-button-response-mod","395","1001743","0.0-395.0","74256","","","","","","triplet","1012.4000000953674","","","","0","stimuli/bird_lowercase.png","stimuli/stim023_inanimate_tools_3.png","stimuli/stim022_inanimate_tools_2.png","384"
"html-button-response-mod","396","1003188","0.0-396.0","74256","","","","","","triplet","941.4000000953674","","","","0","stimuli/stim013_inanimate_boats_1.png","stimuli/stim010_animate_face_2.png","stimuli/stim020_inanimate_tree_4.png","385"
"html-button-response-mod","397","1010538","0.0-397.0","74256","","","","","","triplet","6846.299999952316","","","","0","stimuli/stim017_inanimate_tree_1.png","stimuli/stim019_inanimate_tree_3.png","stimuli/stim018_inanimate_tree_2.png","386"
"html-button-response-mod","398","1012133","0.0-398.0","74256","","","","","","triplet","1092.2999999523163","","","","1","stimuli/stim019_inanimate_tree_3.png","stimuli/stim021_inanimate_tools_1.png","stimuli/stim011_animate_face_3.png","387"
"html-button-response-mod","399","1014297","0.0-399.0","74256","","","","","","triplet","1661.7000000476837","","","","1","stimuli/stim011_animate_face_3.png","stimuli/tree_lowercase.png","stimuli/face_lowercase.png","388"
"html-button-response-mod","400","1015774","0.0-400.0","74256","","","","","","triplet","974.8999998569489","","","","2","stimuli/stim017_inanimate_tree_1.png","stimuli/stim018_inanimate_tree_2.png","stimuli/stim016_inanimate_boats_4.png","389"
"html-button-response-mod","401","1019874","0.0-401.0","74256","","","","","","triplet","3597.7000000476837","","","","1","stimuli/stim018_inanimate_tree_2.png","stimuli/boats_lowercase.png","stimuli/stim003_animate_fish_3.png","390"
"html-button-response-mod","402","1021589","0.0-402.0","74256","","","","","","triplet","1212.2999999523163","","","","0","stimuli/stim010_animate_face_2.png","stimuli/stim006_animate_bird_2.png","stimuli/boats_uppercase.png","391"
"html-button-response-mod","403","1023320","0.0-403.0","74256","","","","","","triplet","1230.1999998092651","","","","0","stimuli/tools_uppercase.png","stimuli/stim012_animate_face_4.png","stimuli/stim017_inanimate_tree_1.png","392"
"html-button-response-mod","404","1025432","0.0-404.0","74256","","","","","","triplet","1609.5","","","","1","stimuli/stim005_animate_bird_1.png","stimuli/stim014_inanimate_boats_2.png","stimuli/fish_uppercase.png","393"
"html-button-response-mod","405","1026955","0.0-405.0","74256","","","","","","triplet","1019.2999999523163","","","","1","stimuli/stim011_animate_face_3.png","stimuli/stim014_inanimate_boats_2.png","stimuli/stim009_animate_face_1.png","394"
"html-button-response-mod","406","1029099","0.0-406.0","74256","","","","","","triplet","1641.5999999046326","","","","1","stimuli/stim008_animate_bird_4.png","stimuli/stim023_inanimate_tools_3.png","stimuli/face_uppercase.png","395"
"html-button-response-mod","407","1030862","0.0-407.0","74256","","","","","","triplet","1262.0999999046326","","","","2","stimuli/stim018_inanimate_tree_2.png","stimuli/stim005_animate_bird_1.png","stimuli/stim021_inanimate_tools_1.png","396"
"html-button-response-mod","408","1032286","0.0-408.0","74256","","","","","","triplet","922.0999999046326","","","","0","stimuli/stim022_inanimate_tools_2.png","stimuli/tree_uppercase.png","stimuli/stim002_animate_fish_2.png","397"
"html-button-response-mod","409","1033809","0.0-409.0","74256","","","","","","triplet","1020.2999999523163","","","","2","stimuli/stim015_inanimate_boats_3.png","stimuli/stim005_animate_bird_1.png","stimuli/stim010_animate_face_2.png","398"
"html-button-response-mod","410","1036084","0.0-410.0","74256","","","","","","triplet","1770.7000000476837","","","","1","stimuli/stim024_inanimate_tools_4.png","stimuli/stim002_animate_fish_2.png","stimuli/tools_uppercase.png","399"
"html-button-response","411","1038156","0.0-411.0","74256","","","","","","break","1569.3000001907349","<p>BREAK</p><p>Take a break for as long as you need</p><p>Click the button to continue</p>","0","","","","","",""
"survey-text","412","1112595","0.0-412.0","74256","","","","","","data_patterns","74383.29999995232","","{""Q0"":""Choose the most difference between those three,  or the one that does not has the relationship. ""}","","","","","",""
"survey-text","413","1114898","0.0-413.0","74256","","","","","","age_question","2295.199999809265","","{""Age"":""18""}","","","","","",""
"html-button-response","414","1118107","0.0-414.0","74256","","","","","","gender_question","3205.7999999523163","How would you like your gender to be recorded?","1","","","","","",""
