"trial_type","trial_index","time_elapsed","internal_node_id","subject","success","timeout","failed_images","failed_audio","failed_video","test_part","rt","stimulus","response","end_time","button_pressed","stim0","stim1","stim2","trialnr"
"pavlovia","0","6","0.0-0.0","76644","","","","","","","","","","","","","","",""
"preload","1","683","0.0-1.0","76644","true","false","[]","[]","[]","preload","","","","","","","","",""
"html-button-response","2","32815","0.0-2.0","76644","","","","","","","32125.799999952316","<p>Welcome to the experiment. To begin, please read the following and press the button at the bottom of the screen.</p><p></p><p><strong>Project Name: A study on cognitive processes involved in visual perception</p></strong><p></p><p><strong>PARTICIPANT INFORMATION STATEMENT</strong></p><p></p><strong>(1) What is the study about?</strong><br>You are invited to participate in a study that investigates the cognitive processes involved in perceiving and recognizing visual stimuli.If you decide to participate, you will be asked to complete a task in which you will view pictures, letters, numbers, or words presented on a computer screen.<br><strong>(2) Who can participate?</strong><br>Anyone aged 18 years or over with access to a computer (not a phone/tablet)<br><strong>(3) Where is the study located?</strong><br>The study will be conducted in your browser<br><strong>(4) Who is carrying out the study?</strong><br>The study is being conducted by Sophia Shatek from the Computational Cognitive Neuroscience laboratory at the University of Sydney.<br><strong>(5) What does the study involve?</strong><br>In this study, you will be asked to perform tasks where you will see different stimuli appear on the computer screen.You will respond by pressing a key or using a computer mouse.<br><strong>(6) How much time will the study take?</strong><br>The study takes about 30 minutes<br><strong>(7)	Can I withdraw from the study?</strong><br>Being in this study is completely voluntary - you are not under any obligation to consent. You can withdraw at any time without having to give a reason and without penalty.<br><strong>(8) Will anyone else know the results?</strong><br>All aspects of the study, including results, will be strictly confidential and only the researchers will have access to information on participants.The results and data from the study may be submitted for publication or shared with other research labs, but individual participants will not be identifiable.<br><strong>(9) Will the study benefit me?</strong><br>You will be awarded 0.5 credits for your participation.<br><strong>(10) Can I tell other people about the study?</strong><br>Yes, please tell them to contact Dr Thomas Carlson by email at thomas.carlson@sydney.edu.au.<br><strong>(11) What if I require further information about the study or my involvement in it?</strong><br>When you have read this information, the investigator will discuss it with you further and answer any questions you may have.If you would like to know more at any stage, please feel free to contact Dr Thomas Carlson directly by email at thomas.carlson@sydney.edu.au.If you would like to be informed about the outcomes of the study, contact Dr Thomas Carlson directly by email at thomas.carlson@sydney.edu.au.<br><strong>(12) What if I have a complaint or any concerns?</strong><br>Any person with concerns or complaints about the conduct of a research study can contact The Manager,Human Ethics Administration, University of Sydney on +61 2 8627 8176 (Telephone); +61 2 8627 8177 (Facsimile) or ro.humanethics@sydney.edu.au (Email).</p><p></p><strong>By participating in this experiment, you consent to participate in this study and acknowledge that:</strong><br>1. The procedures required for the project and the times involved have been explained to me, and any questions I have about the project have been answered to my satisfaction.<br>2.	I have read the Above Information Statement and have been given the opportunity to discuss the information and my involvement in the project with the researcher/s.<br>3. I understand that allowing my data to be used in research reports is completely voluntary - I am not under any obligation to consent.<br>4. I understand that my involvement is strictly confidential. I understand that any research data gathered from the results of the study may be publishedhowever no information about me will be used in any way that is identifiable.</p><p></p>","0","","","","","",""
"html-button-response","3","76232","0.0-3.0","76644","","","","","","opening_instructions","43412.5","<p>In this experiment, you will see three images appear on the screen.</p><p>You need to click the 'odd one out', or the image </p><p>that is MOST CONCEPTUALLY DIFFERENT to the other two. </p><p>(e.g., the word 'tree' and a picture of a tree are conceptually SIMILAR, </p><p> but the word 'tree' and the word 'boat' are conceptually DIFFERENT even though they look similar) </p><p>Just go with your intuition, don't spend too long thinking about each one.</p>","0","79856.5","","","","",""
"html-button-response-mod","4","80900","0.0-4.0","76644","","","","","","triplet","4664","","","","1","stimuli/stim002_animate_fish_2.png","stimuli/stim018_inanimate_tree_2.png","stimuli/stim013_inanimate_boats_1.png","0"
"html-button-response-mod","5","83615","0.0-5.0","76644","","","","","","triplet","2209.1999999284744","","","","2","stimuli/tools_uppercase.png","stimuli/stim015_inanimate_boats_3.png","stimuli/stim008_animate_bird_4.png","1"
"html-button-response-mod","6","95781","0.0-6.0","76644","","","","","","triplet","11661.300000071526","","","","0","stimuli/stim011_animate_face_3.png","stimuli/boats_lowercase.png","stimuli/tree_lowercase.png","2"
"html-button-response-mod","7","98982","0.0-7.0","76644","","","","","","triplet","2695.399999976158","","","","0","stimuli/stim012_animate_face_4.png","stimuli/tools_uppercase.png","stimuli/boats_uppercase.png","3"
"html-button-response-mod","8","101166","0.0-8.0","76644","","","","","","triplet","1675.3999999761581","","","","0","stimuli/tools_lowercase.png","stimuli/bird_lowercase.png","stimuli/stim006_animate_bird_2.png","4"
"html-button-response-mod","9","104416","0.0-9.0","76644","","","","","","triplet","2745.0999999046326","","","","0","stimuli/stim016_inanimate_boats_4.png","stimuli/tools_lowercase.png","stimuli/stim023_inanimate_tools_3.png","5"
"html-button-response-mod","10","108066","0.0-10.0","76644","","","","","","triplet","3141.5","","","","2","stimuli/tools_uppercase.png","stimuli/stim015_inanimate_boats_3.png","stimuli/stim006_animate_bird_2.png","6"
"html-button-response-mod","11","111933","0.0-11.0","76644","","","","","","triplet","3360.2999999523163","","","","1","stimuli/stim023_inanimate_tools_3.png","stimuli/boats_lowercase.png","stimuli/stim003_animate_fish_3.png","7"
"html-button-response-mod","12","114866","0.0-12.0","76644","","","","","","triplet","2426.399999976158","","","","1","stimuli/stim002_animate_fish_2.png","stimuli/boats_uppercase.png","stimuli/stim024_inanimate_tools_4.png","8"
"html-button-response-mod","13","120634","0.0-13.0","76644","","","","","","triplet","5263.199999928474","","","","2","stimuli/stim015_inanimate_boats_3.png","stimuli/stim022_inanimate_tools_2.png","stimuli/stim007_animate_bird_3.png","9"
"html-button-response-mod","14","123232","0.0-14.0","76644","","","","","","triplet","2091.899999976158","","","","0","stimuli/bird_uppercase.png","stimuli/stim016_inanimate_boats_4.png","stimuli/stim024_inanimate_tools_4.png","10"
"html-button-response-mod","15","124949","0.0-15.0","76644","","","","","","triplet","1213.6000000238419","","","","0","stimuli/stim004_animate_fish_4.png","stimuli/tree_lowercase.png","stimuli/tools_uppercase.png","11"
"html-button-response-mod","16","126433","0.0-16.0","76644","","","","","","triplet","979","","","","1","stimuli/stim017_inanimate_tree_1.png","stimuli/face_uppercase.png","stimuli/stim002_animate_fish_2.png","12"
"html-button-response-mod","17","128033","0.0-17.0","76644","","","","","","triplet","1092","","","","0","stimuli/bird_uppercase.png","stimuli/stim011_animate_face_3.png","stimuli/stim002_animate_fish_2.png","13"
"html-button-response-mod","18","135432","0.0-18.0","76644","","","","","","triplet","6892.700000047684","","","","2","stimuli/stim009_animate_face_1.png","stimuli/stim008_animate_bird_4.png","stimuli/stim013_inanimate_boats_1.png","14"
"html-button-response-mod","19","140148","0.0-19.0","76644","","","","","","triplet","4210.5","","","","1","stimuli/stim009_animate_face_1.png","stimuli/fish_lowercase.png","stimuli/stim016_inanimate_boats_4.png","15"
"html-button-response-mod","20","150279","0.0-20.0","76644","","","","","","triplet","9624.200000047684","","","","0","stimuli/stim010_animate_face_2.png","stimuli/stim015_inanimate_boats_3.png","stimuli/stim020_inanimate_tree_4.png","16"
"html-button-response-mod","21","153032","0.0-21.0","76644","","","","","","triplet","2244.600000023842","","","","2","stimuli/stim020_inanimate_tree_4.png","stimuli/tree_lowercase.png","stimuli/stim016_inanimate_boats_4.png","17"
"html-button-response-mod","22","155732","0.0-22.0","76644","","","","","","triplet","2196.2000000476837","","","","2","stimuli/stim003_animate_fish_3.png","stimuli/face_lowercase.png","stimuli/face_uppercase.png","18"
"html-button-response-mod","23","160715","0.0-23.0","76644","","","","","","triplet","4478.900000095367","","","","0","stimuli/bird_uppercase.png","stimuli/stim024_inanimate_tools_4.png","stimuli/stim012_animate_face_4.png","19"
"html-button-response-mod","24","162532","0.0-24.0","76644","","","","","","triplet","1310.2999999523163","","","","0","stimuli/stim021_inanimate_tools_1.png","stimuli/stim007_animate_bird_3.png","stimuli/stim006_animate_bird_2.png","20"
"html-button-response-mod","25","164748","0.0-25.0","76644","","","","","","triplet","1710.6000000238419","","","","1","stimuli/face_lowercase.png","stimuli/bird_uppercase.png","stimuli/stim011_animate_face_3.png","21"
"html-button-response-mod","26","166415","0.0-26.0","76644","","","","","","triplet","1162.2000000476837","","","","2","stimuli/stim012_animate_face_4.png","stimuli/stim010_animate_face_2.png","stimuli/stim014_inanimate_boats_2.png","22"
"html-button-response-mod","27","169148","0.0-27.0","76644","","","","","","triplet","2229.600000023842","","","","1","stimuli/stim024_inanimate_tools_4.png","stimuli/fish_lowercase.png","stimuli/stim006_animate_bird_2.png","23"
"html-button-response-mod","28","174315","0.0-28.0","76644","","","","","","triplet","4662.5","","","","1","stimuli/stim022_inanimate_tools_2.png","stimuli/stim002_animate_fish_2.png","stimuli/stim021_inanimate_tools_1.png","24"
"html-button-response-mod","29","176466","0.0-29.0","76644","","","","","","triplet","1645.6000000238419","","","","2","stimuli/tree_lowercase.png","stimuli/tools_lowercase.png","stimuli/stim021_inanimate_tools_1.png","25"
"html-button-response-mod","30","181474","0.0-30.0","76644","","","","","","triplet","4504.800000071526","","","","1","stimuli/bird_lowercase.png","stimuli/stim001_animate_fish_1.png","stimuli/boats_lowercase.png","26"
"html-button-response-mod","31","184016","0.0-31.0","76644","","","","","","triplet","2038.8000000715256","","","","2","stimuli/tree_uppercase.png","stimuli/stim020_inanimate_tree_4.png","stimuli/stim008_animate_bird_4.png","27"
"html-button-response-mod","32","188316","0.0-32.0","76644","","","","","","triplet","3794.7999999523163","","","","1","stimuli/stim024_inanimate_tools_4.png","stimuli/fish_lowercase.png","stimuli/stim014_inanimate_boats_2.png","28"
"html-button-response-mod","33","190032","0.0-33.0","76644","","","","","","triplet","1207.6000000238419","","","","1","stimuli/stim020_inanimate_tree_4.png","stimuli/stim014_inanimate_boats_2.png","stimuli/stim018_inanimate_tree_2.png","29"
"html-button-response-mod","34","195700","0.0-34.0","76644","","","","","","triplet","5164.399999976158","","","","0","stimuli/stim011_animate_face_3.png","stimuli/stim023_inanimate_tools_3.png","stimuli/stim020_inanimate_tree_4.png","30"
"html-button-response-mod","35","201014","0.0-35.0","76644","","","","","","triplet","4807.200000047684","","","","1","stimuli/stim016_inanimate_boats_4.png","stimuli/stim005_animate_bird_1.png","stimuli/stim021_inanimate_tools_1.png","31"
"html-button-response-mod","36","203131","0.0-36.0","76644","","","","","","triplet","1609.2000000476837","","","","0","stimuli/bird_uppercase.png","stimuli/stim012_animate_face_4.png","stimuli/stim011_animate_face_3.png","32"
"html-button-response-mod","37","205548","0.0-37.0","76644","","","","","","triplet","1911.2000000476837","","","","2","stimuli/fish_uppercase.png","stimuli/stim004_animate_fish_4.png","stimuli/stim015_inanimate_boats_3.png","33"
"html-button-response-mod","38","207415","0.0-38.0","76644","","","","","","triplet","1360.3999999761581","","","","2","stimuli/tree_lowercase.png","stimuli/stim018_inanimate_tree_2.png","stimuli/stim013_inanimate_boats_1.png","34"
"html-button-response-mod","39","210215","0.0-39.0","76644","","","","","","triplet","2296.2000000476837","","","","1","stimuli/tree_lowercase.png","stimuli/stim005_animate_bird_1.png","stimuli/boats_lowercase.png","35"
"html-button-response-mod","40","211815","0.0-40.0","76644","","","","","","triplet","1095.8999999761581","","","","2","stimuli/tree_lowercase.png","stimuli/stim018_inanimate_tree_2.png","stimuli/face_lowercase.png","36"
"html-button-response-mod","41","214998","0.0-41.0","76644","","","","","","triplet","2674.899999976158","","","","2","stimuli/tools_lowercase.png","stimuli/boats_lowercase.png","stimuli/stim018_inanimate_tree_2.png","37"
"html-button-response-mod","42","217449","0.0-42.0","76644","","","","","","triplet","1946.3999999761581","","","","0","stimuli/bird_lowercase.png","stimuli/stim017_inanimate_tree_1.png","stimuli/stim015_inanimate_boats_3.png","38"
"html-button-response-mod","43","221565","0.0-43.0","76644","","","","","","triplet","3613.100000023842","","","","0","stimuli/stim022_inanimate_tools_2.png","stimuli/stim018_inanimate_tree_2.png","stimuli/stim007_animate_bird_3.png","39"
"html-button-response-mod","44","227982","0.0-44.0","76644","","","","","","triplet","5912.800000071526","","","","1","stimuli/stim006_animate_bird_2.png","stimuli/stim004_animate_fish_4.png","stimuli/stim008_animate_bird_4.png","40"
"html-button-response-mod","45","230832","0.0-45.0","76644","","","","","","triplet","2345.600000023842","","","","0","stimuli/tools_uppercase.png","stimuli/stim008_animate_bird_4.png","stimuli/stim020_inanimate_tree_4.png","41"
"html-button-response-mod","46","232999","0.0-46.0","76644","","","","","","triplet","1658.3000000715256","","","","2","stimuli/tools_lowercase.png","stimuli/tree_lowercase.png","stimuli/stim002_animate_fish_2.png","42"
"html-button-response-mod","47","238399","0.0-47.0","76644","","","","","","triplet","4896.399999976158","","","","1","stimuli/stim020_inanimate_tree_4.png","stimuli/face_uppercase.png","stimuli/stim002_animate_fish_2.png","43"
"html-button-response-mod","48","240816","0.0-48.0","76644","","","","","","triplet","1911.7000000476837","","","","2","stimuli/tools_uppercase.png","stimuli/stim024_inanimate_tools_4.png","stimuli/fish_uppercase.png","44"
"html-button-response-mod","49","246697","0.0-49.0","76644","","","","","","triplet","5376.699999928474","","","","0","stimuli/stim012_animate_face_4.png","stimuli/stim022_inanimate_tools_2.png","stimuli/stim019_inanimate_tree_3.png","45"
"html-button-response-mod","50","248182","0.0-50.0","76644","","","","","","triplet","975.7000000476837","","","","1","stimuli/stim020_inanimate_tree_4.png","stimuli/stim013_inanimate_boats_1.png","stimuli/stim019_inanimate_tree_3.png","46"
"html-button-response-mod","51","249932","0.0-51.0","76644","","","","","","triplet","1245.1999999284744","","","","2","stimuli/stim002_animate_fish_2.png","stimuli/fish_lowercase.png","stimuli/boats_uppercase.png","47"
"html-button-response-mod","52","254716","0.0-52.0","76644","","","","","","triplet","4276.400000095367","","","","0","stimuli/stim014_inanimate_boats_2.png","stimuli/bird_uppercase.png","stimuli/tools_lowercase.png","48"
"html-button-response-mod","53","260147","0.0-53.0","76644","","","","","","triplet","4923.400000095367","","","","0","stimuli/stim024_inanimate_tools_4.png","stimuli/boats_lowercase.png","stimuli/stim011_animate_face_3.png","49"
"html-button-response","54","264366","0.0-54.0","76644","","","","","","break","3710.399999976158","<p>BREAK</p><p>Take a break for as long as you need</p><p>Click the button to continue</p>","0","","","","","",""
"html-button-response-mod","55","267098","0.0-55.0","76644","","","","","","triplet","2729.100000023842","","","","2","stimuli/stim013_inanimate_boats_1.png","stimuli/boats_lowercase.png","stimuli/stim003_animate_fish_3.png","50"
"html-button-response-mod","56","270131","0.0-56.0","76644","","","","","","triplet","2524.6999999284744","","","","2","stimuli/stim014_inanimate_boats_2.png","stimuli/stim023_inanimate_tools_3.png","stimuli/bird_uppercase.png","51"
"html-button-response-mod","57","272031","0.0-57.0","76644","","","","","","triplet","1396.3999999761581","","","","0","stimuli/bird_uppercase.png","stimuli/tree_uppercase.png","stimuli/stim017_inanimate_tree_1.png","52"
"html-button-response-mod","58","274565","0.0-58.0","76644","","","","","","triplet","2030.3000000715256","","","","1","stimuli/stim004_animate_fish_4.png","stimuli/boats_uppercase.png","stimuli/stim024_inanimate_tools_4.png","53"
"html-button-response-mod","59","276581","0.0-59.0","76644","","","","","","triplet","1510.2999999523163","","","","2","stimuli/stim010_animate_face_2.png","stimuli/stim016_inanimate_boats_4.png","stimuli/tools_uppercase.png","54"
"html-button-response-mod","60","278531","0.0-60.0","76644","","","","","","triplet","1444.8000000715256","","","","0","stimuli/boats_lowercase.png","stimuli/stim006_animate_bird_2.png","stimuli/bird_uppercase.png","55"
"html-button-response-mod","61","284181","0.0-61.0","76644","","","","","","triplet","5143.899999976158","","","","2","stimuli/face_lowercase.png","stimuli/tools_lowercase.png","stimuli/stim019_inanimate_tree_3.png","56"
"html-button-response-mod","62","289281","0.0-62.0","76644","","","","","","triplet","4595","","","","0","stimuli/stim007_animate_bird_3.png","stimuli/boats_lowercase.png","stimuli/tools_uppercase.png","57"
"html-button-response-mod","63","291781","0.0-63.0","76644","","","","","","triplet","1995.7999999523163","","","","1","stimuli/stim007_animate_bird_3.png","stimuli/boats_lowercase.png","stimuli/stim011_animate_face_3.png","58"
"html-button-response-mod","64","293632","0.0-64.0","76644","","","","","","triplet","1344.8999999761581","","","","1","stimuli/stim010_animate_face_2.png","stimuli/stim023_inanimate_tools_3.png","stimuli/stim003_animate_fish_3.png","59"
"html-button-response-mod","65","295582","0.0-65.0","76644","","","","","","triplet","1445.6999999284744","","","","0","stimuli/stim003_animate_fish_3.png","stimuli/stim015_inanimate_boats_3.png","stimuli/stim014_inanimate_boats_2.png","60"
"html-button-response-mod","66","299982","0.0-66.0","76644","","","","","","triplet","3894","","","","2","stimuli/stim022_inanimate_tools_2.png","stimuli/stim017_inanimate_tree_1.png","stimuli/stim002_animate_fish_2.png","61"
"html-button-response-mod","67","303298","0.0-67.0","76644","","","","","","triplet","2810","","","","2","stimuli/stim015_inanimate_boats_3.png","stimuli/boats_lowercase.png","stimuli/stim022_inanimate_tools_2.png","62"
"html-button-response-mod","68","306298","0.0-68.0","76644","","","","","","triplet","2492.7000000476837","","","","2","stimuli/stim002_animate_fish_2.png","stimuli/stim017_inanimate_tree_1.png","stimuli/tools_uppercase.png","63"
"html-button-response-mod","69","308013","0.0-69.0","76644","","","","","","triplet","1209","","","","1","stimuli/tree_lowercase.png","stimuli/stim024_inanimate_tools_4.png","stimuli/stim017_inanimate_tree_1.png","64"
"html-button-response-mod","70","311198","0.0-70.0","76644","","","","","","triplet","2676.2999999523163","","","","2","stimuli/fish_uppercase.png","stimuli/bird_lowercase.png","stimuli/stim012_animate_face_4.png","65"
"html-button-response-mod","71","313582","0.0-71.0","76644","","","","","","triplet","1879.6000000238419","","","","0","stimuli/bird_uppercase.png","stimuli/stim003_animate_fish_3.png","stimuli/stim018_inanimate_tree_2.png","66"
"html-button-response-mod","72","317432","0.0-72.0","76644","","","","","","triplet","3339.899999976158","","","","2","stimuli/stim022_inanimate_tools_2.png","stimuli/tools_lowercase.png","stimuli/tree_uppercase.png","67"
"html-button-response-mod","73","320132","0.0-73.0","76644","","","","","","triplet","2193","","","","0","stimuli/stim016_inanimate_boats_4.png","stimuli/face_lowercase.png","stimuli/tools_lowercase.png","68"
"html-button-response-mod","74","322216","0.0-74.0","76644","","","","","","triplet","1578.8999999761581","","","","1","stimuli/stim022_inanimate_tools_2.png","stimuli/stim007_animate_bird_3.png","stimuli/stim023_inanimate_tools_3.png","69"
"html-button-response-mod","75","324615","0.0-75.0","76644","","","","","","triplet","1890.3999999761581","","","","0","stimuli/stim010_animate_face_2.png","stimuli/stim001_animate_fish_1.png","stimuli/fish_lowercase.png","70"
"html-button-response-mod","76","330849","0.0-76.0","76644","","","","","","triplet","5727.299999952316","","","","2","stimuli/stim022_inanimate_tools_2.png","stimuli/stim016_inanimate_boats_4.png","stimuli/stim017_inanimate_tree_1.png","71"
"html-button-response-mod","77","333833","0.0-77.0","76644","","","","","","triplet","2476.399999976158","","","","2","stimuli/stim023_inanimate_tools_3.png","stimuli/stim021_inanimate_tools_1.png","stimuli/fish_uppercase.png","72"
"html-button-response-mod","78","335499","0.0-78.0","76644","","","","","","triplet","1157.5999999046326","","","","0","stimuli/fish_uppercase.png","stimuli/stim012_animate_face_4.png","stimuli/stim005_animate_bird_1.png","73"
"html-button-response-mod","79","337398","0.0-79.0","76644","","","","","","triplet","1395.6999999284744","","","","1","stimuli/stim011_animate_face_3.png","stimuli/boats_lowercase.png","stimuli/stim001_animate_fish_1.png","74"
"html-button-response-mod","80","340607","0.0-80.0","76644","","","","","","triplet","2699.899999976158","","","","1","stimuli/stim004_animate_fish_4.png","stimuli/stim015_inanimate_boats_3.png","stimuli/stim003_animate_fish_3.png","75"
"html-button-response-mod","81","343648","0.0-81.0","76644","","","","","","triplet","2533.600000023842","","","","1","stimuli/stim015_inanimate_boats_3.png","stimuli/face_lowercase.png","stimuli/stim005_animate_bird_1.png","76"
"html-button-response-mod","82","345665","0.0-82.0","76644","","","","","","triplet","1512.2000000476837","","","","1","stimuli/stim006_animate_bird_2.png","stimuli/stim019_inanimate_tree_3.png","stimuli/stim007_animate_bird_3.png","77"
"html-button-response-mod","83","349765","0.0-83.0","76644","","","","","","triplet","3597.1999999284744","","","","1","stimuli/boats_uppercase.png","stimuli/stim010_animate_face_2.png","stimuli/stim014_inanimate_boats_2.png","78"
"html-button-response-mod","84","351914","0.0-84.0","76644","","","","","","triplet","1642.8999999761581","","","","1","stimuli/stim023_inanimate_tools_3.png","stimuli/tree_lowercase.png","stimuli/stim022_inanimate_tools_2.png","79"
"html-button-response-mod","85","354631","0.0-85.0","76644","","","","","","triplet","2210.4000000953674","","","","0","stimuli/stim015_inanimate_boats_3.png","stimuli/face_lowercase.png","stimuli/tree_uppercase.png","80"
"html-button-response-mod","86","356865","0.0-86.0","76644","","","","","","triplet","1729.2000000476837","","","","1","stimuli/stim008_animate_bird_4.png","stimuli/boats_uppercase.png","stimuli/stim020_inanimate_tree_4.png","81"
"html-button-response-mod","87","359398","0.0-87.0","76644","","","","","","triplet","2026.6000000238419","","","","0","stimuli/stim004_animate_fish_4.png","stimuli/bird_uppercase.png","stimuli/tree_uppercase.png","82"
"html-button-response-mod","88","361865","0.0-88.0","76644","","","","","","triplet","1959.8999999761581","","","","0","stimuli/stim018_inanimate_tree_2.png","stimuli/stim013_inanimate_boats_1.png","stimuli/stim024_inanimate_tools_4.png","83"
"html-button-response-mod","89","368115","0.0-89.0","76644","","","","","","triplet","5743.399999976158","","","","1","stimuli/bird_lowercase.png","stimuli/stim012_animate_face_4.png","stimuli/tools_uppercase.png","84"
"html-button-response-mod","90","370015","0.0-90.0","76644","","","","","","triplet","1393.2000000476837","","","","2","stimuli/stim022_inanimate_tools_2.png","stimuli/stim016_inanimate_boats_4.png","stimuli/face_lowercase.png","85"
"html-button-response-mod","91","371865","0.0-91.0","76644","","","","","","triplet","1341.7999999523163","","","","0","stimuli/stim008_animate_bird_4.png","stimuli/boats_lowercase.png","stimuli/fish_lowercase.png","86"
"html-button-response-mod","92","374032","0.0-92.0","76644","","","","","","triplet","1662.6999999284744","","","","0","stimuli/fish_lowercase.png","stimuli/bird_lowercase.png","stimuli/bird_uppercase.png","87"
"html-button-response-mod","93","381515","0.0-93.0","76644","","","","","","triplet","6976.100000023842","","","","1","stimuli/stim003_animate_fish_3.png","stimuli/stim013_inanimate_boats_1.png","stimuli/stim020_inanimate_tree_4.png","88"
"html-button-response-mod","94","383265","0.0-94.0","76644","","","","","","triplet","1243.2000000476837","","","","0","stimuli/bird_uppercase.png","stimuli/stim004_animate_fish_4.png","stimuli/stim018_inanimate_tree_2.png","89"
"html-button-response-mod","95","385182","0.0-95.0","76644","","","","","","triplet","1410.3999999761581","","","","0","stimuli/stim005_animate_bird_1.png","stimuli/stim020_inanimate_tree_4.png","stimuli/tree_lowercase.png","90"
"html-button-response-mod","96","387696","0.0-96.0","76644","","","","","","triplet","2006.8000000715256","","","","2","stimuli/stim008_animate_bird_4.png","stimuli/boats_uppercase.png","stimuli/stim023_inanimate_tools_3.png","91"
"html-button-response-mod","97","393650","0.0-97.0","76644","","","","","","triplet","5449.799999952316","","","","0","stimuli/stim013_inanimate_boats_1.png","stimuli/stim015_inanimate_boats_3.png","stimuli/stim022_inanimate_tools_2.png","92"
"html-button-response-mod","98","400265","0.0-98.0","76644","","","","","","triplet","6109.899999976158","","","","2","stimuli/boats_lowercase.png","stimuli/fish_lowercase.png","stimuli/stim007_animate_bird_3.png","93"
"html-button-response-mod","99","401815","0.0-99.0","76644","","","","","","triplet","1042.1000000238419","","","","2","stimuli/stim005_animate_bird_1.png","stimuli/stim002_animate_fish_2.png","stimuli/tree_lowercase.png","94"
"html-button-response-mod","100","403715","0.0-100.0","76644","","","","","","triplet","1393.1999999284744","","","","1","stimuli/stim009_animate_face_1.png","stimuli/stim019_inanimate_tree_3.png","stimuli/stim010_animate_face_2.png","95"
"html-button-response-mod","101","405566","0.0-101.0","76644","","","","","","triplet","1344.0999999046326","","","","2","stimuli/tools_uppercase.png","stimuli/tools_lowercase.png","stimuli/stim010_animate_face_2.png","96"
"html-button-response-mod","102","407383","0.0-102.0","76644","","","","","","triplet","1309","","","","0","stimuli/stim011_animate_face_3.png","stimuli/stim021_inanimate_tools_1.png","stimuli/stim024_inanimate_tools_4.png","97"
"html-button-response-mod","103","413215","0.0-103.0","76644","","","","","","triplet","5327.5","","","","2","stimuli/stim009_animate_face_1.png","stimuli/tools_lowercase.png","stimuli/stim019_inanimate_tree_3.png","98"
"html-button-response-mod","104","416998","0.0-104.0","76644","","","","","","triplet","3279.100000023842","","","","2","stimuli/stim013_inanimate_boats_1.png","stimuli/boats_lowercase.png","stimuli/tree_lowercase.png","99"
"html-button-response","105","419699","0.0-105.0","76644","","","","","","break","2197","<p>BREAK</p><p>Take a break for as long as you need</p><p>Click the button to continue</p>","0","","","","","",""
"html-button-response-mod","106","424365","0.0-106.0","76644","","","","","","triplet","4663.5","","","","1","stimuli/stim023_inanimate_tools_3.png","stimuli/stim014_inanimate_boats_2.png","stimuli/tools_lowercase.png","100"
"html-button-response-mod","107","427015","0.0-107.0","76644","","","","","","triplet","2145.100000023842","","","","1","stimuli/face_lowercase.png","stimuli/stim022_inanimate_tools_2.png","stimuli/bird_uppercase.png","101"
"html-button-response-mod","108","430932","0.0-108.0","76644","","","","","","triplet","3410","","","","2","stimuli/stim013_inanimate_boats_1.png","stimuli/stim014_inanimate_boats_2.png","stimuli/stim019_inanimate_tree_3.png","102"
"html-button-response-mod","109","433732","0.0-109.0","76644","","","","","","triplet","2295.100000023842","","","","1","stimuli/stim004_animate_fish_4.png","stimuli/face_uppercase.png","stimuli/stim019_inanimate_tree_3.png","103"
"html-button-response-mod","110","435765","0.0-110.0","76644","","","","","","triplet","1525.7999999523163","","","","2","stimuli/stim008_animate_bird_4.png","stimuli/stim003_animate_fish_3.png","stimuli/tools_uppercase.png","104"
"html-button-response-mod","111","438165","0.0-111.0","76644","","","","","","triplet","1894.1000000238419","","","","2","stimuli/stim006_animate_bird_2.png","stimuli/stim018_inanimate_tree_2.png","stimuli/fish_lowercase.png","105"
"html-button-response-mod","112","440999","0.0-112.0","76644","","","","","","triplet","2325.600000023842","","","","0","stimuli/fish_uppercase.png","stimuli/stim016_inanimate_boats_4.png","stimuli/stim013_inanimate_boats_1.png","106"
"html-button-response-mod","113","442949","0.0-113.0","76644","","","","","","triplet","1445.2000000476837","","","","1","stimuli/stim004_animate_fish_4.png","stimuli/stim017_inanimate_tree_1.png","stimuli/stim003_animate_fish_3.png","107"
"html-button-response-mod","114","446165","0.0-114.0","76644","","","","","","triplet","2711","","","","1","stimuli/stim010_animate_face_2.png","stimuli/bird_uppercase.png","stimuli/stim003_animate_fish_3.png","108"
"html-button-response-mod","115","448898","0.0-115.0","76644","","","","","","triplet","2228.2000000476837","","","","2","stimuli/stim006_animate_bird_2.png","stimuli/stim019_inanimate_tree_3.png","stimuli/face_lowercase.png","109"
"html-button-response-mod","116","453632","0.0-116.0","76644","","","","","","triplet","4226","","","","0","stimuli/fish_lowercase.png","stimuli/bird_uppercase.png","stimuli/tools_uppercase.png","110"
"html-button-response-mod","117","455548","0.0-117.0","76644","","","","","","triplet","1412.2000000476837","","","","0","stimuli/stim016_inanimate_boats_4.png","stimuli/stim004_animate_fish_4.png","stimuli/stim008_animate_bird_4.png","111"
"html-button-response-mod","118","460431","0.0-118.0","76644","","","","","","triplet","4378.600000023842","","","","1","stimuli/stim001_animate_fish_1.png","stimuli/stim011_animate_face_3.png","stimuli/stim005_animate_bird_1.png","112"
"html-button-response-mod","119","465899","0.0-119.0","76644","","","","","","triplet","4958","","","","2","stimuli/stim022_inanimate_tools_2.png","stimuli/stim015_inanimate_boats_3.png","stimuli/stim017_inanimate_tree_1.png","113"
"html-button-response-mod","120","468048","0.0-120.0","76644","","","","","","triplet","1643.7999999523163","","","","2","stimuli/stim016_inanimate_boats_4.png","stimuli/stim017_inanimate_tree_1.png","stimuli/fish_uppercase.png","114"
"html-button-response-mod","121","469914","0.0-121.0","76644","","","","","","triplet","1359.8999999761581","","","","1","stimuli/stim006_animate_bird_2.png","stimuli/stim018_inanimate_tree_2.png","stimuli/stim004_animate_fish_4.png","115"
"html-button-response-mod","122","474648","0.0-122.0","76644","","","","","","triplet","4227.100000023842","","","","2","stimuli/stim022_inanimate_tools_2.png","stimuli/stim016_inanimate_boats_4.png","stimuli/stim004_animate_fish_4.png","116"
"html-button-response-mod","123","477565","0.0-123.0","76644","","","","","","triplet","2410.8000000715256","","","","2","stimuli/bird_uppercase.png","stimuli/tools_uppercase.png","stimuli/stim021_inanimate_tools_1.png","117"
"html-button-response-mod","124","480065","0.0-124.0","76644","","","","","","triplet","1991","","","","1","stimuli/stim004_animate_fish_4.png","stimuli/stim023_inanimate_tools_3.png","stimuli/stim003_animate_fish_3.png","118"
"html-button-response-mod","125","483380","0.0-125.0","76644","","","","","","triplet","2810.4000000953674","","","","0","stimuli/stim016_inanimate_boats_4.png","stimuli/tree_uppercase.png","stimuli/face_lowercase.png","119"
"html-button-response-mod","126","484864","0.0-126.0","76644","","","","","","triplet","975.3000000715256","","","","2","stimuli/stim017_inanimate_tree_1.png","stimuli/stim020_inanimate_tree_4.png","stimuli/stim012_animate_face_4.png","120"
"html-button-response-mod","127","489848","0.0-127.0","76644","","","","","","triplet","4478.899999976158","","","","0","stimuli/stim017_inanimate_tree_1.png","stimuli/stim004_animate_fish_4.png","stimuli/stim009_animate_face_1.png","121"
"html-button-response-mod","128","491747","0.0-128.0","76644","","","","","","triplet","1395.1000000238419","","","","0","stimuli/boats_uppercase.png","stimuli/stim006_animate_bird_2.png","stimuli/stim005_animate_bird_1.png","122"
"html-button-response-mod","129","493182","0.0-129.0","76644","","","","","","triplet","931.1000000238419","","","","2","stimuli/stim018_inanimate_tree_2.png","stimuli/stim002_animate_fish_2.png","stimuli/face_uppercase.png","123"
"html-button-response-mod","130","494815","0.0-130.0","76644","","","","","","triplet","1130","","","","1","stimuli/stim001_animate_fish_1.png","stimuli/boats_lowercase.png","stimuli/stim009_animate_face_1.png","124"
"html-button-response-mod","131","496081","0.0-131.0","76644","","","","","","triplet","761","","","","2","stimuli/stim003_animate_fish_3.png","stimuli/stim013_inanimate_boats_1.png","stimuli/tree_lowercase.png","125"
"html-button-response-mod","132","498614","0.0-132.0","76644","","","","","","triplet","2028.1999999284744","","","","1","stimuli/stim021_inanimate_tools_1.png","stimuli/face_lowercase.png","stimuli/stim020_inanimate_tree_4.png","126"
"html-button-response-mod","133","500748","0.0-133.0","76644","","","","","","triplet","1630.6000000238419","","","","1","stimuli/stim022_inanimate_tools_2.png","stimuli/stim020_inanimate_tree_4.png","stimuli/tools_lowercase.png","127"
"html-button-response-mod","134","502814","0.0-134.0","76644","","","","","","triplet","1562.8999999761581","","","","2","stimuli/fish_lowercase.png","stimuli/fish_uppercase.png","stimuli/stim010_animate_face_2.png","128"
"html-button-response-mod","135","504698","0.0-135.0","76644","","","","","","triplet","1380.5","","","","2","stimuli/stim006_animate_bird_2.png","stimuli/stim008_animate_bird_4.png","stimuli/boats_uppercase.png","129"
"html-button-response-mod","136","506198","0.0-136.0","76644","","","","","","triplet","995.6000000238419","","","","2","stimuli/stim008_animate_bird_4.png","stimuli/stim002_animate_fish_2.png","stimuli/stim012_animate_face_4.png","130"
"html-button-response-mod","137","508199","0.0-137.0","76644","","","","","","triplet","1492.3000000715256","","","","2","stimuli/face_uppercase.png","stimuli/stim010_animate_face_2.png","stimuli/stim018_inanimate_tree_2.png","131"
"html-button-response-mod","138","512082","0.0-138.0","76644","","","","","","triplet","3374.5","","","","0","stimuli/face_lowercase.png","stimuli/stim022_inanimate_tools_2.png","stimuli/stim017_inanimate_tree_1.png","132"
"html-button-response-mod","139","513849","0.0-139.0","76644","","","","","","triplet","1257.8999999761581","","","","0","stimuli/tree_uppercase.png","stimuli/stim011_animate_face_3.png","stimuli/stim006_animate_bird_2.png","133"
"html-button-response-mod","140","515265","0.0-140.0","76644","","","","","","triplet","912.3999999761581","","","","2","stimuli/stim020_inanimate_tree_4.png","stimuli/stim019_inanimate_tree_3.png","stimuli/stim008_animate_bird_4.png","134"
"html-button-response-mod","141","517415","0.0-141.0","76644","","","","","","triplet","1645.5","","","","2","stimuli/face_uppercase.png","stimuli/tree_uppercase.png","stimuli/stim023_inanimate_tools_3.png","135"
"html-button-response-mod","142","519615","0.0-142.0","76644","","","","","","triplet","1692.3999999761581","","","","0","stimuli/stim006_animate_bird_2.png","stimuli/tools_uppercase.png","stimuli/stim023_inanimate_tools_3.png","136"
"html-button-response-mod","143","522265","0.0-143.0","76644","","","","","","triplet","2146.2999999523163","","","","0","stimuli/stim022_inanimate_tools_2.png","stimuli/stim002_animate_fish_2.png","stimuli/stim008_animate_bird_4.png","137"
"html-button-response-mod","144","524715","0.0-144.0","76644","","","","","","triplet","1940.6999999284744","","","","0","stimuli/tree_lowercase.png","stimuli/stim015_inanimate_boats_3.png","stimuli/stim022_inanimate_tools_2.png","138"
"html-button-response-mod","145","526414","0.0-145.0","76644","","","","","","triplet","1195.5","","","","2","stimuli/stim023_inanimate_tools_3.png","stimuli/stim021_inanimate_tools_1.png","stimuli/bird_lowercase.png","139"
"html-button-response-mod","146","529665","0.0-146.0","76644","","","","","","triplet","2745.7000000476837","","","","0","stimuli/stim016_inanimate_boats_4.png","stimuli/face_uppercase.png","stimuli/bird_lowercase.png","140"
"html-button-response-mod","147","532649","0.0-147.0","76644","","","","","","triplet","2478.5","","","","0","stimuli/bird_lowercase.png","stimuli/stim004_animate_fish_4.png","stimuli/fish_lowercase.png","141"
"html-button-response-mod","148","536382","0.0-148.0","76644","","","","","","triplet","3227","","","","1","stimuli/stim018_inanimate_tree_2.png","stimuli/stim012_animate_face_4.png","stimuli/stim008_animate_bird_4.png","142"
"html-button-response-mod","149","540298","0.0-149.0","76644","","","","","","triplet","3411.100000023842","","","","0","stimuli/stim015_inanimate_boats_3.png","stimuli/tools_uppercase.png","stimuli/fish_uppercase.png","143"
"html-button-response-mod","150","542349","0.0-150.0","76644","","","","","","triplet","1541.6999999284744","","","","0","stimuli/tree_lowercase.png","stimuli/stim019_inanimate_tree_3.png","stimuli/stim013_inanimate_boats_1.png","144"
"html-button-response-mod","151","551632","0.0-151.0","76644","","","","","","triplet","8774.300000071526","","","","1","stimuli/stim019_inanimate_tree_3.png","stimuli/stim009_animate_face_1.png","stimuli/stim007_animate_bird_3.png","145"
"html-button-response-mod","152","557633","0.0-152.0","76644","","","","","","triplet","5492.800000071526","","","","1","stimuli/bird_uppercase.png","stimuli/stim016_inanimate_boats_4.png","stimuli/tools_lowercase.png","146"
"html-button-response-mod","153","559832","0.0-153.0","76644","","","","","","triplet","1693","","","","1","stimuli/stim013_inanimate_boats_1.png","stimuli/stim001_animate_fish_1.png","stimuli/stim014_inanimate_boats_2.png","147"
"html-button-response-mod","154","561615","0.0-154.0","76644","","","","","","triplet","1275.6999999284744","","","","2","stimuli/stim008_animate_bird_4.png","stimuli/stim004_animate_fish_4.png","stimuli/bird_uppercase.png","148"
"html-button-response-mod","155","564231","0.0-155.0","76644","","","","","","triplet","2110.7000000476837","","","","0","stimuli/tree_lowercase.png","stimuli/stim005_animate_bird_1.png","stimuli/stim003_animate_fish_3.png","149"
"html-button-response","156","567565","0.0-156.0","76644","","","","","","break","2827.0999999046326","<p>BREAK</p><p>Take a break for as long as you need</p><p>Click the button to continue</p>","0","","","","","",""
"html-button-response-mod","157","570381","0.0-157.0","76644","","","","","","triplet","2812.7000000476837","","","","0","stimuli/fish_uppercase.png","stimuli/stim005_animate_bird_1.png","stimuli/stim002_animate_fish_2.png","150"
"html-button-response-mod","158","574515","0.0-158.0","76644","","","","","","triplet","3625.3000000715256","","","","0","stimuli/stim012_animate_face_4.png","stimuli/tree_uppercase.png","stimuli/stim017_inanimate_tree_1.png","151"
"html-button-response-mod","159","576132","0.0-159.0","76644","","","","","","triplet","1112.9000000953674","","","","2","stimuli/stim008_animate_bird_4.png","stimuli/stim006_animate_bird_2.png","stimuli/stim016_inanimate_boats_4.png","152"
"html-button-response-mod","160","580715","0.0-160.0","76644","","","","","","triplet","4076","","","","1","stimuli/face_uppercase.png","stimuli/tools_uppercase.png","stimuli/stim011_animate_face_3.png","153"
"html-button-response-mod","161","582981","0.0-161.0","76644","","","","","","triplet","1759.3000000715256","","","","1","stimuli/fish_lowercase.png","stimuli/stim022_inanimate_tools_2.png","stimuli/fish_uppercase.png","154"
"html-button-response-mod","162","585382","0.0-162.0","76644","","","","","","triplet","1894.7000000476837","","","","2","stimuli/stim021_inanimate_tools_1.png","stimuli/stim020_inanimate_tree_4.png","stimuli/boats_uppercase.png","155"
"html-button-response-mod","163","587098","0.0-163.0","76644","","","","","","triplet","1207.6999999284744","","","","0","stimuli/tree_lowercase.png","stimuli/stim006_animate_bird_2.png","stimuli/stim002_animate_fish_2.png","156"
"html-button-response-mod","164","590048","0.0-164.0","76644","","","","","","triplet","2441.2999999523163","","","","1","stimuli/tools_lowercase.png","stimuli/stim012_animate_face_4.png","stimuli/fish_uppercase.png","157"
"html-button-response-mod","165","591764","0.0-165.0","76644","","","","","","triplet","1210.3000000715256","","","","0","stimuli/fish_uppercase.png","stimuli/stim020_inanimate_tree_4.png","stimuli/stim018_inanimate_tree_2.png","158"
"html-button-response-mod","166","598632","0.0-166.0","76644","","","","","","triplet","6359.5","","","","0","stimuli/stim004_animate_fish_4.png","stimuli/stim002_animate_fish_2.png","stimuli/stim003_animate_fish_3.png","159"
"html-button-response-mod","167","600898","0.0-167.0","76644","","","","","","triplet","1761.7999999523163","","","","0","stimuli/stim005_animate_bird_1.png","stimuli/stim015_inanimate_boats_3.png","stimuli/stim016_inanimate_boats_4.png","160"
"html-button-response-mod","168","602665","0.0-168.0","76644","","","","","","triplet","1257.2999999523163","","","","0","stimuli/stim013_inanimate_boats_1.png","stimuli/stim011_animate_face_3.png","stimuli/face_uppercase.png","161"
"html-button-response-mod","169","605681","0.0-169.0","76644","","","","","","triplet","2512.7000000476837","","","","0","stimuli/stim011_animate_face_3.png","stimuli/fish_uppercase.png","stimuli/tools_uppercase.png","162"
"html-button-response-mod","170","609948","0.0-170.0","76644","","","","","","triplet","3761.7000000476837","","","","1","stimuli/stim008_animate_bird_4.png","stimuli/stim014_inanimate_boats_2.png","stimuli/stim010_animate_face_2.png","163"
"html-button-response-mod","171","613381","0.0-171.0","76644","","","","","","triplet","2925.100000023842","","","","0","stimuli/stim003_animate_fish_3.png","stimuli/tools_lowercase.png","stimuli/boats_lowercase.png","164"
"html-button-response-mod","172","617948","0.0-172.0","76644","","","","","","triplet","4061.399999976158","","","","2","stimuli/tree_lowercase.png","stimuli/fish_lowercase.png","stimuli/boats_lowercase.png","165"
"html-button-response-mod","173","620315","0.0-173.0","76644","","","","","","triplet","1862.5","","","","2","stimuli/stim023_inanimate_tools_3.png","stimuli/stim014_inanimate_boats_2.png","stimuli/stim008_animate_bird_4.png","166"
"html-button-response-mod","174","624215","0.0-174.0","76644","","","","","","triplet","3390.7999999523163","","","","2","stimuli/stim004_animate_fish_4.png","stimuli/stim009_animate_face_1.png","stimuli/stim020_inanimate_tree_4.png","167"
"html-button-response-mod","175","626832","0.0-175.0","76644","","","","","","triplet","2111.1999999284744","","","","0","stimuli/stim017_inanimate_tree_1.png","stimuli/fish_uppercase.png","stimuli/tools_uppercase.png","168"
"html-button-response-mod","176","629180","0.0-176.0","76644","","","","","","triplet","1841.1999999284744","","","","0","stimuli/bird_lowercase.png","stimuli/stim009_animate_face_1.png","stimuli/stim018_inanimate_tree_2.png","169"
"html-button-response-mod","177","630881","0.0-177.0","76644","","","","","","triplet","1196.2000000476837","","","","1","stimuli/stim009_animate_face_1.png","stimuli/bird_uppercase.png","stimuli/stim004_animate_fish_4.png","170"
"html-button-response-mod","178","633665","0.0-178.0","76644","","","","","","triplet","2279.7000000476837","","","","2","stimuli/tree_lowercase.png","stimuli/stim020_inanimate_tree_4.png","stimuli/stim023_inanimate_tools_3.png","171"
"html-button-response-mod","179","639215","0.0-179.0","76644","","","","","","triplet","5046","","","","1","stimuli/stim011_animate_face_3.png","stimuli/stim018_inanimate_tree_2.png","stimuli/stim002_animate_fish_2.png","172"
"html-button-response-mod","180","641298","0.0-180.0","76644","","","","","","triplet","1578.3999999761581","","","","2","stimuli/stim008_animate_bird_4.png","stimuli/stim019_inanimate_tree_3.png","stimuli/face_uppercase.png","173"
"html-button-response-mod","181","645975","0.0-181.0","76644","","","","","","triplet","4173.899999976158","","","","1","stimuli/fish_lowercase.png","stimuli/stim016_inanimate_boats_4.png","stimuli/bird_uppercase.png","174"
"html-button-response-mod","182","649431","0.0-182.0","76644","","","","","","triplet","2951.399999976158","","","","2","stimuli/boats_lowercase.png","stimuli/boats_uppercase.png","stimuli/bird_lowercase.png","175"
"html-button-response-mod","183","652232","0.0-183.0","76644","","","","","","triplet","2293.8000000715256","","","","0","stimuli/stim009_animate_face_1.png","stimuli/stim022_inanimate_tools_2.png","stimuli/stim014_inanimate_boats_2.png","176"
"html-button-response-mod","184","653798","0.0-184.0","76644","","","","","","triplet","1060.7000000476837","","","","2","stimuli/stim019_inanimate_tree_3.png","stimuli/stim017_inanimate_tree_1.png","stimuli/face_lowercase.png","177"
"html-button-response-mod","185","657548","0.0-185.0","76644","","","","","","triplet","3244.600000023842","","","","0","stimuli/stim016_inanimate_boats_4.png","stimuli/stim006_animate_bird_2.png","stimuli/stim011_animate_face_3.png","178"
"html-button-response-mod","186","660298","0.0-186.0","76644","","","","","","triplet","2241.899999976158","","","","0","stimuli/stim014_inanimate_boats_2.png","stimuli/bird_uppercase.png","stimuli/bird_lowercase.png","179"
"html-button-response-mod","187","662382","0.0-187.0","76644","","","","","","triplet","1579.7000000476837","","","","0","stimuli/stim008_animate_bird_4.png","stimuli/stim012_animate_face_4.png","stimuli/face_lowercase.png","180"
"html-button-response-mod","188","669648","0.0-188.0","76644","","","","","","triplet","6757.299999952316","","","","2","stimuli/stim003_animate_fish_3.png","stimuli/stim016_inanimate_boats_4.png","stimuli/tools_lowercase.png","181"
"html-button-response-mod","189","671348","0.0-189.0","76644","","","","","","triplet","1192","","","","1","stimuli/stim007_animate_bird_3.png","stimuli/tools_lowercase.png","stimuli/stim004_animate_fish_4.png","182"
"html-button-response-mod","190","673032","0.0-190.0","76644","","","","","","triplet","1174.0999999046326","","","","2","stimuli/face_lowercase.png","stimuli/tools_uppercase.png","stimuli/stim024_inanimate_tools_4.png","183"
"html-button-response-mod","191","681298","0.0-191.0","76644","","","","","","triplet","7759.399999976158","","","","1","stimuli/stim001_animate_fish_1.png","stimuli/stim008_animate_bird_4.png","stimuli/stim004_animate_fish_4.png","184"
"html-button-response-mod","192","683215","0.0-192.0","76644","","","","","","triplet","1409.3000000715256","","","","2","stimuli/fish_uppercase.png","stimuli/fish_lowercase.png","stimuli/stim019_inanimate_tree_3.png","185"
"html-button-response-mod","193","684982","0.0-193.0","76644","","","","","","triplet","1259.3999999761581","","","","0","stimuli/fish_lowercase.png","stimuli/stim009_animate_face_1.png","stimuli/stim002_animate_fish_2.png","186"
"html-button-response-mod","194","686748","0.0-194.0","76644","","","","","","triplet","1261.3000000715256","","","","2","stimuli/stim009_animate_face_1.png","stimuli/stim016_inanimate_boats_4.png","stimuli/tree_uppercase.png","187"
"html-button-response-mod","195","688298","0.0-195.0","76644","","","","","","triplet","1042.8999999761581","","","","2","stimuli/stim007_animate_bird_3.png","stimuli/stim003_animate_fish_3.png","stimuli/stim015_inanimate_boats_3.png","188"
"html-button-response-mod","196","690448","0.0-196.0","76644","","","","","","triplet","1641.1000000238419","","","","0","stimuli/stim016_inanimate_boats_4.png","stimuli/face_lowercase.png","stimuli/tree_lowercase.png","189"
"html-button-response-mod","197","691981","0.0-197.0","76644","","","","","","triplet","1025.2000000476837","","","","0","stimuli/face_uppercase.png","stimuli/stim017_inanimate_tree_1.png","stimuli/stim020_inanimate_tree_4.png","190"
"html-button-response-mod","198","694114","0.0-198.0","76644","","","","","","triplet","1624.6999999284744","","","","2","stimuli/stim015_inanimate_boats_3.png","stimuli/boats_lowercase.png","stimuli/bird_lowercase.png","191"
"html-button-response-mod","199","696864","0.0-199.0","76644","","","","","","triplet","2246","","","","0","stimuli/bird_uppercase.png","stimuli/stim017_inanimate_tree_1.png","stimuli/stim010_animate_face_2.png","192"
"html-button-response-mod","200","699931","0.0-200.0","76644","","","","","","triplet","2560.2000000476837","","","","1","stimuli/bird_uppercase.png","stimuli/tools_lowercase.png","stimuli/stim008_animate_bird_4.png","193"
"html-button-response-mod","201","701614","0.0-201.0","76644","","","","","","triplet","1179.2999999523163","","","","2","stimuli/stim018_inanimate_tree_2.png","stimuli/stim019_inanimate_tree_3.png","stimuli/face_lowercase.png","194"
"html-button-response-mod","202","704631","0.0-202.0","76644","","","","","","triplet","2510.5","","","","1","stimuli/stim007_animate_bird_3.png","stimuli/stim018_inanimate_tree_2.png","stimuli/stim012_animate_face_4.png","195"
"html-button-response-mod","203","714732","0.0-203.0","76644","","","","","","triplet","9597.100000023842","","","","0","stimuli/tree_uppercase.png","stimuli/face_uppercase.png","stimuli/fish_lowercase.png","196"
"html-button-response-mod","204","718648","0.0-204.0","76644","","","","","","triplet","3407.2000000476837","","","","1","stimuli/stim004_animate_fish_4.png","stimuli/bird_uppercase.png","stimuli/stim010_animate_face_2.png","197"
"html-button-response-mod","205","720980","0.0-205.0","76644","","","","","","triplet","1829.6999999284744","","","","0","stimuli/bird_lowercase.png","stimuli/stim024_inanimate_tools_4.png","stimuli/stim020_inanimate_tree_4.png","198"
"html-button-response-mod","206","723598","0.0-206.0","76644","","","","","","triplet","2109.600000023842","","","","0","stimuli/stim021_inanimate_tools_1.png","stimuli/stim006_animate_bird_2.png","stimuli/stim019_inanimate_tree_3.png","199"
"html-button-response","207","725315","0.0-207.0","76644","","","","","","break","1211.6000000238419","<p>BREAK</p><p>Take a break for as long as you need</p><p>Click the button to continue</p>","0","","","","","",""
"html-button-response-mod","208","728715","0.0-208.0","76644","","","","","","triplet","3397","","","","2","stimuli/tools_lowercase.png","stimuli/boats_lowercase.png","stimuli/face_lowercase.png","200"
"html-button-response-mod","209","730532","0.0-209.0","76644","","","","","","triplet","1309.2000000476837","","","","2","stimuli/stim012_animate_face_4.png","stimuli/stim003_animate_fish_3.png","stimuli/boats_lowercase.png","201"
"html-button-response-mod","210","732299","0.0-210.0","76644","","","","","","triplet","1262.7999999523163","","","","2","stimuli/stim016_inanimate_boats_4.png","stimuli/stim014_inanimate_boats_2.png","stimuli/tools_uppercase.png","202"
"html-button-response-mod","211","737048","0.0-211.0","76644","","","","","","triplet","4241.5","","","","2","stimuli/fish_uppercase.png","stimuli/tree_uppercase.png","stimuli/tools_uppercase.png","203"
"html-button-response-mod","212","740848","0.0-212.0","76644","","","","","","triplet","3292.899999976158","","","","0","stimuli/stim021_inanimate_tools_1.png","stimuli/stim009_animate_face_1.png","stimuli/stim005_animate_bird_1.png","204"
"html-button-response-mod","213","742799","0.0-213.0","76644","","","","","","triplet","1441.3999999761581","","","","0","stimuli/boats_lowercase.png","stimuli/stim022_inanimate_tools_2.png","stimuli/stim002_animate_fish_2.png","205"
"html-button-response-mod","214","747115","0.0-214.0","76644","","","","","","triplet","3809.5","","","","1","stimuli/fish_lowercase.png","stimuli/stim003_animate_fish_3.png","stimuli/bird_uppercase.png","206"
"html-button-response-mod","215","754832","0.0-215.0","76644","","","","","","triplet","7207.599999904633","","","","2","stimuli/stim015_inanimate_boats_3.png","stimuli/stim022_inanimate_tools_2.png","stimuli/stim012_animate_face_4.png","207"
"html-button-response-mod","216","757699","0.0-216.0","76644","","","","","","triplet","2357.600000023842","","","","2","stimuli/boats_lowercase.png","stimuli/tools_lowercase.png","stimuli/stim009_animate_face_1.png","208"
"html-button-response-mod","217","759848","0.0-217.0","76644","","","","","","triplet","1643.7000000476837","","","","0","stimuli/stim011_animate_face_3.png","stimuli/boats_uppercase.png","stimuli/stim016_inanimate_boats_4.png","209"
"html-button-response-mod","218","761998","0.0-218.0","76644","","","","","","triplet","1644.7999999523163","","","","1","stimuli/stim003_animate_fish_3.png","stimuli/stim020_inanimate_tree_4.png","stimuli/fish_lowercase.png","210"
"html-button-response-mod","219","764182","0.0-219.0","76644","","","","","","triplet","1678.8999999761581","","","","1","stimuli/stim005_animate_bird_1.png","stimuli/face_lowercase.png","stimuli/stim007_animate_bird_3.png","211"
"html-button-response-mod","220","767681","0.0-220.0","76644","","","","","","triplet","2992.600000023842","","","","2","stimuli/stim016_inanimate_boats_4.png","stimuli/tools_lowercase.png","stimuli/stim007_animate_bird_3.png","212"
"html-button-response-mod","221","770647","0.0-221.0","76644","","","","","","triplet","2461.100000023842","","","","2","stimuli/stim024_inanimate_tools_4.png","stimuli/stim007_animate_bird_3.png","stimuli/face_lowercase.png","213"
"html-button-response-mod","222","772381","0.0-222.0","76644","","","","","","triplet","1230.2999999523163","","","","0","stimuli/stim005_animate_bird_1.png","stimuli/boats_lowercase.png","stimuli/bird_uppercase.png","214"
"html-button-response-mod","223","774248","0.0-223.0","76644","","","","","","triplet","1358.5999999046326","","","","0","stimuli/stim010_animate_face_2.png","stimuli/stim003_animate_fish_3.png","stimuli/stim001_animate_fish_1.png","215"
"html-button-response-mod","224","777464","0.0-224.0","76644","","","","","","triplet","2712.899999976158","","","","2","stimuli/tree_uppercase.png","stimuli/tools_uppercase.png","stimuli/stim005_animate_bird_1.png","216"
"html-button-response-mod","225","779731","0.0-225.0","76644","","","","","","triplet","1757.8999999761581","","","","2","stimuli/stim019_inanimate_tree_3.png","stimuli/stim010_animate_face_2.png","stimuli/tools_lowercase.png","217"
"html-button-response-mod","226","781529","0.0-226.0","76644","","","","","","triplet","1295","","","","0","stimuli/stim019_inanimate_tree_3.png","stimuli/tools_lowercase.png","stimuli/stim022_inanimate_tools_2.png","218"
"html-button-response-mod","227","784964","0.0-227.0","76644","","","","","","triplet","2929.100000023842","","","","1","stimuli/stim008_animate_bird_4.png","stimuli/stim021_inanimate_tools_1.png","stimuli/stim018_inanimate_tree_2.png","219"
"html-button-response-mod","228","787581","0.0-228.0","76644","","","","","","triplet","2112.600000023842","","","","1","stimuli/tree_uppercase.png","stimuli/stim010_animate_face_2.png","stimuli/tools_uppercase.png","220"
"html-button-response-mod","229","790115","0.0-229.0","76644","","","","","","triplet","2029.6000000238419","","","","0","stimuli/stim004_animate_fish_4.png","stimuli/boats_uppercase.png","stimuli/boats_lowercase.png","221"
"html-button-response-mod","230","793915","0.0-230.0","76644","","","","","","triplet","3291.2000000476837","","","","0","stimuli/stim006_animate_bird_2.png","stimuli/stim024_inanimate_tools_4.png","stimuli/stim015_inanimate_boats_3.png","222"
"html-button-response-mod","231","800786","0.0-231.0","76644","","","","","","triplet","6362","","","","1","stimuli/stim020_inanimate_tree_4.png","stimuli/stim022_inanimate_tools_2.png","stimuli/stim006_animate_bird_2.png","223"
"html-button-response-mod","232","802932","0.0-232.0","76644","","","","","","triplet","1637.7000000476837","","","","2","stimuli/stim009_animate_face_1.png","stimuli/stim006_animate_bird_2.png","stimuli/stim023_inanimate_tools_3.png","224"
"html-button-response-mod","233","805481","0.0-233.0","76644","","","","","","triplet","2039.7999999523163","","","","2","stimuli/stim016_inanimate_boats_4.png","stimuli/stim013_inanimate_boats_1.png","stimuli/stim021_inanimate_tools_1.png","225"
"html-button-response-mod","234","807432","0.0-234.0","76644","","","","","","triplet","1446.0999999046326","","","","1","stimuli/stim012_animate_face_4.png","stimuli/stim020_inanimate_tree_4.png","stimuli/face_uppercase.png","226"
"html-button-response-mod","235","810964","0.0-235.0","76644","","","","","","triplet","3027.1999999284744","","","","1","stimuli/stim005_animate_bird_1.png","stimuli/stim009_animate_face_1.png","stimuli/stim001_animate_fish_1.png","227"
"html-button-response-mod","236","813515","0.0-236.0","76644","","","","","","triplet","2041.7999999523163","","","","0","stimuli/fish_lowercase.png","stimuli/stim020_inanimate_tree_4.png","stimuli/stim023_inanimate_tools_3.png","228"
"html-button-response-mod","237","815749","0.0-237.0","76644","","","","","","triplet","1729.6000000238419","","","","1","stimuli/stim019_inanimate_tree_3.png","stimuli/fish_lowercase.png","stimuli/tree_lowercase.png","229"
"html-button-response-mod","238","820765","0.0-238.0","76644","","","","","","triplet","4509.299999952316","","","","0","stimuli/tools_uppercase.png","stimuli/stim012_animate_face_4.png","stimuli/stim014_inanimate_boats_2.png","230"
"html-button-response-mod","239","824998","0.0-239.0","76644","","","","","","triplet","3728.600000023842","","","","2","stimuli/bird_uppercase.png","stimuli/face_lowercase.png","stimuli/stim010_animate_face_2.png","231"
"html-button-response-mod","240","828880","0.0-240.0","76644","","","","","","triplet","3378.600000023842","","","","0","stimuli/face_lowercase.png","stimuli/stim018_inanimate_tree_2.png","stimuli/stim014_inanimate_boats_2.png","232"
"html-button-response-mod","241","832180","0.0-241.0","76644","","","","","","triplet","2795.6999999284744","","","","1","stimuli/stim001_animate_fish_1.png","stimuli/stim011_animate_face_3.png","stimuli/stim007_animate_bird_3.png","233"
"html-button-response-mod","242","834547","0.0-242.0","76644","","","","","","triplet","1862.2999999523163","","","","0","stimuli/bird_uppercase.png","stimuli/stim015_inanimate_boats_3.png","stimuli/stim009_animate_face_1.png","234"
"html-button-response-mod","243","838464","0.0-243.0","76644","","","","","","triplet","3412.2999999523163","","","","1","stimuli/stim018_inanimate_tree_2.png","stimuli/stim009_animate_face_1.png","stimuli/stim015_inanimate_boats_3.png","235"
"html-button-response-mod","244","841515","0.0-244.0","76644","","","","","","triplet","2543.100000023842","","","","1","stimuli/stim008_animate_bird_4.png","stimuli/tree_lowercase.png","stimuli/stim016_inanimate_boats_4.png","236"
"html-button-response-mod","245","843564","0.0-245.0","76644","","","","","","triplet","1542.8999999761581","","","","0","stimuli/tools_lowercase.png","stimuli/stim018_inanimate_tree_2.png","stimuli/tree_uppercase.png","237"
"html-button-response-mod","246","847232","0.0-246.0","76644","","","","","","triplet","3161.2999999523163","","","","1","stimuli/stim010_animate_face_2.png","stimuli/tools_lowercase.png","stimuli/stim006_animate_bird_2.png","238"
"html-button-response-mod","247","852231","0.0-247.0","76644","","","","","","triplet","4494.199999928474","","","","2","stimuli/tree_uppercase.png","stimuli/fish_lowercase.png","stimuli/stim016_inanimate_boats_4.png","239"
"html-button-response-mod","248","856281","0.0-248.0","76644","","","","","","triplet","3543.5","","","","1","stimuli/fish_uppercase.png","stimuli/stim013_inanimate_boats_1.png","stimuli/stim010_animate_face_2.png","240"
"html-button-response-mod","249","857998","0.0-249.0","76644","","","","","","triplet","1212.3999999761581","","","","1","stimuli/stim002_animate_fish_2.png","stimuli/face_uppercase.png","stimuli/stim003_animate_fish_3.png","241"
"html-button-response-mod","250","860365","0.0-250.0","76644","","","","","","triplet","1863.2999999523163","","","","1","stimuli/stim018_inanimate_tree_2.png","stimuli/tools_lowercase.png","stimuli/stim007_animate_bird_3.png","242"
"html-button-response-mod","251","862815","0.0-251.0","76644","","","","","","triplet","1940.2999999523163","","","","2","stimuli/fish_lowercase.png","stimuli/stim003_animate_fish_3.png","stimuli/tools_lowercase.png","243"
"html-button-response-mod","252","866532","0.0-252.0","76644","","","","","","triplet","3213.1999999284744","","","","0","stimuli/fish_uppercase.png","stimuli/stim005_animate_bird_1.png","stimuli/stim009_animate_face_1.png","244"
"html-button-response-mod","253","868748","0.0-253.0","76644","","","","","","triplet","1709.2000000476837","","","","1","stimuli/stim021_inanimate_tools_1.png","stimuli/stim001_animate_fish_1.png","stimuli/tools_uppercase.png","245"
"html-button-response-mod","254","872765","0.0-254.0","76644","","","","","","triplet","3513.3000000715256","","","","2","stimuli/tools_lowercase.png","stimuli/boats_lowercase.png","stimuli/stim019_inanimate_tree_3.png","246"
"html-button-response-mod","255","876765","0.0-255.0","76644","","","","","","triplet","3495.399999976158","","","","1","stimuli/stim004_animate_fish_4.png","stimuli/face_uppercase.png","stimuli/stim021_inanimate_tools_1.png","247"
"html-button-response-mod","256","879881","0.0-256.0","76644","","","","","","triplet","2607.2000000476837","","","","2","stimuli/stim015_inanimate_boats_3.png","stimuli/stim020_inanimate_tree_4.png","stimuli/fish_lowercase.png","248"
"html-button-response-mod","257","882365","0.0-257.0","76644","","","","","","triplet","1975.7000000476837","","","","2","stimuli/stim023_inanimate_tools_3.png","stimuli/stim021_inanimate_tools_1.png","stimuli/stim022_inanimate_tools_2.png","249"
"html-button-response","258","885649","0.0-258.0","76644","","","","","","break","2777.8000000715256","<p>BREAK</p><p>Take a break for as long as you need</p><p>Click the button to continue</p>","0","","","","","",""
"html-button-response-mod","259","888931","0.0-259.0","76644","","","","","","triplet","3279.600000023842","","","","1","stimuli/stim014_inanimate_boats_2.png","stimuli/bird_lowercase.png","stimuli/stim009_animate_face_1.png","250"
"html-button-response-mod","260","890765","0.0-260.0","76644","","","","","","triplet","1325.6000000238419","","","","2","stimuli/stim011_animate_face_3.png","stimuli/stim016_inanimate_boats_4.png","stimuli/fish_uppercase.png","251"
"html-button-response-mod","261","893048","0.0-261.0","76644","","","","","","triplet","1773.7000000476837","","","","1","stimuli/stim011_animate_face_3.png","stimuli/tools_uppercase.png","stimuli/stim015_inanimate_boats_3.png","252"
"html-button-response-mod","262","895015","0.0-262.0","76644","","","","","","triplet","1457","","","","1","stimuli/stim012_animate_face_4.png","stimuli/tree_uppercase.png","stimuli/stim016_inanimate_boats_4.png","253"
"html-button-response-mod","263","896765","0.0-263.0","76644","","","","","","triplet","1245.7000000476837","","","","2","stimuli/fish_uppercase.png","stimuli/stim002_animate_fish_2.png","stimuli/stim024_inanimate_tools_4.png","254"
"html-button-response-mod","264","898431","0.0-264.0","76644","","","","","","triplet","1157","","","","0","stimuli/stim016_inanimate_boats_4.png","stimuli/stim021_inanimate_tools_1.png","stimuli/stim024_inanimate_tools_4.png","255"
"html-button-response-mod","265","901131","0.0-265.0","76644","","","","","","triplet","2191.2999999523163","","","","2","stimuli/stim013_inanimate_boats_1.png","stimuli/stim023_inanimate_tools_3.png","stimuli/bird_uppercase.png","256"
"html-button-response-mod","266","902965","0.0-266.0","76644","","","","","","triplet","1325.7999999523163","","","","1","stimuli/stim022_inanimate_tools_2.png","stimuli/fish_lowercase.png","stimuli/stim020_inanimate_tree_4.png","257"
"html-button-response-mod","267","904632","0.0-267.0","76644","","","","","","triplet","1162.6999999284744","","","","1","stimuli/face_uppercase.png","stimuli/stim019_inanimate_tree_3.png","stimuli/stim012_animate_face_4.png","258"
"html-button-response-mod","268","906298","0.0-268.0","76644","","","","","","triplet","1159.7000000476837","","","","0","stimuli/stim006_animate_bird_2.png","stimuli/stim002_animate_fish_2.png","stimuli/stim001_animate_fish_1.png","259"
"html-button-response-mod","269","908497","0.0-269.0","76644","","","","","","triplet","1695.1000000238419","","","","0","stimuli/tree_lowercase.png","stimuli/stim012_animate_face_4.png","stimuli/face_uppercase.png","260"
"html-button-response-mod","270","913331","0.0-270.0","76644","","","","","","triplet","4329.699999928474","","","","1","stimuli/stim023_inanimate_tools_3.png","stimuli/face_lowercase.png","stimuli/stim002_animate_fish_2.png","261"
"html-button-response-mod","271","914914","0.0-271.0","76644","","","","","","triplet","1074.8000000715256","","","","0","stimuli/stim002_animate_fish_2.png","stimuli/boats_uppercase.png","stimuli/bird_uppercase.png","262"
"html-button-response-mod","272","917947","0.0-272.0","76644","","","","","","triplet","2526.7000000476837","","","","2","stimuli/stim020_inanimate_tree_4.png","stimuli/stim018_inanimate_tree_2.png","stimuli/stim017_inanimate_tree_1.png","263"
"html-button-response-mod","273","921130","0.0-273.0","76644","","","","","","triplet","2679.100000023842","","","","2","stimuli/tools_lowercase.png","stimuli/fish_lowercase.png","stimuli/stim015_inanimate_boats_3.png","264"
"html-button-response-mod","274","923530","0.0-274.0","76644","","","","","","triplet","1893.1000000238419","","","","2","stimuli/stim015_inanimate_boats_3.png","stimuli/stim006_animate_bird_2.png","stimuli/tree_lowercase.png","265"
"html-button-response-mod","275","925331","0.0-275.0","76644","","","","","","triplet","1292.6000000238419","","","","2","stimuli/stim001_animate_fish_1.png","stimuli/stim018_inanimate_tree_2.png","stimuli/tools_lowercase.png","266"
"html-button-response-mod","276","927464","0.0-276.0","76644","","","","","","triplet","1626.5","","","","0","stimuli/stim005_animate_bird_1.png","stimuli/stim022_inanimate_tools_2.png","stimuli/stim023_inanimate_tools_3.png","267"
"html-button-response-mod","277","929531","0.0-277.0","76644","","","","","","triplet","1563.2000000476837","","","","2","stimuli/face_lowercase.png","stimuli/stim009_animate_face_1.png","stimuli/stim014_inanimate_boats_2.png","268"
"html-button-response-mod","278","932831","0.0-278.0","76644","","","","","","triplet","2794.2999999523163","","","","2","stimuli/stim005_animate_bird_1.png","stimuli/stim023_inanimate_tools_3.png","stimuli/boats_lowercase.png","269"
"html-button-response-mod","279","934765","0.0-279.0","76644","","","","","","triplet","1428.3000000715256","","","","1","stimuli/stim011_animate_face_3.png","stimuli/bird_uppercase.png","stimuli/stim016_inanimate_boats_4.png","270"
"html-button-response-mod","280","936581","0.0-280.0","76644","","","","","","triplet","1311.1000000238419","","","","2","stimuli/fish_lowercase.png","stimuli/fish_uppercase.png","stimuli/boats_lowercase.png","271"
"html-button-response-mod","281","939898","0.0-281.0","76644","","","","","","triplet","2808.899999976158","","","","1","stimuli/stim023_inanimate_tools_3.png","stimuli/stim024_inanimate_tools_4.png","stimuli/stim007_animate_bird_3.png","272"
"html-button-response-mod","282","943347","0.0-282.0","76644","","","","","","triplet","2940.899999976158","","","","1","stimuli/stim001_animate_fish_1.png","stimuli/tools_lowercase.png","stimuli/stim020_inanimate_tree_4.png","273"
"html-button-response-mod","283","944814","0.0-283.0","76644","","","","","","triplet","959.6999999284744","","","","2","stimuli/stim010_animate_face_2.png","stimuli/stim009_animate_face_1.png","stimuli/stim024_inanimate_tools_4.png","274"
"html-button-response-mod","284","950481","0.0-284.0","76644","","","","","","triplet","5158.100000023842","","","","0","stimuli/stim013_inanimate_boats_1.png","stimuli/stim004_animate_fish_4.png","stimuli/stim009_animate_face_1.png","275"
"html-button-response-mod","285","953147","0.0-285.0","76644","","","","","","triplet","2161","","","","0","stimuli/stim010_animate_face_2.png","stimuli/stim022_inanimate_tools_2.png","stimuli/stim013_inanimate_boats_1.png","276"
"html-button-response-mod","286","956221","0.0-286.0","76644","","","","","","triplet","2569.7000000476837","","","","0","stimuli/stim014_inanimate_boats_2.png","stimuli/stim022_inanimate_tools_2.png","stimuli/stim024_inanimate_tools_4.png","277"
"html-button-response-mod","287","958014","0.0-287.0","76644","","","","","","triplet","1287.2999999523163","","","","0","stimuli/boats_uppercase.png","stimuli/stim017_inanimate_tree_1.png","stimuli/stim020_inanimate_tree_4.png","278"
"html-button-response-mod","288","961164","0.0-288.0","76644","","","","","","triplet","2640.899999976158","","","","2","stimuli/stim023_inanimate_tools_3.png","stimuli/stim020_inanimate_tree_4.png","stimuli/face_uppercase.png","279"
"html-button-response-mod","289","962681","0.0-289.0","76644","","","","","","triplet","1008.5","","","","2","stimuli/stim019_inanimate_tree_3.png","stimuli/stim006_animate_bird_2.png","stimuli/tools_lowercase.png","280"
"html-button-response-mod","290","964347","0.0-290.0","76644","","","","","","triplet","1160.8999999761581","","","","0","stimuli/tree_lowercase.png","stimuli/stim001_animate_fish_1.png","stimuli/stim009_animate_face_1.png","281"
"html-button-response-mod","291","966598","0.0-291.0","76644","","","","","","triplet","1743.1000000238419","","","","0","stimuli/boats_lowercase.png","stimuli/face_uppercase.png","stimuli/stim011_animate_face_3.png","282"
"html-button-response-mod","292","970964","0.0-292.0","76644","","","","","","triplet","3858.2999999523163","","","","1","stimuli/fish_uppercase.png","stimuli/stim021_inanimate_tools_1.png","stimuli/bird_lowercase.png","283"
"html-button-response-mod","293","972814","0.0-293.0","76644","","","","","","triplet","1345.3999999761581","","","","0","stimuli/stim017_inanimate_tree_1.png","stimuli/stim011_animate_face_3.png","stimuli/face_lowercase.png","284"
"html-button-response-mod","294","974382","0.0-294.0","76644","","","","","","triplet","1064.4000000953674","","","","2","stimuli/stim009_animate_face_1.png","stimuli/face_uppercase.png","stimuli/stim019_inanimate_tree_3.png","285"
"html-button-response-mod","295","976881","0.0-295.0","76644","","","","","","triplet","1994.1000000238419","","","","1","stimuli/fish_uppercase.png","stimuli/stim006_animate_bird_2.png","stimuli/tools_uppercase.png","286"
"html-button-response-mod","296","979830","0.0-296.0","76644","","","","","","triplet","2444.399999976158","","","","1","stimuli/face_uppercase.png","stimuli/stim001_animate_fish_1.png","stimuli/bird_uppercase.png","287"
"html-button-response-mod","297","981680","0.0-297.0","76644","","","","","","triplet","1344","","","","0","stimuli/stim001_animate_fish_1.png","stimuli/stim011_animate_face_3.png","stimuli/face_uppercase.png","288"
"html-button-response-mod","298","984030","0.0-298.0","76644","","","","","","triplet","1845.8000000715256","","","","0","stimuli/stim012_animate_face_4.png","stimuli/bird_uppercase.png","stimuli/tree_lowercase.png","289"
"html-button-response-mod","299","986798","0.0-299.0","76644","","","","","","triplet","2262","","","","1","stimuli/stim022_inanimate_tools_2.png","stimuli/fish_lowercase.png","stimuli/stim016_inanimate_boats_4.png","290"
"html-button-response-mod","300","988814","0.0-300.0","76644","","","","","","triplet","1507.8000000715256","","","","1","stimuli/stim002_animate_fish_2.png","stimuli/tools_lowercase.png","stimuli/stim018_inanimate_tree_2.png","291"
"html-button-response-mod","301","991381","0.0-301.0","76644","","","","","","triplet","2062.100000023842","","","","2","stimuli/fish_uppercase.png","stimuli/stim003_animate_fish_3.png","stimuli/stim007_animate_bird_3.png","292"
"html-button-response-mod","302","994581","0.0-302.0","76644","","","","","","triplet","2695","","","","1","stimuli/stim015_inanimate_boats_3.png","stimuli/stim011_animate_face_3.png","stimuli/stim021_inanimate_tools_1.png","293"
"html-button-response-mod","303","996947","0.0-303.0","76644","","","","","","triplet","1860.8999999761581","","","","0","stimuli/tools_uppercase.png","stimuli/stim009_animate_face_1.png","stimuli/stim013_inanimate_boats_1.png","294"
"html-button-response-mod","304","999031","0.0-304.0","76644","","","","","","triplet","1578.7999999523163","","","","0","stimuli/stim013_inanimate_boats_1.png","stimuli/tools_lowercase.png","stimuli/tree_uppercase.png","295"
"html-button-response-mod","305","1001031","0.0-305.0","76644","","","","","","triplet","1494.3999999761581","","","","2","stimuli/face_lowercase.png","stimuli/stim012_animate_face_4.png","stimuli/stim021_inanimate_tools_1.png","296"
"html-button-response-mod","306","1005231","0.0-306.0","76644","","","","","","triplet","3694.3000000715256","","","","1","stimuli/stim019_inanimate_tree_3.png","stimuli/boats_uppercase.png","stimuli/stim005_animate_bird_1.png","297"
"html-button-response-mod","307","1006698","0.0-307.0","76644","","","","","","triplet","961.5","","","","1","stimuli/stim002_animate_fish_2.png","stimuli/stim020_inanimate_tree_4.png","stimuli/stim003_animate_fish_3.png","298"
"html-button-response-mod","308","1009747","0.0-308.0","76644","","","","","","triplet","2543.2999999523163","","","","0","stimuli/fish_lowercase.png","stimuli/stim012_animate_face_4.png","stimuli/stim018_inanimate_tree_2.png","299"
"html-button-response","309","1012198","0.0-309.0","76644","","","","","","break","1941.9000000953674","<p>BREAK</p><p>Take a break for as long as you need</p><p>Click the button to continue</p>","0","","","","","",""
"html-button-response-mod","310","1013631","0.0-310.0","76644","","","","","","triplet","1430.5","","","","1","stimuli/boats_uppercase.png","stimuli/stim021_inanimate_tools_1.png","stimuli/face_lowercase.png","300"
"html-button-response-mod","311","1015281","0.0-311.0","76644","","","","","","triplet","1144.8999999761581","","","","2","stimuli/stim006_animate_bird_2.png","stimuli/stim005_animate_bird_1.png","stimuli/stim019_inanimate_tree_3.png","301"
"html-button-response-mod","312","1018398","0.0-312.0","76644","","","","","","triplet","2612.5","","","","1","stimuli/stim013_inanimate_boats_1.png","stimuli/stim003_animate_fish_3.png","stimuli/stim023_inanimate_tools_3.png","302"
"html-button-response-mod","313","1020764","0.0-313.0","76644","","","","","","triplet","1861.5","","","","1","stimuli/stim021_inanimate_tools_1.png","stimuli/fish_uppercase.png","stimuli/stim024_inanimate_tools_4.png","303"
"html-button-response-mod","314","1023498","0.0-314.0","76644","","","","","","triplet","2228.5","","","","2","stimuli/stim021_inanimate_tools_1.png","stimuli/stim014_inanimate_boats_2.png","stimuli/stim009_animate_face_1.png","304"
"html-button-response-mod","315","1025698","0.0-315.0","76644","","","","","","triplet","1692.2000000476837","","","","0","stimuli/bird_uppercase.png","stimuli/stim024_inanimate_tools_4.png","stimuli/stim011_animate_face_3.png","305"
"html-button-response-mod","316","1028331","0.0-316.0","76644","","","","","","triplet","2126.600000023842","","","","2","stimuli/bird_lowercase.png","stimuli/stim005_animate_bird_1.png","stimuli/face_lowercase.png","306"
"html-button-response-mod","317","1031647","0.0-317.0","76644","","","","","","triplet","2811.899999976158","","","","2","stimuli/face_lowercase.png","stimuli/bird_uppercase.png","stimuli/stim001_animate_fish_1.png","307"
"html-button-response-mod","318","1033464","0.0-318.0","76644","","","","","","triplet","1311.9000000953674","","","","1","stimuli/tree_uppercase.png","stimuli/stim021_inanimate_tools_1.png","stimuli/face_uppercase.png","308"
"html-button-response-mod","319","1035648","0.0-319.0","76644","","","","","","triplet","1676.5","","","","1","stimuli/stim005_animate_bird_1.png","stimuli/face_lowercase.png","stimuli/bird_uppercase.png","309"
"html-button-response-mod","320","1038214","0.0-320.0","76644","","","","","","triplet","2058.2000000476837","","","","1","stimuli/tools_lowercase.png","stimuli/stim020_inanimate_tree_4.png","stimuli/fish_uppercase.png","310"
"html-button-response-mod","321","1040247","0.0-321.0","76644","","","","","","triplet","1529","","","","0","stimuli/tree_lowercase.png","stimuli/stim008_animate_bird_4.png","stimuli/stim004_animate_fish_4.png","311"
"html-button-response-mod","322","1043055","0.0-322.0","76644","","","","","","triplet","2299.600000023842","","","","0","stimuli/stim003_animate_fish_3.png","stimuli/tools_lowercase.png","stimuli/tools_uppercase.png","312"
"html-button-response-mod","323","1045130","0.0-323.0","76644","","","","","","triplet","1568.7000000476837","","","","0","stimuli/stim016_inanimate_boats_4.png","stimuli/stim012_animate_face_4.png","stimuli/stim010_animate_face_2.png","313"
"html-button-response-mod","324","1046764","0.0-324.0","76644","","","","","","triplet","1129.2999999523163","","","","2","stimuli/stim021_inanimate_tools_1.png","stimuli/stim012_animate_face_4.png","stimuli/tree_uppercase.png","314"
"html-button-response-mod","325","1048897","0.0-325.0","76644","","","","","","triplet","1627.2999999523163","","","","2","stimuli/stim013_inanimate_boats_1.png","stimuli/stim010_animate_face_2.png","stimuli/tree_lowercase.png","315"
"html-button-response-mod","326","1052180","0.0-326.0","76644","","","","","","triplet","2778.2999999523163","","","","0","stimuli/fish_uppercase.png","stimuli/stim019_inanimate_tree_3.png","stimuli/tree_lowercase.png","316"
"html-button-response-mod","327","1054481","0.0-327.0","76644","","","","","","triplet","1796.1000000238419","","","","1","stimuli/bird_uppercase.png","stimuli/stim009_animate_face_1.png","stimuli/boats_lowercase.png","317"
"html-button-response-mod","328","1056614","0.0-328.0","76644","","","","","","triplet","1628.5","","","","1","stimuli/fish_uppercase.png","stimuli/boats_lowercase.png","stimuli/stim004_animate_fish_4.png","318"
"html-button-response-mod","329","1059948","0.0-329.0","76644","","","","","","triplet","2829.7000000476837","","","","2","stimuli/bird_uppercase.png","stimuli/tools_lowercase.png","stimuli/stim002_animate_fish_2.png","319"
"html-button-response-mod","330","1062097","0.0-330.0","76644","","","","","","triplet","1643.3000000715256","","","","1","stimuli/boats_uppercase.png","stimuli/fish_uppercase.png","stimuli/boats_lowercase.png","320"
"html-button-response-mod","331","1066531","0.0-331.0","76644","","","","","","triplet","3929.5","","","","0","stimuli/boats_uppercase.png","stimuli/tree_lowercase.png","stimuli/bird_uppercase.png","321"
"html-button-response-mod","332","1068614","0.0-332.0","76644","","","","","","triplet","1577.1000000238419","","","","1","stimuli/stim004_animate_fish_4.png","stimuli/stim010_animate_face_2.png","stimuli/fish_lowercase.png","322"
"html-button-response-mod","333","1070664","0.0-333.0","76644","","","","","","triplet","1542.4000000953674","","","","1","stimuli/stim012_animate_face_4.png","stimuli/fish_uppercase.png","stimuli/stim006_animate_bird_2.png","323"
"html-button-response-mod","334","1072830","0.0-334.0","76644","","","","","","triplet","1661.6000000238419","","","","2","stimuli/stim005_animate_bird_1.png","stimuli/stim016_inanimate_boats_4.png","stimuli/fish_uppercase.png","324"
"html-button-response-mod","335","1075941","0.0-335.0","76644","","","","","","triplet","2605.7999999523163","","","","1","stimuli/bird_lowercase.png","stimuli/stim010_animate_face_2.png","stimuli/stim005_animate_bird_1.png","325"
"html-button-response-mod","336","1078580","0.0-336.0","76644","","","","","","triplet","2135.5999999046326","","","","2","stimuli/stim003_animate_fish_3.png","stimuli/stim016_inanimate_boats_4.png","stimuli/stim012_animate_face_4.png","326"
"html-button-response-mod","337","1081497","0.0-337.0","76644","","","","","","triplet","2412.2999999523163","","","","2","stimuli/stim002_animate_fish_2.png","stimuli/stim008_animate_bird_4.png","stimuli/tools_lowercase.png","327"
"html-button-response-mod","338","1084381","0.0-338.0","76644","","","","","","triplet","2374.600000023842","","","","0","stimuli/stim022_inanimate_tools_2.png","stimuli/stim010_animate_face_2.png","stimuli/bird_lowercase.png","328"
"html-button-response-mod","339","1087115","0.0-339.0","76644","","","","","","triplet","2225.2000000476837","","","","1","stimuli/stim007_animate_bird_3.png","stimuli/stim008_animate_bird_4.png","stimuli/stim006_animate_bird_2.png","329"
"html-button-response-mod","340","1089548","0.0-340.0","76644","","","","","","triplet","1926.2000000476837","","","","2","stimuli/boats_lowercase.png","stimuli/stim015_inanimate_boats_3.png","stimuli/stim012_animate_face_4.png","330"
"html-button-response-mod","341","1091081","0.0-341.0","76644","","","","","","triplet","1027.3000000715256","","","","1","stimuli/stim020_inanimate_tree_4.png","stimuli/stim011_animate_face_3.png","stimuli/stim017_inanimate_tree_1.png","331"
"html-button-response-mod","342","1096531","0.0-342.0","76644","","","","","","triplet","4945.700000047684","","","","2","stimuli/stim024_inanimate_tools_4.png","stimuli/stim017_inanimate_tree_1.png","stimuli/stim010_animate_face_2.png","332"
"html-button-response-mod","343","1100714","0.0-343.0","76644","","","","","","triplet","3676.899999976158","","","","1","stimuli/stim008_animate_bird_4.png","stimuli/stim024_inanimate_tools_4.png","stimuli/stim018_inanimate_tree_2.png","333"
"html-button-response-mod","344","1102531","0.0-344.0","76644","","","","","","triplet","1308.8999999761581","","","","0","stimuli/tree_lowercase.png","stimuli/stim011_animate_face_3.png","stimuli/stim005_animate_bird_1.png","334"
"html-button-response-mod","345","1104764","0.0-345.0","76644","","","","","","triplet","1723.7000000476837","","","","2","stimuli/bird_uppercase.png","stimuli/tools_uppercase.png","stimuli/stim010_animate_face_2.png","335"
"html-button-response-mod","346","1106448","0.0-346.0","76644","","","","","","triplet","1179.2999999523163","","","","0","stimuli/tree_lowercase.png","stimuli/stim004_animate_fish_4.png","stimuli/stim011_animate_face_3.png","336"
"html-button-response-mod","347","1110248","0.0-347.0","76644","","","","","","triplet","3289.7999999523163","","","","1","stimuli/stim008_animate_bird_4.png","stimuli/stim010_animate_face_2.png","stimuli/bird_uppercase.png","337"
"html-button-response-mod","348","1114897","0.0-348.0","76644","","","","","","triplet","4141.5","","","","1","stimuli/bird_lowercase.png","stimuli/stim021_inanimate_tools_1.png","stimuli/stim017_inanimate_tree_1.png","338"
"html-button-response-mod","349","1119948","0.0-349.0","76644","","","","","","triplet","4546","","","","1","stimuli/boats_uppercase.png","stimuli/stim001_animate_fish_1.png","stimuli/tools_lowercase.png","339"
"html-button-response-mod","350","1121880","0.0-350.0","76644","","","","","","triplet","1425.2000000476837","","","","2","stimuli/tools_uppercase.png","stimuli/stim023_inanimate_tools_3.png","stimuli/stim024_inanimate_tools_4.png","340"
"html-button-response-mod","351","1123347","0.0-351.0","76644","","","","","","triplet","960.7000000476837","","","","1","stimuli/stim020_inanimate_tree_4.png","stimuli/stim007_animate_bird_3.png","stimuli/stim017_inanimate_tree_1.png","341"
"html-button-response-mod","352","1125864","0.0-352.0","76644","","","","","","triplet","2008.7000000476837","","","","1","stimuli/stim008_animate_bird_4.png","stimuli/stim018_inanimate_tree_2.png","stimuli/stim002_animate_fish_2.png","342"
"html-button-response-mod","353","1130514","0.0-353.0","76644","","","","","","triplet","4144.300000071526","","","","0","stimuli/stim010_animate_face_2.png","stimuli/stim016_inanimate_boats_4.png","stimuli/stim021_inanimate_tools_1.png","343"
"html-button-response-mod","354","1133165","0.0-354.0","76644","","","","","","triplet","2143.899999976158","","","","2","stimuli/stim001_animate_fish_1.png","stimuli/bird_uppercase.png","stimuli/stim014_inanimate_boats_2.png","344"
"html-button-response-mod","355","1134980","0.0-355.0","76644","","","","","","triplet","1310.7999999523163","","","","1","stimuli/stim024_inanimate_tools_4.png","stimuli/stim002_animate_fish_2.png","stimuli/tools_uppercase.png","345"
"html-button-response-mod","356","1137014","0.0-356.0","76644","","","","","","triplet","1529.5","","","","0","stimuli/stim019_inanimate_tree_3.png","stimuli/boats_uppercase.png","stimuli/boats_lowercase.png","346"
"html-button-response-mod","357","1139047","0.0-357.0","76644","","","","","","triplet","1530","","","","0","stimuli/face_lowercase.png","stimuli/stim018_inanimate_tree_2.png","stimuli/stim004_animate_fish_4.png","347"
"html-button-response-mod","358","1142064","0.0-358.0","76644","","","","","","triplet","2509.2999999523163","","","","0","stimuli/stim007_animate_bird_3.png","stimuli/stim021_inanimate_tools_1.png","stimuli/boats_lowercase.png","348"
"html-button-response-mod","359","1145648","0.0-359.0","76644","","","","","","triplet","3079.5999999046326","","","","0","stimuli/bird_lowercase.png","stimuli/stim018_inanimate_tree_2.png","stimuli/stim015_inanimate_boats_3.png","349"
"html-button-response","360","1147782","0.0-360.0","76644","","","","","","break","1627","<p>BREAK</p><p>Take a break for as long as you need</p><p>Click the button to continue</p>","0","","","","","",""
"html-button-response-mod","361","1149131","0.0-361.0","76644","","","","","","triplet","1346.6000000238419","","","","1","stimuli/stim019_inanimate_tree_3.png","stimuli/fish_uppercase.png","stimuli/tree_uppercase.png","350"
"html-button-response-mod","362","1151531","0.0-362.0","76644","","","","","","triplet","1891.8999999761581","","","","1","stimuli/stim020_inanimate_tree_4.png","stimuli/bird_lowercase.png","stimuli/stim013_inanimate_boats_1.png","351"
"html-button-response-mod","363","1152933","0.0-363.0","76644","","","","","","triplet","893.8999999761581","","","","2","stimuli/stim018_inanimate_tree_2.png","stimuli/stim014_inanimate_boats_2.png","stimuli/face_uppercase.png","352"
"html-button-response-mod","364","1154414","0.0-364.0","76644","","","","","","triplet","977.6000000238419","","","","0","stimuli/stim014_inanimate_boats_2.png","stimuli/stim024_inanimate_tools_4.png","stimuli/stim023_inanimate_tools_3.png","353"
"html-button-response-mod","365","1156281","0.0-365.0","76644","","","","","","triplet","1359.3999999761581","","","","0","stimuli/stim009_animate_face_1.png","stimuli/fish_lowercase.png","stimuli/stim001_animate_fish_1.png","354"
"html-button-response-mod","366","1160829","0.0-366.0","76644","","","","","","triplet","4043.2999999523163","","","","1","stimuli/stim019_inanimate_tree_3.png","stimuli/stim014_inanimate_boats_2.png","stimuli/stim007_animate_bird_3.png","355"
"html-button-response-mod","367","1162748","0.0-367.0","76644","","","","","","triplet","1414.3999999761581","","","","2","stimuli/stim018_inanimate_tree_2.png","stimuli/stim012_animate_face_4.png","stimuli/fish_uppercase.png","356"
"html-button-response-mod","368","1164765","0.0-368.0","76644","","","","","","triplet","1512.1000000238419","","","","2","stimuli/tree_lowercase.png","stimuli/bird_uppercase.png","stimuli/stim009_animate_face_1.png","357"
"html-button-response-mod","369","1169998","0.0-369.0","76644","","","","","","triplet","4727.899999976158","","","","1","stimuli/face_lowercase.png","stimuli/tree_lowercase.png","stimuli/bird_lowercase.png","358"
"html-button-response-mod","370","1173816","0.0-370.0","76644","","","","","","triplet","3314","","","","1","stimuli/boats_uppercase.png","stimuli/stim018_inanimate_tree_2.png","stimuli/tree_uppercase.png","359"
"html-button-response-mod","371","1175298","0.0-371.0","76644","","","","","","triplet","976","","","","2","stimuli/stim022_inanimate_tools_2.png","stimuli/stim014_inanimate_boats_2.png","stimuli/boats_uppercase.png","360"
"html-button-response-mod","372","1179997","0.0-372.0","76644","","","","","","triplet","4191.699999928474","","","","2","stimuli/face_lowercase.png","stimuli/fish_uppercase.png","stimuli/stim022_inanimate_tools_2.png","361"
"html-button-response-mod","373","1181731","0.0-373.0","76644","","","","","","triplet","1229.2000000476837","","","","2","stimuli/stim022_inanimate_tools_2.png","stimuli/stim023_inanimate_tools_3.png","stimuli/face_lowercase.png","362"
"html-button-response-mod","374","1183614","0.0-374.0","76644","","","","","","triplet","1374","","","","1","stimuli/stim009_animate_face_1.png","stimuli/stim015_inanimate_boats_3.png","stimuli/face_lowercase.png","363"
"html-button-response-mod","375","1187848","0.0-375.0","76644","","","","","","triplet","3726.600000023842","","","","1","stimuli/stim010_animate_face_2.png","stimuli/stim017_inanimate_tree_1.png","stimuli/stim007_animate_bird_3.png","364"
"html-button-response-mod","376","1190048","0.0-376.0","76644","","","","","","triplet","1692.1000000238419","","","","0","stimuli/stim023_inanimate_tools_3.png","stimuli/bird_uppercase.png","stimuli/fish_uppercase.png","365"
"html-button-response-mod","377","1194381","0.0-377.0","76644","","","","","","triplet","3823.600000023842","","","","2","stimuli/tools_lowercase.png","stimuli/fish_lowercase.png","stimuli/stim011_animate_face_3.png","366"
"html-button-response-mod","378","1195931","0.0-378.0","76644","","","","","","triplet","1046.3999999761581","","","","2","stimuli/stim010_animate_face_2.png","stimuli/stim009_animate_face_1.png","stimuli/stim016_inanimate_boats_4.png","367"
"html-button-response-mod","379","1199084","0.0-379.0","76644","","","","","","triplet","2646.1999999284744","","","","0","stimuli/stim007_animate_bird_3.png","stimuli/stim024_inanimate_tools_4.png","stimuli/stim013_inanimate_boats_1.png","368"
"html-button-response-mod","380","1200614","0.0-380.0","76644","","","","","","triplet","1024.2000000476837","","","","1","stimuli/tools_uppercase.png","stimuli/stim002_animate_fish_2.png","stimuli/fish_uppercase.png","369"
"html-button-response-mod","381","1202464","0.0-381.0","76644","","","","","","triplet","1343.9000000953674","","","","1","stimuli/stim012_animate_face_4.png","stimuli/stim022_inanimate_tools_2.png","stimuli/stim004_animate_fish_4.png","370"
"html-button-response-mod","382","1204747","0.0-382.0","76644","","","","","","triplet","1775.1999999284744","","","","2","stimuli/bird_lowercase.png","stimuli/boats_uppercase.png","stimuli/stim010_animate_face_2.png","371"
"html-button-response-mod","383","1206531","0.0-383.0","76644","","","","","","triplet","1274.8000000715256","","","","0","stimuli/bird_lowercase.png","stimuli/stim021_inanimate_tools_1.png","stimuli/stim019_inanimate_tree_3.png","372"
"html-button-response-mod","384","1208031","0.0-384.0","76644","","","","","","triplet","996.6000000238419","","","","2","stimuli/stim017_inanimate_tree_1.png","stimuli/stim019_inanimate_tree_3.png","stimuli/tools_uppercase.png","373"
"html-button-response-mod","385","1212547","0.0-385.0","76644","","","","","","triplet","4007.7000000476837","","","","1","stimuli/stim003_animate_fish_3.png","stimuli/stim016_inanimate_boats_4.png","stimuli/stim010_animate_face_2.png","374"
"html-button-response-mod","386","1214763","0.0-386.0","76644","","","","","","triplet","1707.6000000238419","","","","1","stimuli/stim010_animate_face_2.png","stimuli/stim024_inanimate_tools_4.png","stimuli/stim019_inanimate_tree_3.png","375"
"html-button-response-mod","387","1217565","0.0-387.0","76644","","","","","","triplet","2292.899999976158","","","","2","stimuli/stim013_inanimate_boats_1.png","stimuli/stim014_inanimate_boats_2.png","stimuli/stim002_animate_fish_2.png","376"
"html-button-response-mod","388","1219198","0.0-388.0","76644","","","","","","triplet","1128","","","","2","stimuli/fish_uppercase.png","stimuli/bird_uppercase.png","stimuli/stim012_animate_face_4.png","377"
"html-button-response-mod","389","1223347","0.0-389.0","76644","","","","","","triplet","3640.7000000476837","","","","0","stimuli/stim019_inanimate_tree_3.png","stimuli/stim001_animate_fish_1.png","stimuli/stim011_animate_face_3.png","378"
"html-button-response-mod","390","1227647","0.0-390.0","76644","","","","","","triplet","3791.6999999284744","","","","0","stimuli/stim014_inanimate_boats_2.png","stimuli/bird_uppercase.png","stimuli/fish_lowercase.png","379"
"html-button-response-mod","391","1231414","0.0-391.0","76644","","","","","","triplet","3262.600000023842","","","","1","stimuli/fish_uppercase.png","stimuli/stim017_inanimate_tree_1.png","stimuli/face_uppercase.png","380"
"html-button-response-mod","392","1233063","0.0-392.0","76644","","","","","","triplet","1143.5","","","","1","stimuli/stim013_inanimate_boats_1.png","stimuli/tree_lowercase.png","stimuli/stim004_animate_fish_4.png","381"
"html-button-response-mod","393","1237182","0.0-393.0","76644","","","","","","triplet","3609.7999999523163","","","","1","stimuli/stim004_animate_fish_4.png","stimuli/stim023_inanimate_tools_3.png","stimuli/stim018_inanimate_tree_2.png","382"
"html-button-response-mod","394","1242214","0.0-394.0","76644","","","","","","triplet","4524.700000047684","","","","2","stimuli/stim008_animate_bird_4.png","stimuli/stim017_inanimate_tree_1.png","stimuli/stim014_inanimate_boats_2.png","383"
"html-button-response-mod","395","1243798","0.0-395.0","76644","","","","","","triplet","1077","","","","2","stimuli/stim019_inanimate_tree_3.png","stimuli/stim021_inanimate_tools_1.png","stimuli/fish_lowercase.png","384"
"html-button-response-mod","396","1245715","0.0-396.0","76644","","","","","","triplet","1407.6999999284744","","","","2","stimuli/stim004_animate_fish_4.png","stimuli/stim005_animate_bird_1.png","stimuli/face_lowercase.png","385"
"html-button-response-mod","397","1249098","0.0-397.0","76644","","","","","","triplet","2875.399999976158","","","","0","stimuli/bird_lowercase.png","stimuli/stim023_inanimate_tools_3.png","stimuli/stim004_animate_fish_4.png","386"
"html-button-response-mod","398","1250581","0.0-398.0","76644","","","","","","triplet","978","","","","1","stimuli/stim010_animate_face_2.png","stimuli/stim004_animate_fish_4.png","stimuli/stim011_animate_face_3.png","387"
"html-button-response-mod","399","1252564","0.0-399.0","76644","","","","","","triplet","1474.6000000238419","","","","1","stimuli/bird_lowercase.png","stimuli/boats_lowercase.png","stimuli/stim006_animate_bird_2.png","388"
"html-button-response-mod","400","1254997","0.0-400.0","76644","","","","","","triplet","1929.1000000238419","","","","1","stimuli/tree_lowercase.png","stimuli/stim004_animate_fish_4.png","stimuli/face_uppercase.png","389"
"html-button-response-mod","401","1258866","0.0-401.0","76644","","","","","","triplet","3360.2000000476837","","","","1","stimuli/stim024_inanimate_tools_4.png","stimuli/stim005_animate_bird_1.png","stimuli/boats_lowercase.png","390"
"html-button-response-mod","402","1261531","0.0-402.0","76644","","","","","","triplet","2155.7000000476837","","","","0","stimuli/stim009_animate_face_1.png","stimuli/tools_uppercase.png","stimuli/stim021_inanimate_tools_1.png","391"
"html-button-response-mod","403","1263765","0.0-403.0","76644","","","","","","triplet","1729.2999999523163","","","","2","stimuli/stim004_animate_fish_4.png","stimuli/stim017_inanimate_tree_1.png","stimuli/tools_lowercase.png","392"
"html-button-response-mod","404","1265681","0.0-404.0","76644","","","","","","triplet","1408.3999999761581","","","","0","stimuli/stim008_animate_bird_4.png","stimuli/stim003_animate_fish_3.png","stimuli/stim002_animate_fish_2.png","393"
"html-button-response-mod","405","1268931","0.0-405.0","76644","","","","","","triplet","2742.899999976158","","","","1","stimuli/stim012_animate_face_4.png","stimuli/stim006_animate_bird_2.png","stimuli/stim009_animate_face_1.png","394"
"html-button-response-mod","406","1270864","0.0-406.0","76644","","","","","","triplet","1426.5999999046326","","","","0","stimuli/tree_lowercase.png","stimuli/stim013_inanimate_boats_1.png","stimuli/stim022_inanimate_tools_2.png","395"
"html-button-response-mod","407","1272580","0.0-407.0","76644","","","","","","triplet","1207","","","","1","stimuli/stim013_inanimate_boats_1.png","stimuli/tools_uppercase.png","stimuli/stim003_animate_fish_3.png","396"
"html-button-response-mod","408","1274497","0.0-408.0","76644","","","","","","triplet","1407.6000000238419","","","","0","stimuli/stim001_animate_fish_1.png","stimuli/stim011_animate_face_3.png","stimuli/face_lowercase.png","397"
"html-button-response-mod","409","1277915","0.0-409.0","76644","","","","","","triplet","2912.399999976158","","","","0","stimuli/stim001_animate_fish_1.png","stimuli/boats_lowercase.png","stimuli/face_uppercase.png","398"
"html-button-response-mod","410","1280764","0.0-410.0","76644","","","","","","triplet","2343.399999976158","","","","2","stimuli/tools_uppercase.png","stimuli/bird_uppercase.png","stimuli/stim002_animate_fish_2.png","399"
"html-button-response","411","1284048","0.0-411.0","76644","","","","","","break","2774.5","<p>BREAK</p><p>Take a break for as long as you need</p><p>Click the button to continue</p>","0","","","","","",""
"survey-text","412","1412767","0.0-412.0","76644","","","","","","data_patterns","128701.80000007153","","{""Q0"":""If 2 are images but one is in words, I will opt out the words one. \nIf it has 2 animals, but 1 non-animal, I will opt out the non-animal one. \nIf 3 are fish, i will based on their physical similarity to opt out the fish that share the least similarity to the other two.""}","","","","","",""
"survey-text","413","1415099","0.0-413.0","76644","","","","","","age_question","2328.5","","{""Age"":""20""}","","","","","",""
"html-button-response","414","1417348","0.0-414.0","76644","","","","","","gender_question","2246.399999976158","How would you like your gender to be recorded?","1","","","","","",""
