"trial_type","trial_index","time_elapsed","internal_node_id","subject","success","timeout","failed_images","failed_audio","failed_video","test_part","rt","stimulus","response","end_time","button_pressed","stim0","stim1","stim2","trialnr"
"pavlovia","0","13","0.0-0.0","73166","","","","","","","","","","","","","","",""
"preload","1","3631","0.0-1.0","73166","true","false","[]","[]","[]","preload","","","","","","","","",""
"html-button-response","2","15195","0.0-2.0","73166","","","","","","","11562.5","<p>Welcome to the experiment. To begin, please read the following and press the button at the bottom of the screen.</p><p></p><p><strong>Project Name: A study on cognitive processes involved in visual perception</p></strong><p></p><p><strong>PARTICIPANT INFORMATION STATEMENT</strong></p><p></p><strong>(1) What is the study about?</strong><br>You are invited to participate in a study that investigates the cognitive processes involved in perceiving and recognizing visual stimuli.If you decide to participate, you will be asked to complete a task in which you will view pictures, letters, numbers, or words presented on a computer screen.<br><strong>(2) Who can participate?</strong><br>Anyone aged 18 years or over with access to a computer (not a phone/tablet)<br><strong>(3) Where is the study located?</strong><br>The study will be conducted in your browser<br><strong>(4) Who is carrying out the study?</strong><br>The study is being conducted by Sophia Shatek from the Computational Cognitive Neuroscience laboratory at the University of Sydney.<br><strong>(5) What does the study involve?</strong><br>In this study, you will be asked to perform tasks where you will see different stimuli appear on the computer screen.You will respond by pressing a key or using a computer mouse.<br><strong>(6) How much time will the study take?</strong><br>The study takes about 30 minutes<br><strong>(7)	Can I withdraw from the study?</strong><br>Being in this study is completely voluntary - you are not under any obligation to consent. You can withdraw at any time without having to give a reason and without penalty.<br><strong>(8) Will anyone else know the results?</strong><br>All aspects of the study, including results, will be strictly confidential and only the researchers will have access to information on participants.The results and data from the study may be submitted for publication or shared with other research labs, but individual participants will not be identifiable.<br><strong>(9) Will the study benefit me?</strong><br>You will be awarded 0.5 credits for your participation.<br><strong>(10) Can I tell other people about the study?</strong><br>Yes, please tell them to contact Dr Thomas Carlson by email at thomas.carlson@sydney.edu.au.<br><strong>(11) What if I require further information about the study or my involvement in it?</strong><br>When you have read this information, the investigator will discuss it with you further and answer any questions you may have.If you would like to know more at any stage, please feel free to contact Dr Thomas Carlson directly by email at thomas.carlson@sydney.edu.au.If you would like to be informed about the outcomes of the study, contact Dr Thomas Carlson directly by email at thomas.carlson@sydney.edu.au.<br><strong>(12) What if I have a complaint or any concerns?</strong><br>Any person with concerns or complaints about the conduct of a research study can contact The Manager,Human Ethics Administration, University of Sydney on +61 2 8627 8176 (Telephone); +61 2 8627 8177 (Facsimile) or ro.humanethics@sydney.edu.au (Email).</p><p></p><strong>By participating in this experiment, you consent to participate in this study and acknowledge that:</strong><br>1. The procedures required for the project and the times involved have been explained to me, and any questions I have about the project have been answered to my satisfaction.<br>2.	I have read the Above Information Statement and have been given the opportunity to discuss the information and my involvement in the project with the researcher/s.<br>3. I understand that allowing my data to be used in research reports is completely voluntary - I am not under any obligation to consent.<br>4. I understand that my involvement is strictly confidential. I understand that any research data gathered from the results of the study may be publishedhowever no information about me will be used in any way that is identifiable.</p><p></p>","0","","","","","",""
"html-button-response","3","25754","0.0-3.0","73166","","","","","","opening_instructions","10556.599999904633","<p>In this experiment, you will see three images appear on the screen.</p><p>You need to click the 'odd one out', or the image </p><p>that is MOST CONCEPTUALLY DIFFERENT to the other two. </p><p>(e.g., the word 'tree' and a picture of a tree are conceptually SIMILAR, </p><p> but the word 'tree' and the word 'boat' are conceptually DIFFERENT even though they look similar) </p><p>Just go with your intuition, don't spend too long thinking about each one.</p>","0","34086.700000047684","","","","",""
"html-button-response-mod","4","27867","0.0-4.0","73166","","","","","","triplet","2110.9000000953674","","","","0","stimuli/stim020_inanimate_tree_4.png","stimuli/stim024_inanimate_tools_4.png","stimuli/stim022_inanimate_tools_2.png","0"
"html-button-response-mod","5","30122","0.0-5.0","73166","","","","","","triplet","1754","","","","0","stimuli/stim009_animate_face_1.png","stimuli/stim016_inanimate_boats_4.png","stimuli/stim005_animate_bird_1.png","1"
"html-button-response-mod","6","34461","0.0-6.0","73166","","","","","","triplet","3836.7999999523163","","","","2","stimuli/stim021_inanimate_tools_1.png","stimuli/stim015_inanimate_boats_3.png","stimuli/bird_lowercase.png","2"
"html-button-response-mod","7","37129","0.0-7.0","73166","","","","","","triplet","2167.0999999046326","","","","2","stimuli/boats_uppercase.png","stimuli/stim016_inanimate_boats_4.png","stimuli/face_uppercase.png","3"
"html-button-response-mod","8","40484","0.0-8.0","73166","","","","","","triplet","2848","","","","2","stimuli/stim003_animate_fish_3.png","stimuli/stim002_animate_fish_2.png","stimuli/bird_lowercase.png","4"
"html-button-response-mod","9","43024","0.0-9.0","73166","","","","","","triplet","2036.1000001430511","","","","2","stimuli/stim017_inanimate_tree_1.png","stimuli/stim013_inanimate_boats_1.png","stimuli/face_uppercase.png","5"
"html-button-response-mod","10","46482","0.0-10.0","73166","","","","","","triplet","2954.7999999523163","","","","1","stimuli/fish_uppercase.png","stimuli/stim014_inanimate_boats_2.png","stimuli/fish_lowercase.png","6"
"html-button-response-mod","11","50944","0.0-11.0","73166","","","","","","triplet","3959.7999999523163","","","","0","stimuli/stim023_inanimate_tools_3.png","stimuli/fish_lowercase.png","stimuli/stim012_animate_face_4.png","7"
"html-button-response-mod","12","52944","0.0-12.0","73166","","","","","","triplet","1495.8000001907349","","","","1","stimuli/stim015_inanimate_boats_3.png","stimuli/stim012_animate_face_4.png","stimuli/stim016_inanimate_boats_4.png","8"
"html-button-response-mod","13","54774","0.0-13.0","73166","","","","","","triplet","1328.5","","","","2","stimuli/stim022_inanimate_tools_2.png","stimuli/stim024_inanimate_tools_4.png","stimuli/face_lowercase.png","9"
"html-button-response-mod","14","58984","0.0-14.0","73166","","","","","","triplet","3705.2999999523163","","","","0","stimuli/stim012_animate_face_4.png","stimuli/bird_uppercase.png","stimuli/stim015_inanimate_boats_3.png","10"
"html-button-response-mod","15","61370","0.0-15.0","73166","","","","","","triplet","1883.7999999523163","","","","1","stimuli/stim022_inanimate_tools_2.png","stimuli/tools_uppercase.png","stimuli/stim023_inanimate_tools_3.png","11"
"html-button-response-mod","16","67159","0.0-16.0","73166","","","","","","triplet","5286.200000047684","","","","1","stimuli/face_uppercase.png","stimuli/bird_lowercase.png","stimuli/stim010_animate_face_2.png","12"
"html-button-response-mod","17","71351","0.0-17.0","73166","","","","","","triplet","3686.0999999046326","","","","0","stimuli/stim002_animate_fish_2.png","stimuli/tools_lowercase.png","stimuli/tree_lowercase.png","13"
"html-button-response-mod","18","73336","0.0-18.0","73166","","","","","","triplet","1482.4000000953674","","","","0","stimuli/stim011_animate_face_3.png","stimuli/stim001_animate_fish_1.png","stimuli/stim019_inanimate_tree_3.png","14"
"html-button-response-mod","19","75803","0.0-19.0","73166","","","","","","triplet","1965.5","","","","1","stimuli/stim017_inanimate_tree_1.png","stimuli/stim013_inanimate_boats_1.png","stimuli/tree_uppercase.png","15"
"html-button-response-mod","20","80834","0.0-20.0","73166","","","","","","triplet","4528.900000095367","","","","0","stimuli/bird_uppercase.png","stimuli/tools_uppercase.png","stimuli/stim021_inanimate_tools_1.png","16"
"html-button-response-mod","21","83407","0.0-21.0","73166","","","","","","triplet","2070.7999999523163","","","","2","stimuli/stim002_animate_fish_2.png","stimuli/stim007_animate_bird_3.png","stimuli/stim012_animate_face_4.png","17"
"html-button-response-mod","22","85843","0.0-22.0","73166","","","","","","triplet","1934","","","","1","stimuli/stim014_inanimate_boats_2.png","stimuli/face_lowercase.png","stimuli/tools_uppercase.png","18"
"html-button-response-mod","23","90898","0.0-23.0","73166","","","","","","triplet","4553.099999904633","","","","2","stimuli/stim024_inanimate_tools_4.png","stimuli/stim015_inanimate_boats_3.png","stimuli/stim003_animate_fish_3.png","19"
"html-button-response-mod","24","92568","0.0-24.0","73166","","","","","","triplet","1164.7000000476837","","","","0","stimuli/stim014_inanimate_boats_2.png","stimuli/stim019_inanimate_tree_3.png","stimuli/stim017_inanimate_tree_1.png","20"
"html-button-response-mod","25","101687","0.0-25.0","73166","","","","","","triplet","8617.200000047684","","","","2","stimuli/bird_lowercase.png","stimuli/face_uppercase.png","stimuli/stim022_inanimate_tools_2.png","21"
"html-button-response-mod","26","103542","0.0-26.0","73166","","","","","","triplet","1353.2999999523163","","","","0","stimuli/stim011_animate_face_3.png","stimuli/stim013_inanimate_boats_1.png","stimuli/stim014_inanimate_boats_2.png","22"
"html-button-response-mod","27","107800","0.0-27.0","73166","","","","","","triplet","3756.0999999046326","","","","1","stimuli/boats_lowercase.png","stimuli/stim010_animate_face_2.png","stimuli/tree_lowercase.png","23"
"html-button-response-mod","28","109641","0.0-28.0","73166","","","","","","triplet","1336","","","","1","stimuli/face_uppercase.png","stimuli/stim009_animate_face_1.png","stimuli/fish_uppercase.png","24"
"html-button-response-mod","29","112977","0.0-29.0","73166","","","","","","triplet","2832.300000190735","","","","2","stimuli/stim017_inanimate_tree_1.png","stimuli/stim007_animate_bird_3.png","stimuli/tools_uppercase.png","25"
"html-button-response-mod","30","114710","0.0-30.0","73166","","","","","","triplet","1229.7999999523163","","","","1","stimuli/stim002_animate_fish_2.png","stimuli/stim005_animate_bird_1.png","stimuli/stim003_animate_fish_3.png","26"
"html-button-response-mod","31","118066","0.0-31.0","73166","","","","","","triplet","2852","","","","0","stimuli/face_lowercase.png","stimuli/stim018_inanimate_tree_2.png","stimuli/stim022_inanimate_tools_2.png","27"
"html-button-response-mod","32","119717","0.0-32.0","73166","","","","","","triplet","1149.5999999046326","","","","1","stimuli/stim006_animate_bird_2.png","stimuli/stim013_inanimate_boats_1.png","stimuli/stim007_animate_bird_3.png","28"
"html-button-response-mod","33","125032","0.0-33.0","73166","","","","","","triplet","4811.200000047684","","","","0","stimuli/stim024_inanimate_tools_4.png","stimuli/fish_lowercase.png","stimuli/tree_uppercase.png","29"
"html-button-response-mod","34","127983","0.0-34.0","73166","","","","","","triplet","2447.800000190735","","","","0","stimuli/boats_lowercase.png","stimuli/stim020_inanimate_tree_4.png","stimuli/stim004_animate_fish_4.png","30"
"html-button-response-mod","35","131038","0.0-35.0","73166","","","","","","triplet","2550","","","","2","stimuli/stim013_inanimate_boats_1.png","stimuli/tree_uppercase.png","stimuli/stim009_animate_face_1.png","31"
"html-button-response-mod","36","134667","0.0-36.0","73166","","","","","","triplet","3127.5999999046326","","","","2","stimuli/stim002_animate_fish_2.png","stimuli/boats_lowercase.png","stimuli/face_uppercase.png","32"
"html-button-response-mod","37","137650","0.0-37.0","73166","","","","","","triplet","2480.7999999523163","","","","1","stimuli/tree_lowercase.png","stimuli/stim001_animate_fish_1.png","stimuli/stim019_inanimate_tree_3.png","33"
"html-button-response-mod","38","139479","0.0-38.0","73166","","","","","","triplet","1327.2999999523163","","","","1","stimuli/boats_uppercase.png","stimuli/stim023_inanimate_tools_3.png","stimuli/bird_uppercase.png","34"
"html-button-response-mod","39","141939","0.0-39.0","73166","","","","","","triplet","1958.2000000476837","","","","1","stimuli/face_uppercase.png","stimuli/bird_lowercase.png","stimuli/stim012_animate_face_4.png","35"
"html-button-response-mod","40","146098","0.0-40.0","73166","","","","","","triplet","3657.5","","","","1","stimuli/stim021_inanimate_tools_1.png","stimuli/stim012_animate_face_4.png","stimuli/stim003_animate_fish_3.png","36"
"html-button-response-mod","41","148637","0.0-41.0","73166","","","","","","triplet","2037.5999999046326","","","","1","stimuli/fish_lowercase.png","stimuli/stim022_inanimate_tools_2.png","stimuli/bird_uppercase.png","37"
"html-button-response-mod","42","150709","0.0-42.0","73166","","","","","","triplet","1570.1999998092651","","","","0","stimuli/tree_uppercase.png","stimuli/stim016_inanimate_boats_4.png","stimuli/stim024_inanimate_tools_4.png","38"
"html-button-response-mod","43","153789","0.0-43.0","73166","","","","","","triplet","2575.5999999046326","","","","1","stimuli/stim024_inanimate_tools_4.png","stimuli/stim003_animate_fish_3.png","stimuli/boats_uppercase.png","39"
"html-button-response-mod","44","156861","0.0-44.0","73166","","","","","","triplet","2568.9000000953674","","","","1","stimuli/stim014_inanimate_boats_2.png","stimuli/stim020_inanimate_tree_4.png","stimuli/stim015_inanimate_boats_3.png","40"
"html-button-response-mod","45","164158","0.0-45.0","73166","","","","","","triplet","6793.100000143051","","","","2","stimuli/stim011_animate_face_3.png","stimuli/stim005_animate_bird_1.png","stimuli/stim023_inanimate_tools_3.png","41"
"html-button-response-mod","46","167537","0.0-46.0","73166","","","","","","triplet","2877","","","","0","stimuli/stim011_animate_face_3.png","stimuli/tools_uppercase.png","stimuli/stim013_inanimate_boats_1.png","42"
"html-button-response-mod","47","169343","0.0-47.0","73166","","","","","","triplet","1302.3000001907349","","","","0","stimuli/stim019_inanimate_tree_3.png","stimuli/fish_lowercase.png","stimuli/stim002_animate_fish_2.png","43"
"html-button-response-mod","48","173180","0.0-48.0","73166","","","","","","triplet","3332.4000000953674","","","","0","stimuli/stim024_inanimate_tools_4.png","stimuli/stim011_animate_face_3.png","stimuli/stim005_animate_bird_1.png","44"
"html-button-response-mod","49","176889","0.0-49.0","73166","","","","","","triplet","3205.0999999046326","","","","2","stimuli/stim004_animate_fish_4.png","stimuli/stim019_inanimate_tree_3.png","stimuli/stim011_animate_face_3.png","45"
"html-button-response-mod","50","178695","0.0-50.0","73166","","","","","","triplet","1304.6999998092651","","","","2","stimuli/stim022_inanimate_tools_2.png","stimuli/stim023_inanimate_tools_3.png","stimuli/stim002_animate_fish_2.png","46"
"html-button-response-mod","51","181250","0.0-51.0","73166","","","","","","triplet","2053.7999999523163","","","","1","stimuli/stim005_animate_bird_1.png","stimuli/stim024_inanimate_tools_4.png","stimuli/stim020_inanimate_tree_4.png","47"
"html-button-response-mod","52","212077","0.0-52.0","73166","","","","","","triplet","30322.5","","","","2","stimuli/stim018_inanimate_tree_2.png","stimuli/bird_lowercase.png","stimuli/face_uppercase.png","48"
"html-button-response-mod","53","216907","0.0-53.0","73166","","","","","","triplet","4327.300000190735","","","","0","stimuli/stim022_inanimate_tools_2.png","stimuli/stim008_animate_bird_4.png","stimuli/stim010_animate_face_2.png","49"
"html-button-response","54","218964","0.0-54.0","73166","","","","","","break","1555.2999999523163","<p>BREAK</p><p>Take a break for as long as you need</p><p>Click the button to continue</p>","0","","","","","",""
"html-button-response-mod","55","222501","0.0-55.0","73166","","","","","","triplet","3536.300000190735","","","","0","stimuli/stim002_animate_fish_2.png","stimuli/stim008_animate_bird_4.png","stimuli/bird_uppercase.png","50"
"html-button-response-mod","56","224331","0.0-56.0","73166","","","","","","triplet","1326.6000001430511","","","","2","stimuli/stim004_animate_fish_4.png","stimuli/fish_lowercase.png","stimuli/stim016_inanimate_boats_4.png","51"
"html-button-response-mod","57","226874","0.0-57.0","73166","","","","","","triplet","2041.2000000476837","","","","0","stimuli/stim010_animate_face_2.png","stimuli/stim003_animate_fish_3.png","stimuli/stim022_inanimate_tools_2.png","52"
"html-button-response-mod","58","228533","0.0-58.0","73166","","","","","","triplet","1156.5","","","","0","stimuli/stim018_inanimate_tree_2.png","stimuli/tools_lowercase.png","stimuli/stim021_inanimate_tools_1.png","53"
"html-button-response-mod","59","230451","0.0-59.0","73166","","","","","","triplet","1416.0999999046326","","","","2","stimuli/stim006_animate_bird_2.png","stimuli/bird_uppercase.png","stimuli/stim021_inanimate_tools_1.png","54"
"html-button-response-mod","60","232724","0.0-60.0","73166","","","","","","triplet","1772","","","","0","stimuli/stim009_animate_face_1.png","stimuli/bird_lowercase.png","stimuli/stim023_inanimate_tools_3.png","55"
"html-button-response-mod","61","234676","0.0-61.0","73166","","","","","","triplet","1449.5","","","","0","stimuli/stim010_animate_face_2.png","stimuli/fish_lowercase.png","stimuli/tree_lowercase.png","56"
"html-button-response-mod","62","236829","0.0-62.0","73166","","","","","","triplet","1650","","","","1","stimuli/tools_uppercase.png","stimuli/stim007_animate_bird_3.png","stimuli/stim016_inanimate_boats_4.png","57"
"html-button-response-mod","63","238916","0.0-63.0","73166","","","","","","triplet","1585.5999999046326","","","","2","stimuli/stim006_animate_bird_2.png","stimuli/stim001_animate_fish_1.png","stimuli/stim023_inanimate_tools_3.png","58"
"html-button-response-mod","64","241941","0.0-64.0","73166","","","","","","triplet","2523.4000000953674","","","","0","stimuli/fish_uppercase.png","stimuli/stim008_animate_bird_4.png","stimuli/tree_lowercase.png","59"
"html-button-response-mod","65","243787","0.0-65.0","73166","","","","","","triplet","1345.2000000476837","","","","0","stimuli/tools_lowercase.png","stimuli/face_uppercase.png","stimuli/stim009_animate_face_1.png","60"
"html-button-response-mod","66","246609","0.0-66.0","73166","","","","","","triplet","2318.5999999046326","","","","1","stimuli/tools_lowercase.png","stimuli/tree_uppercase.png","stimuli/stim005_animate_bird_1.png","61"
"html-button-response-mod","67","248642","0.0-67.0","73166","","","","","","triplet","1530.5999999046326","","","","2","stimuli/stim002_animate_fish_2.png","stimuli/boats_uppercase.png","stimuli/stim012_animate_face_4.png","62"
"html-button-response-mod","68","250489","0.0-68.0","73166","","","","","","triplet","1341.1000001430511","","","","1","stimuli/stim007_animate_bird_3.png","stimuli/stim011_animate_face_3.png","stimuli/stim001_animate_fish_1.png","63"
"html-button-response-mod","69","257222","0.0-69.0","73166","","","","","","triplet","6231.200000047684","","","","1","stimuli/stim012_animate_face_4.png","stimuli/fish_lowercase.png","stimuli/stim024_inanimate_tools_4.png","64"
"html-button-response-mod","70","260278","0.0-70.0","73166","","","","","","triplet","2550.2999999523163","","","","0","stimuli/stim019_inanimate_tree_3.png","stimuli/tools_lowercase.png","stimuli/stim009_animate_face_1.png","65"
"html-button-response-mod","71","261964","0.0-71.0","73166","","","","","","triplet","1180.1000001430511","","","","1","stimuli/boats_uppercase.png","stimuli/stim001_animate_fish_1.png","stimuli/boats_lowercase.png","66"
"html-button-response-mod","72","263760","0.0-72.0","73166","","","","","","triplet","1292.0999999046326","","","","1","stimuli/stim001_animate_fish_1.png","stimuli/stim022_inanimate_tools_2.png","stimuli/stim014_inanimate_boats_2.png","67"
"html-button-response-mod","73","269938","0.0-73.0","73166","","","","","","triplet","5675.099999904633","","","","0","stimuli/stim009_animate_face_1.png","stimuli/stim005_animate_bird_1.png","stimuli/stim013_inanimate_boats_1.png","68"
"html-button-response-mod","74","272575","0.0-74.0","73166","","","","","","triplet","2135.2999999523163","","","","1","stimuli/fish_lowercase.png","stimuli/stim017_inanimate_tree_1.png","stimuli/stim004_animate_fish_4.png","69"
"html-button-response-mod","75","278565","0.0-75.0","73166","","","","","","triplet","5485.200000047684","","","","0","stimuli/stim013_inanimate_boats_1.png","stimuli/stim009_animate_face_1.png","stimuli/face_uppercase.png","70"
"html-button-response-mod","76","281540","0.0-76.0","73166","","","","","","triplet","2472.100000143051","","","","2","stimuli/stim017_inanimate_tree_1.png","stimuli/stim008_animate_bird_4.png","stimuli/stim002_animate_fish_2.png","71"
"html-button-response-mod","77","283370","0.0-77.0","73166","","","","","","triplet","1324","","","","0","stimuli/fish_uppercase.png","stimuli/stim023_inanimate_tools_3.png","stimuli/stim022_inanimate_tools_2.png","72"
"html-button-response-mod","78","285490","0.0-78.0","73166","","","","","","triplet","1617.5999999046326","","","","2","stimuli/tree_uppercase.png","stimuli/stim008_animate_bird_4.png","stimuli/stim014_inanimate_boats_2.png","73"
"html-button-response-mod","79","287176","0.0-79.0","73166","","","","","","triplet","1183.0999999046326","","","","2","stimuli/stim009_animate_face_1.png","stimuli/stim011_animate_face_3.png","stimuli/face_uppercase.png","74"
"html-button-response-mod","80","290667","0.0-80.0","73166","","","","","","triplet","2989.199999809265","","","","2","stimuli/stim015_inanimate_boats_3.png","stimuli/stim021_inanimate_tools_1.png","stimuli/stim011_animate_face_3.png","75"
"html-button-response-mod","81","292571","0.0-81.0","73166","","","","","","triplet","1400.2000000476837","","","","0","stimuli/stim005_animate_bird_1.png","stimuli/stim010_animate_face_2.png","stimuli/stim009_animate_face_1.png","76"
"html-button-response-mod","82","295712","0.0-82.0","73166","","","","","","triplet","2639.600000143051","","","","1","stimuli/stim024_inanimate_tools_4.png","stimuli/stim020_inanimate_tree_4.png","stimuli/stim015_inanimate_boats_3.png","77"
"html-button-response-mod","83","304113","0.0-83.0","73166","","","","","","triplet","7898.799999952316","","","","0","stimuli/tools_lowercase.png","stimuli/face_uppercase.png","stimuli/bird_lowercase.png","78"
"html-button-response-mod","84","308797","0.0-84.0","73166","","","","","","triplet","4180.5","","","","0","stimuli/stim015_inanimate_boats_3.png","stimuli/stim019_inanimate_tree_3.png","stimuli/stim012_animate_face_4.png","79"
"html-button-response-mod","85","311459","0.0-85.0","73166","","","","","","triplet","2159.7000000476837","","","","1","stimuli/stim021_inanimate_tools_1.png","stimuli/tree_uppercase.png","stimuli/stim015_inanimate_boats_3.png","80"
"html-button-response-mod","86","314401","0.0-86.0","73166","","","","","","triplet","2440.7999999523163","","","","2","stimuli/stim023_inanimate_tools_3.png","stimuli/tools_uppercase.png","stimuli/face_lowercase.png","81"
"html-button-response-mod","87","316803","0.0-87.0","73166","","","","","","triplet","1899.9000000953674","","","","1","stimuli/stim007_animate_bird_3.png","stimuli/stim003_animate_fish_3.png","stimuli/stim006_animate_bird_2.png","82"
"html-button-response-mod","88","318528","0.0-88.0","73166","","","","","","triplet","1221.8999998569489","","","","0","stimuli/bird_uppercase.png","stimuli/stim024_inanimate_tools_4.png","stimuli/stim014_inanimate_boats_2.png","83"
"html-button-response-mod","89","320496","0.0-89.0","73166","","","","","","triplet","1466.2000000476837","","","","2","stimuli/stim007_animate_bird_3.png","stimuli/fish_lowercase.png","stimuli/stim011_animate_face_3.png","84"
"html-button-response-mod","90","322150","0.0-90.0","73166","","","","","","triplet","1149.9000000953674","","","","2","stimuli/stim018_inanimate_tree_2.png","stimuli/stim006_animate_bird_2.png","stimuli/stim011_animate_face_3.png","85"
"html-button-response-mod","91","324141","0.0-91.0","73166","","","","","","triplet","1486.2000000476837","","","","0","stimuli/stim022_inanimate_tools_2.png","stimuli/tree_lowercase.png","stimuli/bird_uppercase.png","86"
"html-button-response-mod","92","326294","0.0-92.0","73166","","","","","","triplet","1649.2000000476837","","","","2","stimuli/stim008_animate_bird_4.png","stimuli/stim017_inanimate_tree_1.png","stimuli/stim011_animate_face_3.png","87"
"html-button-response-mod","93","329414","0.0-93.0","73166","","","","","","triplet","2618.2999999523163","","","","1","stimuli/stim023_inanimate_tools_3.png","stimuli/tree_lowercase.png","stimuli/face_uppercase.png","88"
"html-button-response-mod","94","332285","0.0-94.0","73166","","","","","","triplet","2365.2999999523163","","","","1","stimuli/stim018_inanimate_tree_2.png","stimuli/stim014_inanimate_boats_2.png","stimuli/stim017_inanimate_tree_1.png","89"
"html-button-response-mod","95","334026","0.0-95.0","73166","","","","","","triplet","1239.8999998569489","","","","1","stimuli/stim006_animate_bird_2.png","stimuli/stim024_inanimate_tools_4.png","stimuli/stim020_inanimate_tree_4.png","90"
"html-button-response-mod","96","337276","0.0-96.0","73166","","","","","","triplet","2745.100000143051","","","","2","stimuli/tools_lowercase.png","stimuli/stim011_animate_face_3.png","stimuli/stim005_animate_bird_1.png","91"
"html-button-response-mod","97","341090","0.0-97.0","73166","","","","","","triplet","3311.0999999046326","","","","1","stimuli/tree_uppercase.png","stimuli/stim022_inanimate_tools_2.png","stimuli/bird_lowercase.png","92"
"html-button-response-mod","98","344370","0.0-98.0","73166","","","","","","triplet","2774.7999999523163","","","","2","stimuli/stim021_inanimate_tools_1.png","stimuli/stim014_inanimate_boats_2.png","stimuli/tree_lowercase.png","93"
"html-button-response-mod","99","345892","0.0-99.0","73166","","","","","","triplet","1018.5999999046326","","","","2","stimuli/stim018_inanimate_tree_2.png","stimuli/stim005_animate_bird_1.png","stimuli/stim012_animate_face_4.png","94"
"html-button-response-mod","100","348409","0.0-100.0","73166","","","","","","triplet","2012.2000000476837","","","","0","stimuli/stim012_animate_face_4.png","stimuli/boats_uppercase.png","stimuli/tools_lowercase.png","95"
"html-button-response-mod","101","353674","0.0-101.0","73166","","","","","","triplet","4760.799999952316","","","","1","stimuli/boats_uppercase.png","stimuli/stim005_animate_bird_1.png","stimuli/face_lowercase.png","96"
"html-button-response-mod","102","355649","0.0-102.0","73166","","","","","","triplet","1472.3999998569489","","","","2","stimuli/tree_lowercase.png","stimuli/stim019_inanimate_tree_3.png","stimuli/stim004_animate_fish_4.png","97"
"html-button-response-mod","103","357310","0.0-103.0","73166","","","","","","triplet","1156.7000000476837","","","","0","stimuli/stim010_animate_face_2.png","stimuli/stim017_inanimate_tree_1.png","stimuli/tree_lowercase.png","98"
"html-button-response-mod","104","358922","0.0-104.0","73166","","","","","","triplet","1107.0999999046326","","","","2","stimuli/stim006_animate_bird_2.png","stimuli/stim008_animate_bird_4.png","stimuli/stim010_animate_face_2.png","99"
"html-button-response","105","360329","0.0-105.0","73166","","","","","","break","903.2999999523163","<p>BREAK</p><p>Take a break for as long as you need</p><p>Click the button to continue</p>","0","","","","","",""
"html-button-response-mod","106","361994","0.0-106.0","73166","","","","","","triplet","1661.6000001430511","","","","2","stimuli/stim016_inanimate_boats_4.png","stimuli/stim023_inanimate_tools_3.png","stimuli/stim017_inanimate_tree_1.png","100"
"html-button-response-mod","107","364050","0.0-107.0","73166","","","","","","triplet","1550.1000001430511","","","","2","stimuli/stim017_inanimate_tree_1.png","stimuli/stim003_animate_fish_3.png","stimuli/stim022_inanimate_tools_2.png","101"
"html-button-response-mod","108","366833","0.0-108.0","73166","","","","","","triplet","2279.5","","","","1","stimuli/stim022_inanimate_tools_2.png","stimuli/stim005_animate_bird_1.png","stimuli/boats_uppercase.png","102"
"html-button-response-mod","109","368929","0.0-109.0","73166","","","","","","triplet","1594.5999999046326","","","","0","stimuli/tree_lowercase.png","stimuli/stim004_animate_fish_4.png","stimuli/stim003_animate_fish_3.png","103"
"html-button-response-mod","110","373355","0.0-110.0","73166","","","","","","triplet","3923.9000000953674","","","","0","stimuli/stim022_inanimate_tools_2.png","stimuli/tree_uppercase.png","stimuli/stim011_animate_face_3.png","104"
"html-button-response-mod","111","375177","0.0-111.0","73166","","","","","","triplet","1317.3000001907349","","","","1","stimuli/bird_uppercase.png","stimuli/stim015_inanimate_boats_3.png","stimuli/stim019_inanimate_tree_3.png","105"
"html-button-response-mod","112","380571","0.0-112.0","73166","","","","","","triplet","4890.900000095367","","","","2","stimuli/tree_uppercase.png","stimuli/stim009_animate_face_1.png","stimuli/stim014_inanimate_boats_2.png","106"
"html-button-response-mod","113","383690","0.0-113.0","73166","","","","","","triplet","2616.800000190735","","","","1","stimuli/face_uppercase.png","stimuli/stim024_inanimate_tools_4.png","stimuli/bird_uppercase.png","107"
"html-button-response-mod","114","388018","0.0-114.0","73166","","","","","","triplet","3825.899999856949","","","","0","stimuli/stim024_inanimate_tools_4.png","stimuli/tree_uppercase.png","stimuli/stim005_animate_bird_1.png","108"
"html-button-response-mod","115","390758","0.0-115.0","73166","","","","","","triplet","2235.2000000476837","","","","2","stimuli/stim016_inanimate_boats_4.png","stimuli/stim023_inanimate_tools_3.png","stimuli/stim020_inanimate_tree_4.png","109"
"html-button-response-mod","116","392927","0.0-116.0","73166","","","","","","triplet","1666.8000001907349","","","","0","stimuli/stim016_inanimate_boats_4.png","stimuli/bird_uppercase.png","stimuli/stim006_animate_bird_2.png","110"
"html-button-response-mod","117","397837","0.0-117.0","73166","","","","","","triplet","4407.700000047684","","","","0","stimuli/stim006_animate_bird_2.png","stimuli/stim003_animate_fish_3.png","stimuli/boats_uppercase.png","111"
"html-button-response-mod","118","400135","0.0-118.0","73166","","","","","","triplet","1796.4000000953674","","","","2","stimuli/stim022_inanimate_tools_2.png","stimuli/stim014_inanimate_boats_2.png","stimuli/stim020_inanimate_tree_4.png","112"
"html-button-response-mod","119","401747","0.0-119.0","73166","","","","","","triplet","1106.7000000476837","","","","2","stimuli/stim010_animate_face_2.png","stimuli/stim011_animate_face_3.png","stimuli/stim002_animate_fish_2.png","113"
"html-button-response-mod","120","404827","0.0-120.0","73166","","","","","","triplet","2574.9000000953674","","","","2","stimuli/tree_uppercase.png","stimuli/stim004_animate_fish_4.png","stimuli/stim014_inanimate_boats_2.png","114"
"html-button-response-mod","121","407440","0.0-121.0","73166","","","","","","triplet","2111","","","","1","stimuli/stim013_inanimate_boats_1.png","stimuli/stim024_inanimate_tools_4.png","stimuli/fish_lowercase.png","115"
"html-button-response-mod","122","409368","0.0-122.0","73166","","","","","","triplet","1425.1999998092651","","","","0","stimuli/stim003_animate_fish_3.png","stimuli/bird_uppercase.png","stimuli/stim020_inanimate_tree_4.png","116"
"html-button-response-mod","123","412922","0.0-123.0","73166","","","","","","triplet","3052.0999999046326","","","","2","stimuli/tree_lowercase.png","stimuli/bird_uppercase.png","stimuli/stim002_animate_fish_2.png","117"
"html-button-response-mod","124","414946","0.0-124.0","73166","","","","","","triplet","1521.7999999523163","","","","1","stimuli/tools_uppercase.png","stimuli/stim018_inanimate_tree_2.png","stimuli/stim014_inanimate_boats_2.png","118"
"html-button-response-mod","125","417027","0.0-125.0","73166","","","","","","triplet","1579.8000001907349","","","","0","stimuli/stim006_animate_bird_2.png","stimuli/stim015_inanimate_boats_3.png","stimuli/boats_lowercase.png","119"
"html-button-response-mod","126","418921","0.0-126.0","73166","","","","","","triplet","1389.4000000953674","","","","1","stimuli/boats_lowercase.png","stimuli/fish_lowercase.png","stimuli/stim015_inanimate_boats_3.png","120"
"html-button-response-mod","127","421564","0.0-127.0","73166","","","","","","triplet","2141.5999999046326","","","","2","stimuli/stim001_animate_fish_1.png","stimuli/stim003_animate_fish_3.png","stimuli/fish_lowercase.png","121"
"html-button-response-mod","128","425539","0.0-128.0","73166","","","","","","triplet","3473.2000000476837","","","","0","stimuli/tools_lowercase.png","stimuli/bird_lowercase.png","stimuli/tree_lowercase.png","122"
"html-button-response-mod","129","427757","0.0-129.0","73166","","","","","","triplet","1715.6999998092651","","","","2","stimuli/boats_lowercase.png","stimuli/fish_lowercase.png","stimuli/stim020_inanimate_tree_4.png","123"
"html-button-response-mod","130","433021","0.0-130.0","73166","","","","","","triplet","4760.299999952316","","","","2","stimuli/stim015_inanimate_boats_3.png","stimuli/face_lowercase.png","stimuli/tree_lowercase.png","124"
"html-button-response-mod","131","434925","0.0-131.0","73166","","","","","","triplet","1401.3999998569489","","","","0","stimuli/stim007_animate_bird_3.png","stimuli/stim013_inanimate_boats_1.png","stimuli/stim016_inanimate_boats_4.png","125"
"html-button-response-mod","132","436697","0.0-132.0","73166","","","","","","triplet","1269.5","","","","2","stimuli/stim012_animate_face_4.png","stimuli/face_uppercase.png","stimuli/stim016_inanimate_boats_4.png","126"
"html-button-response-mod","133","438995","0.0-133.0","73166","","","","","","triplet","1794.5999999046326","","","","0","stimuli/tools_lowercase.png","stimuli/stim008_animate_bird_4.png","stimuli/fish_uppercase.png","127"
"html-button-response-mod","134","441648","0.0-134.0","73166","","","","","","triplet","2151.399999856949","","","","0","stimuli/stim022_inanimate_tools_2.png","stimuli/tree_uppercase.png","stimuli/stim009_animate_face_1.png","128"
"html-button-response-mod","135","443995","0.0-135.0","73166","","","","","","triplet","1844.4000000953674","","","","1","stimuli/stim023_inanimate_tools_3.png","stimuli/stim020_inanimate_tree_4.png","stimuli/stim021_inanimate_tools_1.png","129"
"html-button-response-mod","136","445687","0.0-136.0","73166","","","","","","triplet","1189.7999999523163","","","","0","stimuli/stim020_inanimate_tree_4.png","stimuli/stim015_inanimate_boats_3.png","stimuli/stim002_animate_fish_2.png","130"
"html-button-response-mod","137","451991","0.0-137.0","73166","","","","","","triplet","5801.5","","","","2","stimuli/stim010_animate_face_2.png","stimuli/bird_lowercase.png","stimuli/boats_uppercase.png","131"
"html-button-response-mod","138","533540","0.0-138.0","73166","","","","","","triplet","81044.90000009537","","","","1","stimuli/stim002_animate_fish_2.png","stimuli/stim021_inanimate_tools_1.png","stimuli/fish_uppercase.png","132"
"html-button-response-mod","139","536024","0.0-139.0","73166","","","","","","triplet","1980.4000000953674","","","","1","stimuli/stim007_animate_bird_3.png","stimuli/stim022_inanimate_tools_2.png","stimuli/stim013_inanimate_boats_1.png","133"
"html-button-response-mod","140","538119","0.0-140.0","73166","","","","","","triplet","1592","","","","0","stimuli/stim010_animate_face_2.png","stimuli/fish_lowercase.png","stimuli/stim005_animate_bird_1.png","134"
"html-button-response-mod","141","539998","0.0-141.0","73166","","","","","","triplet","1375","","","","1","stimuli/stim004_animate_fish_4.png","stimuli/stim019_inanimate_tree_3.png","stimuli/boats_lowercase.png","135"
"html-button-response-mod","142","542778","0.0-142.0","73166","","","","","","triplet","2277.300000190735","","","","1","stimuli/fish_lowercase.png","stimuli/stim010_animate_face_2.png","stimuli/stim014_inanimate_boats_2.png","136"
"html-button-response-mod","143","544293","0.0-143.0","73166","","","","","","triplet","1009.8999998569489","","","","2","stimuli/stim004_animate_fish_4.png","stimuli/fish_lowercase.png","stimuli/stim010_animate_face_2.png","137"
"html-button-response-mod","144","546350","0.0-144.0","73166","","","","","","triplet","1554.7999999523163","","","","0","stimuli/stim009_animate_face_1.png","stimuli/boats_uppercase.png","stimuli/boats_lowercase.png","138"
"html-button-response-mod","145","548244","0.0-145.0","73166","","","","","","triplet","1392.4000000953674","","","","0","stimuli/stim022_inanimate_tools_2.png","stimuli/stim001_animate_fish_1.png","stimuli/stim006_animate_bird_2.png","139"
"html-button-response-mod","146","550243","0.0-146.0","73166","","","","","","triplet","1494.3999998569489","","","","1","stimuli/boats_uppercase.png","stimuli/stim015_inanimate_boats_3.png","stimuli/fish_lowercase.png","140"
"html-button-response-mod","147","556693","0.0-147.0","73166","","","","","","triplet","5944.200000047684","","","","0","stimuli/tools_uppercase.png","stimuli/stim020_inanimate_tree_4.png","stimuli/fish_lowercase.png","141"
"html-button-response-mod","148","558055","0.0-148.0","73166","","","","","","triplet","858.0999999046326","","","","0","stimuli/stim007_animate_bird_3.png","stimuli/stim005_animate_bird_1.png","stimuli/stim008_animate_bird_4.png","142"
"html-button-response-mod","149","559345","0.0-149.0","73166","","","","","","triplet","787.2000000476837","","","","2","stimuli/stim008_animate_bird_4.png","stimuli/stim002_animate_fish_2.png","stimuli/stim015_inanimate_boats_3.png","143"
"html-button-response-mod","150","561239","0.0-150.0","73166","","","","","","triplet","1389.8000001907349","","","","0","stimuli/stim009_animate_face_1.png","stimuli/stim018_inanimate_tree_2.png","stimuli/boats_uppercase.png","144"
"html-button-response-mod","151","563391","0.0-151.0","73166","","","","","","triplet","1649.3000001907349","","","","1","stimuli/stim016_inanimate_boats_4.png","stimuli/tree_uppercase.png","stimuli/stim014_inanimate_boats_2.png","145"
"html-button-response-mod","152","588031","0.0-152.0","73166","","","","","","triplet","24135.599999904633","","","","0","stimuli/stim008_animate_bird_4.png","stimuli/tools_lowercase.png","stimuli/stim023_inanimate_tools_3.png","146"
"html-button-response-mod","153","591856","0.0-153.0","73166","","","","","","triplet","3322.2000000476837","","","","0","stimuli/stim005_animate_bird_1.png","stimuli/stim010_animate_face_2.png","stimuli/stim016_inanimate_boats_4.png","147"
"html-button-response-mod","154","596054","0.0-154.0","73166","","","","","","triplet","3696.7999999523163","","","","1","stimuli/stim008_animate_bird_4.png","stimuli/stim021_inanimate_tools_1.png","stimuli/face_lowercase.png","148"
"html-button-response-mod","155","600054","0.0-155.0","73166","","","","","","triplet","3497.2999999523163","","","","2","stimuli/stim006_animate_bird_2.png","stimuli/fish_lowercase.png","stimuli/stim017_inanimate_tree_1.png","149"
"html-button-response","156","601683","0.0-156.0","73166","","","","","","break","1125.7999999523163","<p>BREAK</p><p>Take a break for as long as you need</p><p>Click the button to continue</p>","0","","","","","",""
"html-button-response-mod","157","603062","0.0-157.0","73166","","","","","","triplet","1377.4000000953674","","","","1","stimuli/boats_uppercase.png","stimuli/stim005_animate_bird_1.png","stimuli/tools_uppercase.png","150"
"html-button-response-mod","158","605505","0.0-158.0","73166","","","","","","triplet","1940.9000000953674","","","","2","stimuli/stim022_inanimate_tools_2.png","stimuli/stim004_animate_fish_4.png","stimuli/stim011_animate_face_3.png","151"
"html-button-response-mod","159","607811","0.0-159.0","73166","","","","","","triplet","1804.7000000476837","","","","1","stimuli/stim013_inanimate_boats_1.png","stimuli/stim011_animate_face_3.png","stimuli/bird_uppercase.png","152"
"html-button-response-mod","160","609818","0.0-160.0","73166","","","","","","triplet","1501.2000000476837","","","","1","stimuli/stim021_inanimate_tools_1.png","stimuli/stim016_inanimate_boats_4.png","stimuli/tools_lowercase.png","153"
"html-button-response-mod","161","611464","0.0-161.0","73166","","","","","","triplet","1143.4000000953674","","","","1","stimuli/bird_uppercase.png","stimuli/stim017_inanimate_tree_1.png","stimuli/stim007_animate_bird_3.png","154"
"html-button-response-mod","162","614359","0.0-162.0","73166","","","","","","triplet","2392.5","","","","2","stimuli/stim013_inanimate_boats_1.png","stimuli/tools_uppercase.png","stimuli/face_uppercase.png","155"
"html-button-response-mod","163","616592","0.0-163.0","73166","","","","","","triplet","1727.3999998569489","","","","0","stimuli/tools_lowercase.png","stimuli/boats_uppercase.png","stimuli/stim004_animate_fish_4.png","156"
"html-button-response-mod","164","618810","0.0-164.0","73166","","","","","","triplet","1714.8000001907349","","","","0","stimuli/stim006_animate_bird_2.png","stimuli/boats_uppercase.png","stimuli/stim013_inanimate_boats_1.png","157"
"html-button-response-mod","165","620212","0.0-165.0","73166","","","","","","triplet","899.2999999523163","","","","2","stimuli/stim002_animate_fish_2.png","stimuli/stim003_animate_fish_3.png","stimuli/stim022_inanimate_tools_2.png","158"
"html-button-response-mod","166","621848","0.0-166.0","73166","","","","","","triplet","1133.6999998092651","","","","1","stimuli/stim009_animate_face_1.png","stimuli/boats_lowercase.png","stimuli/stim012_animate_face_4.png","159"
"html-button-response-mod","167","623904","0.0-167.0","73166","","","","","","triplet","1553.5","","","","1","stimuli/stim022_inanimate_tools_2.png","stimuli/tools_uppercase.png","stimuli/stim021_inanimate_tools_1.png","160"
"html-button-response-mod","168","626147","0.0-168.0","73166","","","","","","triplet","1741.2000000476837","","","","0","stimuli/boats_uppercase.png","stimuli/bird_uppercase.png","stimuli/stim005_animate_bird_1.png","161"
"html-button-response-mod","169","628718","0.0-169.0","73166","","","","","","triplet","2066.5999999046326","","","","2","stimuli/face_lowercase.png","stimuli/stim010_animate_face_2.png","stimuli/stim016_inanimate_boats_4.png","162"
"html-button-response-mod","170","631604","0.0-170.0","73166","","","","","","triplet","2382.4000000953674","","","","1","stimuli/face_lowercase.png","stimuli/stim024_inanimate_tools_4.png","stimuli/stim003_animate_fish_3.png","163"
"html-button-response-mod","171","634757","0.0-171.0","73166","","","","","","triplet","2651.4000000953674","","","","2","stimuli/fish_lowercase.png","stimuli/stim006_animate_bird_2.png","stimuli/tree_uppercase.png","164"
"html-button-response-mod","172","637942","0.0-172.0","73166","","","","","","triplet","2681.9000000953674","","","","1","stimuli/stim011_animate_face_3.png","stimuli/stim018_inanimate_tree_2.png","stimuli/stim008_animate_bird_4.png","165"
"html-button-response-mod","173","639571","0.0-173.0","73166","","","","","","triplet","1127","","","","2","stimuli/face_uppercase.png","stimuli/stim012_animate_face_4.png","stimuli/stim017_inanimate_tree_1.png","166"
"html-button-response-mod","174","641884","0.0-174.0","73166","","","","","","triplet","1808.8999998569489","","","","2","stimuli/tree_lowercase.png","stimuli/stim010_animate_face_2.png","stimuli/stim021_inanimate_tools_1.png","167"
"html-button-response-mod","175","646367","0.0-175.0","73166","","","","","","triplet","3979.4000000953674","","","","2","stimuli/stim022_inanimate_tools_2.png","stimuli/stim015_inanimate_boats_3.png","stimuli/stim003_animate_fish_3.png","168"
"html-button-response-mod","176","648101","0.0-176.0","73166","","","","","","triplet","1232","","","","0","stimuli/stim006_animate_bird_2.png","stimuli/tools_lowercase.png","stimuli/tools_uppercase.png","169"
"html-button-response-mod","177","651060","0.0-177.0","73166","","","","","","triplet","2457.300000190735","","","","1","stimuli/bird_lowercase.png","stimuli/boats_lowercase.png","stimuli/stim011_animate_face_3.png","170"
"html-button-response-mod","178","653970","0.0-178.0","73166","","","","","","triplet","2406.7000000476837","","","","1","stimuli/stim005_animate_bird_1.png","stimuli/boats_uppercase.png","stimuli/fish_uppercase.png","171"
"html-button-response-mod","179","659607","0.0-179.0","73166","","","","","","triplet","5133","","","","2","stimuli/stim004_animate_fish_4.png","stimuli/boats_lowercase.png","stimuli/tree_lowercase.png","172"
"html-button-response-mod","180","661832","0.0-180.0","73166","","","","","","triplet","1722.4000000953674","","","","0","stimuli/stim013_inanimate_boats_1.png","stimuli/stim010_animate_face_2.png","stimuli/stim003_animate_fish_3.png","173"
"html-button-response-mod","181","663952","0.0-181.0","73166","","","","","","triplet","1614.2000000476837","","","","1","stimuli/stim023_inanimate_tools_3.png","stimuli/stim007_animate_bird_3.png","stimuli/tools_uppercase.png","174"
"html-button-response-mod","182","667879","0.0-182.0","73166","","","","","","triplet","3424.600000143051","","","","1","stimuli/stim022_inanimate_tools_2.png","stimuli/stim002_animate_fish_2.png","stimuli/stim014_inanimate_boats_2.png","175"
"html-button-response-mod","183","673096","0.0-183.0","73166","","","","","","triplet","4714","","","","0","stimuli/stim013_inanimate_boats_1.png","stimuli/face_uppercase.png","stimuli/stim002_animate_fish_2.png","176"
"html-button-response-mod","184","679054","0.0-184.0","73166","","","","","","triplet","5455.399999856949","","","","0","stimuli/stim004_animate_fish_4.png","stimuli/bird_lowercase.png","stimuli/stim008_animate_bird_4.png","177"
"html-button-response-mod","185","683078","0.0-185.0","73166","","","","","","triplet","3521.9000000953674","","","","0","stimuli/face_lowercase.png","stimuli/stim014_inanimate_boats_2.png","stimuli/stim013_inanimate_boats_1.png","178"
"html-button-response-mod","186","685242","0.0-186.0","73166","","","","","","triplet","1661.7999999523163","","","","0","stimuli/stim014_inanimate_boats_2.png","stimuli/stim009_animate_face_1.png","stimuli/face_uppercase.png","179"
"html-button-response-mod","187","690577","0.0-187.0","73166","","","","","","triplet","4832.200000047684","","","","1","stimuli/face_lowercase.png","stimuli/fish_uppercase.png","stimuli/stim021_inanimate_tools_1.png","180"
"html-button-response-mod","188","696859","0.0-188.0","73166","","","","","","triplet","5778.800000190735","","","","1","stimuli/stim019_inanimate_tree_3.png","stimuli/stim005_animate_bird_1.png","stimuli/tree_uppercase.png","181"
"html-button-response-mod","189","698738","0.0-189.0","73166","","","","","","triplet","1375.7000000476837","","","","2","stimuli/stim001_animate_fish_1.png","stimuli/stim003_animate_fish_3.png","stimuli/stim006_animate_bird_2.png","182"
"html-button-response-mod","190","703907","0.0-190.0","73166","","","","","","triplet","4665.5","","","","0","stimuli/stim011_animate_face_3.png","stimuli/bird_uppercase.png","stimuli/stim014_inanimate_boats_2.png","183"
"html-button-response-mod","191","706543","0.0-191.0","73166","","","","","","triplet","2132.5999999046326","","","","0","stimuli/stim024_inanimate_tools_4.png","stimuli/stim008_animate_bird_4.png","stimuli/stim004_animate_fish_4.png","184"
"html-button-response-mod","192","708001","0.0-192.0","73166","","","","","","triplet","957","","","","0","stimuli/stim012_animate_face_4.png","stimuli/stim007_animate_bird_3.png","stimuli/stim001_animate_fish_1.png","185"
"html-button-response-mod","193","709252","0.0-193.0","73166","","","","","","triplet","748.7000000476837","","","","0","stimuli/stim014_inanimate_boats_2.png","stimuli/stim008_animate_bird_4.png","stimuli/stim007_animate_bird_3.png","186"
"html-button-response-mod","194","713064","0.0-194.0","73166","","","","","","triplet","3311.2000000476837","","","","0","stimuli/stim023_inanimate_tools_3.png","stimuli/face_lowercase.png","stimuli/bird_uppercase.png","187"
"html-button-response-mod","195","714767","0.0-195.0","73166","","","","","","triplet","1200.9000000953674","","","","0","stimuli/stim010_animate_face_2.png","stimuli/tools_uppercase.png","stimuli/tools_lowercase.png","188"
"html-button-response-mod","196","719265","0.0-196.0","73166","","","","","","triplet","3996.5999999046326","","","","1","stimuli/face_uppercase.png","stimuli/stim016_inanimate_boats_4.png","stimuli/stim004_animate_fish_4.png","189"
"html-button-response-mod","197","720820","0.0-197.0","73166","","","","","","triplet","1053.2999999523163","","","","2","stimuli/stim014_inanimate_boats_2.png","stimuli/boats_lowercase.png","stimuli/stim022_inanimate_tools_2.png","190"
"html-button-response-mod","198","724561","0.0-198.0","73166","","","","","","triplet","3239.100000143051","","","","2","stimuli/stim017_inanimate_tree_1.png","stimuli/stim006_animate_bird_2.png","stimuli/stim014_inanimate_boats_2.png","191"
"html-button-response-mod","199","727424","0.0-199.0","73166","","","","","","triplet","2357.300000190735","","","","0","stimuli/stim019_inanimate_tree_3.png","stimuli/tree_uppercase.png","stimuli/tree_lowercase.png","192"
"html-button-response-mod","200","729205","0.0-200.0","73166","","","","","","triplet","1277.7000000476837","","","","1","stimuli/tools_uppercase.png","stimuli/fish_lowercase.png","stimuli/tools_lowercase.png","193"
"html-button-response-mod","201","730762","0.0-201.0","73166","","","","","","triplet","1054.8000001907349","","","","1","stimuli/boats_uppercase.png","stimuli/stim002_animate_fish_2.png","stimuli/stim014_inanimate_boats_2.png","194"
"html-button-response-mod","202","732415","0.0-202.0","73166","","","","","","triplet","1148.7999999523163","","","","1","stimuli/stim022_inanimate_tools_2.png","stimuli/stim002_animate_fish_2.png","stimuli/stim021_inanimate_tools_1.png","195"
"html-button-response-mod","203","734042","0.0-203.0","73166","","","","","","triplet","1125.1000001430511","","","","1","stimuli/stim003_animate_fish_3.png","stimuli/stim014_inanimate_boats_2.png","stimuli/stim002_animate_fish_2.png","196"
"html-button-response-mod","204","735809","0.0-204.0","73166","","","","","","triplet","1262.8999998569489","","","","1","stimuli/bird_uppercase.png","stimuli/stim006_animate_bird_2.png","stimuli/bird_lowercase.png","197"
"html-button-response-mod","205","737833","0.0-205.0","73166","","","","","","triplet","1520.2000000476837","","","","2","stimuli/stim017_inanimate_tree_1.png","stimuli/tree_uppercase.png","stimuli/boats_uppercase.png","198"
"html-button-response-mod","206","739510","0.0-206.0","73166","","","","","","triplet","1174.5","","","","1","stimuli/stim010_animate_face_2.png","stimuli/tools_uppercase.png","stimuli/stim011_animate_face_3.png","199"
"html-button-response","207","741025","0.0-207.0","73166","","","","","","break","1011.0999999046326","<p>BREAK</p><p>Take a break for as long as you need</p><p>Click the button to continue</p>","0","","","","","",""
"html-button-response-mod","208","742485","0.0-208.0","73166","","","","","","triplet","1458.5","","","","1","stimuli/bird_lowercase.png","stimuli/stim009_animate_face_1.png","stimuli/tree_lowercase.png","200"
"html-button-response-mod","209","744477","0.0-209.0","73166","","","","","","triplet","1488.1000001430511","","","","1","stimuli/stim007_animate_bird_3.png","stimuli/boats_lowercase.png","stimuli/stim019_inanimate_tree_3.png","201"
"html-button-response-mod","210","748378","0.0-210.0","73166","","","","","","triplet","3398.2999999523163","","","","2","stimuli/stim003_animate_fish_3.png","stimuli/stim008_animate_bird_4.png","stimuli/fish_lowercase.png","202"
"html-button-response-mod","211","750959","0.0-211.0","73166","","","","","","triplet","2076.5","","","","1","stimuli/stim014_inanimate_boats_2.png","stimuli/tree_uppercase.png","stimuli/face_lowercase.png","203"
"html-button-response-mod","212","753272","0.0-212.0","73166","","","","","","triplet","1809.7999999523163","","","","2","stimuli/stim006_animate_bird_2.png","stimuli/face_lowercase.png","stimuli/stim016_inanimate_boats_4.png","204"
"html-button-response-mod","213","756125","0.0-213.0","73166","","","","","","triplet","2347.7000000476837","","","","0","stimuli/boats_uppercase.png","stimuli/tree_uppercase.png","stimuli/stim009_animate_face_1.png","205"
"html-button-response-mod","214","759382","0.0-214.0","73166","","","","","","triplet","2754.100000143051","","","","2","stimuli/stim014_inanimate_boats_2.png","stimuli/boats_lowercase.png","stimuli/stim001_animate_fish_1.png","206"
"html-button-response-mod","215","761527","0.0-215.0","73166","","","","","","triplet","1643.2000000476837","","","","1","stimuli/fish_lowercase.png","stimuli/bird_uppercase.png","stimuli/stim003_animate_fish_3.png","207"
"html-button-response-mod","216","763107","0.0-216.0","73166","","","","","","triplet","1077.5","","","","2","stimuli/stim004_animate_fish_4.png","stimuli/stim003_animate_fish_3.png","stimuli/stim016_inanimate_boats_4.png","208"
"html-button-response-mod","217","764678","0.0-217.0","73166","","","","","","triplet","1069.7999999523163","","","","1","stimuli/stim006_animate_bird_2.png","stimuli/stim010_animate_face_2.png","stimuli/stim007_animate_bird_3.png","209"
"html-button-response-mod","218","766798","0.0-218.0","73166","","","","","","triplet","1617.3000001907349","","","","2","stimuli/stim001_animate_fish_1.png","stimuli/stim018_inanimate_tree_2.png","stimuli/stim012_animate_face_4.png","210"
"html-button-response-mod","219","770039","0.0-219.0","73166","","","","","","triplet","2739.199999809265","","","","2","stimuli/face_lowercase.png","stimuli/stim011_animate_face_3.png","stimuli/stim008_animate_bird_4.png","211"
"html-button-response-mod","220","771853","0.0-220.0","73166","","","","","","triplet","1310.8999998569489","","","","0","stimuli/stim022_inanimate_tools_2.png","stimuli/stim005_animate_bird_1.png","stimuli/stim011_animate_face_3.png","212"
"html-button-response-mod","221","773892","0.0-221.0","73166","","","","","","triplet","1535.4000000953674","","","","2","stimuli/stim024_inanimate_tools_4.png","stimuli/stim013_inanimate_boats_1.png","stimuli/stim009_animate_face_1.png","213"
"html-button-response-mod","222","779180","0.0-222.0","73166","","","","","","triplet","4784.800000190735","","","","0","stimuli/stim015_inanimate_boats_3.png","stimuli/bird_uppercase.png","stimuli/stim007_animate_bird_3.png","214"
"html-button-response-mod","223","780630","0.0-223.0","73166","","","","","","triplet","948","","","","2","stimuli/fish_lowercase.png","stimuli/stim003_animate_fish_3.png","stimuli/stim010_animate_face_2.png","215"
"html-button-response-mod","224","782356","0.0-224.0","73166","","","","","","triplet","1222.7000000476837","","","","2","stimuli/stim020_inanimate_tree_4.png","stimuli/tree_lowercase.png","stimuli/face_uppercase.png","216"
"html-button-response-mod","225","784398","0.0-225.0","73166","","","","","","triplet","1537.4000000953674","","","","1","stimuli/stim003_animate_fish_3.png","stimuli/tools_lowercase.png","stimuli/stim004_animate_fish_4.png","217"
"html-button-response-mod","226","785831","0.0-226.0","73166","","","","","","triplet","929.7000000476837","","","","1","stimuli/stim020_inanimate_tree_4.png","stimuli/stim013_inanimate_boats_1.png","stimuli/stim002_animate_fish_2.png","218"
"html-button-response-mod","227","787799","0.0-227.0","73166","","","","","","triplet","1464.8999998569489","","","","2","stimuli/stim018_inanimate_tree_2.png","stimuli/stim017_inanimate_tree_1.png","stimuli/face_lowercase.png","219"
"html-button-response-mod","228","789563","0.0-228.0","73166","","","","","","triplet","1262.2000000476837","","","","2","stimuli/stim001_animate_fish_1.png","stimuli/stim008_animate_bird_4.png","stimuli/stim012_animate_face_4.png","220"
"html-button-response-mod","229","791409","0.0-229.0","73166","","","","","","triplet","1342.1000001430511","","","","2","stimuli/stim008_animate_bird_4.png","stimuli/bird_uppercase.png","stimuli/stim020_inanimate_tree_4.png","221"
"html-button-response-mod","230","794392","0.0-230.0","73166","","","","","","triplet","2479.0999999046326","","","","2","stimuli/stim015_inanimate_boats_3.png","stimuli/stim004_animate_fish_4.png","stimuli/stim022_inanimate_tools_2.png","222"
"html-button-response-mod","231","796554","0.0-231.0","73166","","","","","","triplet","1659.8000001907349","","","","2","stimuli/stim002_animate_fish_2.png","stimuli/boats_uppercase.png","stimuli/bird_lowercase.png","223"
"html-button-response-mod","232","798971","0.0-232.0","73166","","","","","","triplet","1912.3000001907349","","","","1","stimuli/stim001_animate_fish_1.png","stimuli/tree_lowercase.png","stimuli/bird_lowercase.png","224"
"html-button-response-mod","233","800536","0.0-233.0","73166","","","","","","triplet","1062.6999998092651","","","","2","stimuli/stim020_inanimate_tree_4.png","stimuli/fish_uppercase.png","stimuli/stim012_animate_face_4.png","225"
"html-button-response-mod","234","801898","0.0-234.0","73166","","","","","","triplet","859.4000000953674","","","","2","stimuli/stim004_animate_fish_4.png","stimuli/fish_lowercase.png","stimuli/stim021_inanimate_tools_1.png","226"
"html-button-response-mod","235","803947","0.0-235.0","73166","","","","","","triplet","1545.2000000476837","","","","2","stimuli/stim016_inanimate_boats_4.png","stimuli/stim023_inanimate_tools_3.png","stimuli/stim012_animate_face_4.png","227"
"html-button-response-mod","236","807760","0.0-236.0","73166","","","","","","triplet","3311.600000143051","","","","1","stimuli/stim008_animate_bird_4.png","stimuli/boats_lowercase.png","stimuli/stim002_animate_fish_2.png","228"
"html-button-response-mod","237","809484","0.0-237.0","73166","","","","","","triplet","1221","","","","0","stimuli/tools_uppercase.png","stimuli/fish_uppercase.png","stimuli/face_lowercase.png","229"
"html-button-response-mod","238","811128","0.0-238.0","73166","","","","","","triplet","1139.2999999523163","","","","2","stimuli/stim021_inanimate_tools_1.png","stimuli/stim023_inanimate_tools_3.png","stimuli/face_uppercase.png","230"
"html-button-response-mod","239","813282","0.0-239.0","73166","","","","","","triplet","1648","","","","0","stimuli/stim023_inanimate_tools_3.png","stimuli/tree_lowercase.png","stimuli/stim007_animate_bird_3.png","231"
"html-button-response-mod","240","817683","0.0-240.0","73166","","","","","","triplet","3896.7999999523163","","","","2","stimuli/bird_uppercase.png","stimuli/stim007_animate_bird_3.png","stimuli/boats_lowercase.png","232"
"html-button-response-mod","241","820037","0.0-241.0","73166","","","","","","triplet","1851.6999998092651","","","","1","stimuli/stim001_animate_fish_1.png","stimuli/stim014_inanimate_boats_2.png","stimuli/tree_lowercase.png","233"
"html-button-response-mod","242","822892","0.0-242.0","73166","","","","","","triplet","2352.899999856949","","","","2","stimuli/stim006_animate_bird_2.png","stimuli/stim001_animate_fish_1.png","stimuli/stim020_inanimate_tree_4.png","234"
"html-button-response-mod","243","829330","0.0-243.0","73166","","","","","","triplet","5935.400000095367","","","","1","stimuli/face_lowercase.png","stimuli/tree_lowercase.png","stimuli/stim001_animate_fish_1.png","235"
"html-button-response-mod","244","837441","0.0-244.0","73166","","","","","","triplet","7605.900000095367","","","","0","stimuli/stim022_inanimate_tools_2.png","stimuli/bird_uppercase.png","stimuli/bird_lowercase.png","236"
"html-button-response-mod","245","840952","0.0-245.0","73166","","","","","","triplet","3008.0999999046326","","","","2","stimuli/stim018_inanimate_tree_2.png","stimuli/stim004_animate_fish_4.png","stimuli/stim009_animate_face_1.png","237"
"html-button-response-mod","246","842630","0.0-246.0","73166","","","","","","triplet","1176.7000000476837","","","","2","stimuli/stim017_inanimate_tree_1.png","stimuli/stim018_inanimate_tree_2.png","stimuli/stim001_animate_fish_1.png","238"
"html-button-response-mod","247","845613","0.0-247.0","73166","","","","","","triplet","2481","","","","2","stimuli/stim004_animate_fish_4.png","stimuli/stim006_animate_bird_2.png","stimuli/stim017_inanimate_tree_1.png","239"
"html-button-response-mod","248","847581","0.0-248.0","73166","","","","","","triplet","1465.2000000476837","","","","2","stimuli/stim020_inanimate_tree_4.png","stimuli/stim003_animate_fish_3.png","stimuli/stim021_inanimate_tools_1.png","240"
"html-button-response-mod","249","855302","0.0-249.0","73166","","","","","","triplet","7215.5","","","","1","stimuli/stim014_inanimate_boats_2.png","stimuli/stim008_animate_bird_4.png","stimuli/tools_lowercase.png","241"
"html-button-response-mod","250","858995","0.0-250.0","73166","","","","","","triplet","3188.2999999523163","","","","2","stimuli/tree_uppercase.png","stimuli/stim008_animate_bird_4.png","stimuli/tools_lowercase.png","242"
"html-button-response-mod","251","860987","0.0-251.0","73166","","","","","","triplet","1486.8999998569489","","","","2","stimuli/fish_uppercase.png","stimuli/tree_lowercase.png","stimuli/stim022_inanimate_tools_2.png","243"
"html-button-response-mod","252","863510","0.0-252.0","73166","","","","","","triplet","2021.1999998092651","","","","2","stimuli/stim009_animate_face_1.png","stimuli/stim016_inanimate_boats_4.png","stimuli/tools_uppercase.png","244"
"html-button-response-mod","253","865946","0.0-253.0","73166","","","","","","triplet","1934.7000000476837","","","","2","stimuli/stim018_inanimate_tree_2.png","stimuli/fish_uppercase.png","stimuli/face_uppercase.png","245"
"html-button-response-mod","254","868324","0.0-254.0","73166","","","","","","triplet","1874.7000000476837","","","","0","stimuli/stim008_animate_bird_4.png","stimuli/stim003_animate_fish_3.png","stimuli/boats_lowercase.png","246"
"html-button-response-mod","255","870913","0.0-255.0","73166","","","","","","triplet","2085.5","","","","0","stimuli/tree_lowercase.png","stimuli/stim003_animate_fish_3.png","stimuli/fish_uppercase.png","247"
"html-button-response-mod","256","872630","0.0-256.0","73166","","","","","","triplet","1213.7999999523163","","","","0","stimuli/stim024_inanimate_tools_4.png","stimuli/stim019_inanimate_tree_3.png","stimuli/stim016_inanimate_boats_4.png","248"
"html-button-response-mod","257","874324","0.0-257.0","73166","","","","","","triplet","1187.7999999523163","","","","2","stimuli/stim016_inanimate_boats_4.png","stimuli/stim018_inanimate_tree_2.png","stimuli/stim011_animate_face_3.png","249"
"html-button-response","258","875953","0.0-258.0","73166","","","","","","break","1124.5999999046326","<p>BREAK</p><p>Take a break for as long as you need</p><p>Click the button to continue</p>","0","","","","","",""
"html-button-response-mod","259","877025","0.0-259.0","73166","","","","","","triplet","1070.7000000476837","","","","2","stimuli/stim018_inanimate_tree_2.png","stimuli/stim017_inanimate_tree_1.png","stimuli/stim016_inanimate_boats_4.png","250"
"html-button-response-mod","260","879700","0.0-260.0","73166","","","","","","triplet","2173.899999856949","","","","0","stimuli/stim011_animate_face_3.png","stimuli/tools_uppercase.png","stimuli/stim024_inanimate_tools_4.png","251"
"html-button-response-mod","261","900304","0.0-261.0","73166","","","","","","triplet","20099.700000047684","","","","1","stimuli/tree_uppercase.png","stimuli/stim015_inanimate_boats_3.png","stimuli/fish_uppercase.png","252"
"html-button-response-mod","262","907233","0.0-262.0","73166","","","","","","triplet","6423.5","","","","0","stimuli/boats_uppercase.png","stimuli/stim002_animate_fish_2.png","stimuli/stim004_animate_fish_4.png","253"
"html-button-response-mod","263","909588","0.0-263.0","73166","","","","","","triplet","1849.9000000953674","","","","0","stimuli/stim013_inanimate_boats_1.png","stimuli/stim019_inanimate_tree_3.png","stimuli/stim007_animate_bird_3.png","254"
"html-button-response-mod","264","912684","0.0-264.0","73166","","","","","","triplet","2593.2000000476837","","","","1","stimuli/stim003_animate_fish_3.png","stimuli/tools_uppercase.png","stimuli/fish_uppercase.png","255"
"html-button-response-mod","265","916104","0.0-265.0","73166","","","","","","triplet","2917.300000190735","","","","0","stimuli/boats_lowercase.png","stimuli/stim010_animate_face_2.png","stimuli/bird_uppercase.png","256"
"html-button-response-mod","266","918669","0.0-266.0","73166","","","","","","triplet","2061.7000000476837","","","","1","stimuli/stim017_inanimate_tree_1.png","stimuli/stim003_animate_fish_3.png","stimuli/stim018_inanimate_tree_2.png","257"
"html-button-response-mod","267","920741","0.0-267.0","73166","","","","","","triplet","1568.5","","","","0","stimuli/tree_uppercase.png","stimuli/face_uppercase.png","stimuli/face_lowercase.png","258"
"html-button-response-mod","268","922314","0.0-268.0","73166","","","","","","triplet","1070.1000001430511","","","","2","stimuli/tools_uppercase.png","stimuli/tools_lowercase.png","stimuli/stim020_inanimate_tree_4.png","259"
"html-button-response-mod","269","924410","0.0-269.0","73166","","","","","","triplet","1592.1999998092651","","","","1","stimuli/tree_lowercase.png","stimuli/bird_uppercase.png","stimuli/stim017_inanimate_tree_1.png","260"
"html-button-response-mod","270","925797","0.0-270.0","73166","","","","","","triplet","883.5","","","","2","stimuli/tree_lowercase.png","stimuli/stim018_inanimate_tree_2.png","stimuli/stim010_animate_face_2.png","261"
"html-button-response-mod","271","928395","0.0-271.0","73166","","","","","","triplet","2096.0999999046326","","","","1","stimuli/stim015_inanimate_boats_3.png","stimuli/stim017_inanimate_tree_1.png","stimuli/stim024_inanimate_tools_4.png","262"
"html-button-response-mod","272","930185","0.0-272.0","73166","","","","","","triplet","1286.8999998569489","","","","2","stimuli/stim007_animate_bird_3.png","stimuli/bird_uppercase.png","stimuli/stim018_inanimate_tree_2.png","263"
"html-button-response-mod","273","931734","0.0-273.0","73166","","","","","","triplet","1046.3999998569489","","","","1","stimuli/stim009_animate_face_1.png","stimuli/tools_uppercase.png","stimuli/stim011_animate_face_3.png","264"
"html-button-response-mod","274","933531","0.0-274.0","73166","","","","","","triplet","1295.5","","","","0","stimuli/stim022_inanimate_tools_2.png","stimuli/bird_uppercase.png","stimuli/stim003_animate_fish_3.png","265"
"html-button-response-mod","275","935273","0.0-275.0","73166","","","","","","triplet","1239.8999998569489","","","","2","stimuli/boats_lowercase.png","stimuli/stim014_inanimate_boats_2.png","stimuli/stim011_animate_face_3.png","266"
"html-button-response-mod","276","936522","0.0-276.0","73166","","","","","","triplet","745.2999999523163","","","","2","stimuli/stim004_animate_fish_4.png","stimuli/stim002_animate_fish_2.png","stimuli/fish_lowercase.png","267"
"html-button-response-mod","277","938256","0.0-277.0","73166","","","","","","triplet","1231.1000001430511","","","","2","stimuli/stim008_animate_bird_4.png","stimuli/stim004_animate_fish_4.png","stimuli/tree_uppercase.png","268"
"html-button-response-mod","278","941111","0.0-278.0","73166","","","","","","triplet","2349.5","","","","1","stimuli/stim009_animate_face_1.png","stimuli/tools_uppercase.png","stimuli/tree_lowercase.png","269"
"html-button-response-mod","279","943118","0.0-279.0","73166","","","","","","triplet","1504.6000001430511","","","","2","stimuli/stim008_animate_bird_4.png","stimuli/stim019_inanimate_tree_3.png","stimuli/stim013_inanimate_boats_1.png","270"
"html-button-response-mod","280","945627","0.0-280.0","73166","","","","","","triplet","2007.2999999523163","","","","0","stimuli/bird_uppercase.png","stimuli/stim022_inanimate_tools_2.png","stimuli/stim014_inanimate_boats_2.png","271"
"html-button-response-mod","281","948683","0.0-281.0","73166","","","","","","triplet","2554.699999809265","","","","2","stimuli/tree_uppercase.png","stimuli/stim006_animate_bird_2.png","stimuli/boats_uppercase.png","272"
"html-button-response-mod","282","950650","0.0-282.0","73166","","","","","","triplet","1462.7999999523163","","","","1","stimuli/boats_uppercase.png","stimuli/stim022_inanimate_tools_2.png","stimuli/stim011_animate_face_3.png","273"
"html-button-response-mod","283","955327","0.0-283.0","73166","","","","","","triplet","4176.700000047684","","","","0","stimuli/face_lowercase.png","stimuli/bird_lowercase.png","stimuli/fish_uppercase.png","274"
"html-button-response-mod","284","957642","0.0-284.0","73166","","","","","","triplet","1812","","","","2","stimuli/stim014_inanimate_boats_2.png","stimuli/stim024_inanimate_tools_4.png","stimuli/fish_uppercase.png","275"
"html-button-response-mod","285","959828","0.0-285.0","73166","","","","","","triplet","1683","","","","2","stimuli/face_lowercase.png","stimuli/stim012_animate_face_4.png","stimuli/bird_uppercase.png","276"
"html-button-response-mod","286","962312","0.0-286.0","73166","","","","","","triplet","1978.2000000476837","","","","2","stimuli/stim016_inanimate_boats_4.png","stimuli/tools_uppercase.png","stimuli/bird_lowercase.png","277"
"html-button-response-mod","287","967310","0.0-287.0","73166","","","","","","triplet","4494.399999856949","","","","1","stimuli/stim009_animate_face_1.png","stimuli/stim001_animate_fish_1.png","stimuli/stim024_inanimate_tools_4.png","278"
"html-button-response-mod","288","969059","0.0-288.0","73166","","","","","","triplet","1245.9000000953674","","","","0","stimuli/stim021_inanimate_tools_1.png","stimuli/bird_lowercase.png","stimuli/stim018_inanimate_tree_2.png","279"
"html-button-response-mod","289","973649","0.0-289.0","73166","","","","","","triplet","4086.5999999046326","","","","1","stimuli/stim013_inanimate_boats_1.png","stimuli/face_lowercase.png","stimuli/stim020_inanimate_tree_4.png","280"
"html-button-response-mod","290","975357","0.0-290.0","73166","","","","","","triplet","1206.3999998569489","","","","0","stimuli/fish_uppercase.png","stimuli/stim008_animate_bird_4.png","stimuli/stim002_animate_fish_2.png","281"
"html-button-response-mod","291","978011","0.0-291.0","73166","","","","","","triplet","2151.2000000476837","","","","0","stimuli/stim001_animate_fish_1.png","stimuli/stim016_inanimate_boats_4.png","stimuli/boats_lowercase.png","282"
"html-button-response-mod","292","979865","0.0-292.0","73166","","","","","","triplet","1349","","","","2","stimuli/stim022_inanimate_tools_2.png","stimuli/stim024_inanimate_tools_4.png","stimuli/tools_uppercase.png","283"
"html-button-response-mod","293","981703","0.0-293.0","73166","","","","","","triplet","1334.1000001430511","","","","2","stimuli/stim002_animate_fish_2.png","stimuli/bird_lowercase.png","stimuli/stim014_inanimate_boats_2.png","284"
"html-button-response-mod","294","983171","0.0-294.0","73166","","","","","","triplet","965.6000001430511","","","","0","stimuli/stim014_inanimate_boats_2.png","stimuli/stim002_animate_fish_2.png","stimuli/stim013_inanimate_boats_1.png","285"
"html-button-response-mod","295","985251","0.0-295.0","73166","","","","","","triplet","1575.9000000953674","","","","2","stimuli/stim011_animate_face_3.png","stimuli/stim020_inanimate_tree_4.png","stimuli/stim023_inanimate_tools_3.png","286"
"html-button-response-mod","296","987605","0.0-296.0","73166","","","","","","triplet","1850.5999999046326","","","","0","stimuli/stim015_inanimate_boats_3.png","stimuli/stim009_animate_face_1.png","stimuli/tools_lowercase.png","287"
"html-button-response-mod","297","990266","0.0-297.0","73166","","","","","","triplet","2157.5","","","","1","stimuli/stim009_animate_face_1.png","stimuli/stim024_inanimate_tools_4.png","stimuli/stim017_inanimate_tree_1.png","288"
"html-button-response-mod","298","992290","0.0-298.0","73166","","","","","","triplet","1520.5999999046326","","","","2","stimuli/stim023_inanimate_tools_3.png","stimuli/stim014_inanimate_boats_2.png","stimuli/stim012_animate_face_4.png","289"
"html-button-response-mod","299","994773","0.0-299.0","73166","","","","","","triplet","1980.9000000953674","","","","1","stimuli/stim018_inanimate_tree_2.png","stimuli/stim023_inanimate_tools_3.png","stimuli/bird_uppercase.png","290"
"html-button-response-mod","300","996563","0.0-300.0","73166","","","","","","triplet","1288.2999999523163","","","","2","stimuli/stim021_inanimate_tools_1.png","stimuli/stim023_inanimate_tools_3.png","stimuli/stim011_animate_face_3.png","291"
"html-button-response-mod","301","998652","0.0-301.0","73166","","","","","","triplet","1583.5","","","","0","stimuli/tools_uppercase.png","stimuli/bird_lowercase.png","stimuli/stim005_animate_bird_1.png","292"
"html-button-response-mod","302","1001020","0.0-302.0","73166","","","","","","triplet","1865.1000001430511","","","","0","stimuli/fish_uppercase.png","stimuli/stim014_inanimate_boats_2.png","stimuli/stim013_inanimate_boats_1.png","293"
"html-button-response-mod","303","1003713","0.0-303.0","73166","","","","","","triplet","2190.5","","","","1","stimuli/bird_uppercase.png","stimuli/stim015_inanimate_boats_3.png","stimuli/fish_lowercase.png","294"
"html-button-response-mod","304","1007615","0.0-304.0","73166","","","","","","triplet","3398.100000143051","","","","2","stimuli/boats_uppercase.png","stimuli/stim019_inanimate_tree_3.png","stimuli/stim003_animate_fish_3.png","295"
"html-button-response-mod","305","1009494","0.0-305.0","73166","","","","","","triplet","1374.2000000476837","","","","0","stimuli/stim010_animate_face_2.png","stimuli/stim024_inanimate_tools_4.png","stimuli/boats_lowercase.png","296"
"html-button-response-mod","306","1011020","0.0-306.0","73166","","","","","","triplet","1022.1999998092651","","","","2","stimuli/stim020_inanimate_tree_4.png","stimuli/stim007_animate_bird_3.png","stimuli/stim010_animate_face_2.png","297"
"html-button-response-mod","307","1013848","0.0-307.0","73166","","","","","","triplet","2322.9000000953674","","","","1","stimuli/stim023_inanimate_tools_3.png","stimuli/stim006_animate_bird_2.png","stimuli/boats_lowercase.png","298"
"html-button-response-mod","308","1015887","0.0-308.0","73166","","","","","","triplet","1533.7000000476837","","","","1","stimuli/stim014_inanimate_boats_2.png","stimuli/stim002_animate_fish_2.png","stimuli/boats_lowercase.png","299"
"html-button-response","309","1017137","0.0-309.0","73166","","","","","","break","748.0999999046326","<p>BREAK</p><p>Take a break for as long as you need</p><p>Click the button to continue</p>","0","","","","","",""
"html-button-response-mod","310","1022402","0.0-310.0","73166","","","","","","triplet","5262.799999952316","","","","1","stimuli/tree_lowercase.png","stimuli/stim022_inanimate_tools_2.png","stimuli/face_lowercase.png","300"
"html-button-response-mod","311","1023942","0.0-311.0","73166","","","","","","triplet","1037.2000000476837","","","","2","stimuli/face_lowercase.png","stimuli/tree_lowercase.png","stimuli/stim002_animate_fish_2.png","301"
"html-button-response-mod","312","1029037","0.0-312.0","73166","","","","","","triplet","4591.900000095367","","","","1","stimuli/fish_uppercase.png","stimuli/stim018_inanimate_tree_2.png","stimuli/face_lowercase.png","302"
"html-button-response-mod","313","1030963","0.0-313.0","73166","","","","","","triplet","1424.2000000476837","","","","2","stimuli/tree_lowercase.png","stimuli/stim017_inanimate_tree_1.png","stimuli/fish_lowercase.png","303"
"html-button-response-mod","314","1034568","0.0-314.0","73166","","","","","","triplet","3102.7000000476837","","","","0","stimuli/stim018_inanimate_tree_2.png","stimuli/stim012_animate_face_4.png","stimuli/boats_lowercase.png","304"
"html-button-response-mod","315","1038163","0.0-315.0","73166","","","","","","triplet","3093.399999856949","","","","1","stimuli/stim008_animate_bird_4.png","stimuli/stim018_inanimate_tree_2.png","stimuli/stim002_animate_fish_2.png","305"
"html-button-response-mod","316","1040162","0.0-316.0","73166","","","","","","triplet","1495.3000001907349","","","","1","stimuli/bird_lowercase.png","stimuli/tools_lowercase.png","stimuli/fish_lowercase.png","306"
"html-button-response-mod","317","1041920","0.0-317.0","73166","","","","","","triplet","1252.9000000953674","","","","2","stimuli/stim015_inanimate_boats_3.png","stimuli/tools_uppercase.png","stimuli/stim002_animate_fish_2.png","307"
"html-button-response-mod","318","1043363","0.0-318.0","73166","","","","","","triplet","939.2999999523163","","","","0","stimuli/stim010_animate_face_2.png","stimuli/stim003_animate_fish_3.png","stimuli/stim001_animate_fish_1.png","308"
"html-button-response-mod","319","1048359","0.0-319.0","73166","","","","","","triplet","4494","","","","2","stimuli/stim004_animate_fish_4.png","stimuli/stim020_inanimate_tree_4.png","stimuli/stim021_inanimate_tools_1.png","309"
"html-button-response-mod","320","1050885","0.0-320.0","73166","","","","","","triplet","2021.5","","","","1","stimuli/stim005_animate_bird_1.png","stimuli/stim010_animate_face_2.png","stimuli/stim004_animate_fish_4.png","310"
"html-button-response-mod","321","1053296","0.0-321.0","73166","","","","","","triplet","1909.1000001430511","","","","1","stimuli/face_lowercase.png","stimuli/stim012_animate_face_4.png","stimuli/face_uppercase.png","311"
"html-button-response-mod","322","1055674","0.0-322.0","73166","","","","","","triplet","1875.0999999046326","","","","0","stimuli/face_uppercase.png","stimuli/stim019_inanimate_tree_3.png","stimuli/stim007_animate_bird_3.png","312"
"html-button-response-mod","323","1057359","0.0-323.0","73166","","","","","","triplet","1179.9000000953674","","","","2","stimuli/stim014_inanimate_boats_2.png","stimuli/stim016_inanimate_boats_4.png","stimuli/tools_lowercase.png","313"
"html-button-response-mod","324","1058908","0.0-324.0","73166","","","","","","triplet","1044.2999999523163","","","","2","stimuli/stim012_animate_face_4.png","stimuli/stim010_animate_face_2.png","stimuli/stim014_inanimate_boats_2.png","314"
"html-button-response-mod","325","1061287","0.0-325.0","73166","","","","","","triplet","1873.7000000476837","","","","2","stimuli/stim013_inanimate_boats_1.png","stimuli/stim022_inanimate_tools_2.png","stimuli/stim002_animate_fish_2.png","315"
"html-button-response-mod","326","1065969","0.0-326.0","73166","","","","","","triplet","4179.099999904633","","","","2","stimuli/stim019_inanimate_tree_3.png","stimuli/stim011_animate_face_3.png","stimuli/tools_uppercase.png","316"
"html-button-response-mod","327","1067800","0.0-327.0","73166","","","","","","triplet","1329.8000001907349","","","","0","stimuli/tools_uppercase.png","stimuli/stim009_animate_face_1.png","stimuli/stim017_inanimate_tree_1.png","317"
"html-button-response-mod","328","1069421","0.0-328.0","73166","","","","","","triplet","1118.7999999523163","","","","2","stimuli/stim007_animate_bird_3.png","stimuli/stim001_animate_fish_1.png","stimuli/stim014_inanimate_boats_2.png","318"
"html-button-response-mod","329","1072810","0.0-329.0","73166","","","","","","triplet","2883.600000143051","","","","2","stimuli/boats_lowercase.png","stimuli/fish_lowercase.png","stimuli/stim012_animate_face_4.png","319"
"html-button-response-mod","330","1074823","0.0-330.0","73166","","","","","","triplet","1509.9000000953674","","","","2","stimuli/fish_lowercase.png","stimuli/boats_lowercase.png","stimuli/face_uppercase.png","320"
"html-button-response-mod","331","1077985","0.0-331.0","73166","","","","","","triplet","2657.2999999523163","","","","2","stimuli/stim014_inanimate_boats_2.png","stimuli/stim018_inanimate_tree_2.png","stimuli/tools_lowercase.png","321"
"html-button-response-mod","332","1079072","0.0-332.0","73166","","","","","","triplet","582.5999999046326","","","","0","stimuli/tools_uppercase.png","stimuli/stim010_animate_face_2.png","stimuli/stim023_inanimate_tools_3.png","322"
"html-button-response-mod","333","1079960","0.0-333.0","73166","","","","","","triplet","385.90000009536743","","","","2","stimuli/stim006_animate_bird_2.png","stimuli/tools_lowercase.png","stimuli/stim002_animate_fish_2.png","323"
"html-button-response-mod","334","1080822","0.0-334.0","73166","","","","","","triplet","361.2000000476837","","","","0","stimuli/stim015_inanimate_boats_3.png","stimuli/stim016_inanimate_boats_4.png","stimuli/stim017_inanimate_tree_1.png","324"
"html-button-response-mod","335","1081613","0.0-335.0","73166","","","","","","triplet","288.59999990463257","","","","1","stimuli/stim018_inanimate_tree_2.png","stimuli/stim020_inanimate_tree_4.png","stimuli/stim021_inanimate_tools_1.png","325"
"html-button-response-mod","336","1082516","0.0-336.0","73166","","","","","","triplet","401","","","","0","stimuli/stim022_inanimate_tools_2.png","stimuli/stim018_inanimate_tree_2.png","stimuli/stim007_animate_bird_3.png","326"
"html-button-response-mod","337","1084112","0.0-337.0","73166","","","","","","triplet","1092.7000000476837","","","","2","stimuli/fish_uppercase.png","stimuli/stim001_animate_fish_1.png","stimuli/stim019_inanimate_tree_3.png","327"
"html-button-response-mod","338","1086684","0.0-338.0","73166","","","","","","triplet","2071.399999856949","","","","1","stimuli/stim005_animate_bird_1.png","stimuli/stim024_inanimate_tools_4.png","stimuli/fish_lowercase.png","328"
"html-button-response-mod","339","1088183","0.0-339.0","73166","","","","","","triplet","995","","","","0","stimuli/stim009_animate_face_1.png","stimuli/stim022_inanimate_tools_2.png","stimuli/stim002_animate_fish_2.png","329"
"html-button-response-mod","340","1090408","0.0-340.0","73166","","","","","","triplet","1721.7999999523163","","","","2","stimuli/stim015_inanimate_boats_3.png","stimuli/tree_lowercase.png","stimuli/stim010_animate_face_2.png","330"
"html-button-response-mod","341","1092376","0.0-341.0","73166","","","","","","triplet","1463.7999999523163","","","","1","stimuli/stim011_animate_face_3.png","stimuli/bird_lowercase.png","stimuli/face_lowercase.png","331"
"html-button-response-mod","342","1094713","0.0-342.0","73166","","","","","","triplet","1835.0999999046326","","","","0","stimuli/tools_uppercase.png","stimuli/stim003_animate_fish_3.png","stimuli/stim008_animate_bird_4.png","332"
"html-button-response-mod","343","1096689","0.0-343.0","73166","","","","","","triplet","1473.3999998569489","","","","0","stimuli/stim002_animate_fish_2.png","stimuli/boats_uppercase.png","stimuli/stim015_inanimate_boats_3.png","333"
"html-button-response-mod","344","1098921","0.0-344.0","73166","","","","","","triplet","1731","","","","1","stimuli/boats_uppercase.png","stimuli/stim007_animate_bird_3.png","stimuli/tools_lowercase.png","334"
"html-button-response-mod","345","1100968","0.0-345.0","73166","","","","","","triplet","1543","","","","0","stimuli/stim016_inanimate_boats_4.png","stimuli/stim002_animate_fish_2.png","stimuli/tree_lowercase.png","335"
"html-button-response-mod","346","1103692","0.0-346.0","73166","","","","","","triplet","2220.4000000953674","","","","0","stimuli/stim002_animate_fish_2.png","stimuli/stim015_inanimate_boats_3.png","stimuli/stim010_animate_face_2.png","336"
"html-button-response-mod","347","1105450","0.0-347.0","73166","","","","","","triplet","1253.8999998569489","","","","1","stimuli/tools_uppercase.png","stimuli/stim012_animate_face_4.png","stimuli/boats_lowercase.png","337"
"html-button-response-mod","348","1107602","0.0-348.0","73166","","","","","","triplet","1648.8000001907349","","","","0","stimuli/stim023_inanimate_tools_3.png","stimuli/stim010_animate_face_2.png","stimuli/tree_lowercase.png","338"
"html-button-response-mod","349","1109053","0.0-349.0","73166","","","","","","triplet","947","","","","0","stimuli/stim021_inanimate_tools_1.png","stimuli/stim001_animate_fish_1.png","stimuli/stim005_animate_bird_1.png","339"
"html-button-response-mod","350","1111358","0.0-350.0","73166","","","","","","triplet","1803.2999999523163","","","","2","stimuli/stim010_animate_face_2.png","stimuli/stim019_inanimate_tree_3.png","stimuli/stim023_inanimate_tools_3.png","340"
"html-button-response-mod","351","1112962","0.0-351.0","73166","","","","","","triplet","1098.7000000476837","","","","2","stimuli/stim011_animate_face_3.png","stimuli/stim012_animate_face_4.png","stimuli/stim019_inanimate_tree_3.png","341"
"html-button-response-mod","352","1114808","0.0-352.0","73166","","","","","","triplet","1341.6000001430511","","","","1","stimuli/tree_uppercase.png","stimuli/stim022_inanimate_tools_2.png","stimuli/stim014_inanimate_boats_2.png","342"
"html-button-response-mod","353","1116686","0.0-353.0","73166","","","","","","triplet","1376.7999999523163","","","","0","stimuli/stim009_animate_face_1.png","stimuli/fish_lowercase.png","stimuli/stim001_animate_fish_1.png","343"
"html-button-response-mod","354","1118572","0.0-354.0","73166","","","","","","triplet","1383.8000001907349","","","","1","stimuli/stim011_animate_face_3.png","stimuli/stim020_inanimate_tree_4.png","stimuli/stim010_animate_face_2.png","344"
"html-button-response-mod","355","1121506","0.0-355.0","73166","","","","","","triplet","2428.4000000953674","","","","0","stimuli/stim012_animate_face_4.png","stimuli/stim020_inanimate_tree_4.png","stimuli/stim021_inanimate_tools_1.png","345"
"html-button-response-mod","356","1123327","0.0-356.0","73166","","","","","","triplet","1320.2000000476837","","","","1","stimuli/stim022_inanimate_tools_2.png","stimuli/stim017_inanimate_tree_1.png","stimuli/tools_lowercase.png","346"
"html-button-response-mod","357","1124730","0.0-357.0","73166","","","","","","triplet","901.1000001430511","","","","1","stimuli/boats_uppercase.png","stimuli/stim008_animate_bird_4.png","stimuli/stim013_inanimate_boats_1.png","347"
"html-button-response-mod","358","1126455","0.0-358.0","73166","","","","","","triplet","1222.4000000953674","","","","1","stimuli/fish_lowercase.png","stimuli/stim020_inanimate_tree_4.png","stimuli/stim004_animate_fish_4.png","348"
"html-button-response-mod","359","1128188","0.0-359.0","73166","","","","","","triplet","1229.5999999046326","","","","1","stimuli/stim007_animate_bird_3.png","stimuli/stim009_animate_face_1.png","stimuli/stim001_animate_fish_1.png","349"
"html-button-response","360","1129398","0.0-360.0","73166","","","","","","break","705.7999999523163","<p>BREAK</p><p>Take a break for as long as you need</p><p>Click the button to continue</p>","0","","","","","",""
"html-button-response-mod","361","1130598","0.0-361.0","73166","","","","","","triplet","1198.5999999046326","","","","0","stimuli/stim012_animate_face_4.png","stimuli/stim017_inanimate_tree_1.png","stimuli/stim008_animate_bird_4.png","350"
"html-button-response-mod","362","1132048","0.0-362.0","73166","","","","","","triplet","946.2000000476837","","","","2","stimuli/stim008_animate_bird_4.png","stimuli/stim017_inanimate_tree_1.png","stimuli/fish_uppercase.png","351"
"html-button-response-mod","363","1133515","0.0-363.0","73166","","","","","","triplet","964.7000000476837","","","","1","stimuli/bird_lowercase.png","stimuli/stim021_inanimate_tools_1.png","stimuli/stim007_animate_bird_3.png","352"
"html-button-response-mod","364","1135353","0.0-364.0","73166","","","","","","triplet","1335.0999999046326","","","","0","stimuli/face_uppercase.png","stimuli/stim012_animate_face_4.png","stimuli/stim011_animate_face_3.png","353"
"html-button-response-mod","365","1137546","0.0-365.0","73166","","","","","","triplet","1689.5999999046326","","","","2","stimuli/stim007_animate_bird_3.png","stimuli/bird_lowercase.png","stimuli/tree_lowercase.png","354"
"html-button-response-mod","366","1139343","0.0-366.0","73166","","","","","","triplet","1295","","","","1","stimuli/stim023_inanimate_tools_3.png","stimuli/tools_uppercase.png","stimuli/stim024_inanimate_tools_4.png","355"
"html-button-response-mod","367","1141553","0.0-367.0","73166","","","","","","triplet","1707.5","","","","2","stimuli/stim019_inanimate_tree_3.png","stimuli/tree_uppercase.png","stimuli/stim022_inanimate_tools_2.png","356"
"html-button-response-mod","368","1143231","0.0-368.0","73166","","","","","","triplet","1176.2999999523163","","","","1","stimuli/stim009_animate_face_1.png","stimuli/boats_uppercase.png","stimuli/stim010_animate_face_2.png","357"
"html-button-response-mod","369","1144852","0.0-369.0","73166","","","","","","triplet","1115.7000000476837","","","","2","stimuli/stim005_animate_bird_1.png","stimuli/stim007_animate_bird_3.png","stimuli/stim011_animate_face_3.png","358"
"html-button-response-mod","370","1146156","0.0-370.0","73166","","","","","","triplet","801.1000001430511","","","","2","stimuli/stim019_inanimate_tree_3.png","stimuli/stim017_inanimate_tree_1.png","stimuli/stim009_animate_face_1.png","359"
"html-button-response-mod","371","1148952","0.0-371.0","73166","","","","","","triplet","2289.7999999523163","","","","1","stimuli/face_uppercase.png","stimuli/stim001_animate_fish_1.png","stimuli/stim020_inanimate_tree_4.png","360"
"html-button-response-mod","372","1151204","0.0-372.0","73166","","","","","","triplet","1749.0999999046326","","","","2","stimuli/stim007_animate_bird_3.png","stimuli/tree_lowercase.png","stimuli/stim022_inanimate_tools_2.png","361"
"html-button-response-mod","373","1153628","0.0-373.0","73166","","","","","","triplet","1920.5999999046326","","","","1","stimuli/stim013_inanimate_boats_1.png","stimuli/stim017_inanimate_tree_1.png","stimuli/fish_uppercase.png","362"
"html-button-response-mod","374","1155168","0.0-374.0","73166","","","","","","triplet","1037.7999999523163","","","","2","stimuli/stim003_animate_fish_3.png","stimuli/stim020_inanimate_tree_4.png","stimuli/stim009_animate_face_1.png","363"
"html-button-response-mod","375","1156875","0.0-375.0","73166","","","","","","triplet","1203","","","","1","stimuli/stim004_animate_fish_4.png","stimuli/tools_uppercase.png","stimuli/stim010_animate_face_2.png","364"
"html-button-response-mod","376","1158387","0.0-376.0","73166","","","","","","triplet","1006.4000000953674","","","","2","stimuli/stim008_animate_bird_4.png","stimuli/stim024_inanimate_tools_4.png","stimuli/stim011_animate_face_3.png","365"
"html-button-response-mod","377","1160665","0.0-377.0","73166","","","","","","triplet","1774.5","","","","0","stimuli/stim022_inanimate_tools_2.png","stimuli/stim021_inanimate_tools_1.png","stimuli/stim023_inanimate_tools_3.png","366"
"html-button-response-mod","378","1162843","0.0-378.0","73166","","","","","","triplet","1675.4000000953674","","","","0","stimuli/stim024_inanimate_tools_4.png","stimuli/stim004_animate_fish_4.png","stimuli/boats_lowercase.png","367"
"html-button-response-mod","379","1165074","0.0-379.0","73166","","","","","","triplet","1727","","","","0","stimuli/stim003_animate_fish_3.png","stimuli/stim016_inanimate_boats_4.png","stimuli/tools_uppercase.png","368"
"html-button-response-mod","380","1168085","0.0-380.0","73166","","","","","","triplet","2506.7999999523163","","","","1","stimuli/stim004_animate_fish_4.png","stimuli/stim011_animate_face_3.png","stimuli/stim003_animate_fish_3.png","369"
"html-button-response-mod","381","1170323","0.0-381.0","73166","","","","","","triplet","1734.9000000953674","","","","2","stimuli/tree_lowercase.png","stimuli/stim015_inanimate_boats_3.png","stimuli/stim003_animate_fish_3.png","370"
"html-button-response-mod","382","1173837","0.0-382.0","73166","","","","","","triplet","3010.699999809265","","","","1","stimuli/stim015_inanimate_boats_3.png","stimuli/stim004_animate_fish_4.png","stimuli/stim017_inanimate_tree_1.png","371"
"html-button-response-mod","383","1176359","0.0-383.0","73166","","","","","","triplet","2018.7999999523163","","","","0","stimuli/tree_lowercase.png","stimuli/face_uppercase.png","stimuli/stim002_animate_fish_2.png","372"
"html-button-response-mod","384","1178833","0.0-384.0","73166","","","","","","triplet","1968.6999998092651","","","","1","stimuli/tree_lowercase.png","stimuli/stim005_animate_bird_1.png","stimuli/stim018_inanimate_tree_2.png","373"
"html-button-response-mod","385","1180953","0.0-385.0","73166","","","","","","triplet","1616.2000000476837","","","","1","stimuli/fish_uppercase.png","stimuli/stim024_inanimate_tools_4.png","stimuli/stim011_animate_face_3.png","374"
"html-button-response-mod","386","1182532","0.0-386.0","73166","","","","","","triplet","1076.6999998092651","","","","2","stimuli/bird_uppercase.png","stimuli/stim006_animate_bird_2.png","stimuli/stim019_inanimate_tree_3.png","375"
"html-button-response-mod","387","1184379","0.0-387.0","73166","","","","","","triplet","1345.7999999523163","","","","0","stimuli/fish_uppercase.png","stimuli/stim011_animate_face_3.png","stimuli/stim009_animate_face_1.png","376"
"html-button-response-mod","388","1186813","0.0-388.0","73166","","","","","","triplet","1930.7999999523163","","","","2","stimuli/stim021_inanimate_tools_1.png","stimuli/stim016_inanimate_boats_4.png","stimuli/fish_lowercase.png","377"
"html-button-response-mod","389","1190634","0.0-389.0","73166","","","","","","triplet","3317.2999999523163","","","","1","stimuli/stim010_animate_face_2.png","stimuli/stim021_inanimate_tools_1.png","stimuli/tree_uppercase.png","378"
"html-button-response-mod","390","1193077","0.0-390.0","73166","","","","","","triplet","1938.7999999523163","","","","0","stimuli/stim014_inanimate_boats_2.png","stimuli/stim005_animate_bird_1.png","stimuli/stim002_animate_fish_2.png","379"
"html-button-response-mod","391","1195147","0.0-391.0","73166","","","","","","triplet","1568.2000000476837","","","","1","stimuli/stim005_animate_bird_1.png","stimuli/stim017_inanimate_tree_1.png","stimuli/stim008_animate_bird_4.png","380"
"html-button-response-mod","392","1198041","0.0-392.0","73166","","","","","","triplet","2390.699999809265","","","","2","stimuli/fish_uppercase.png","stimuli/stim003_animate_fish_3.png","stimuli/stim006_animate_bird_2.png","381"
"html-button-response-mod","393","1200104","0.0-393.0","73166","","","","","","triplet","1559.1000001430511","","","","2","stimuli/stim004_animate_fish_4.png","stimuli/bird_lowercase.png","stimuli/stim011_animate_face_3.png","382"
"html-button-response-mod","394","1203208","0.0-394.0","73166","","","","","","triplet","2600.600000143051","","","","2","stimuli/stim019_inanimate_tree_3.png","stimuli/stim004_animate_fish_4.png","stimuli/stim022_inanimate_tools_2.png","383"
"html-button-response-mod","395","1204789","0.0-395.0","73166","","","","","","triplet","1077.2999999523163","","","","0","stimuli/stim021_inanimate_tools_1.png","stimuli/stim007_animate_bird_3.png","stimuli/stim005_animate_bird_1.png","384"
"html-button-response-mod","396","1207680","0.0-396.0","73166","","","","","","triplet","2388.2999999523163","","","","2","stimuli/stim014_inanimate_boats_2.png","stimuli/stim013_inanimate_boats_1.png","stimuli/stim024_inanimate_tools_4.png","385"
"html-button-response-mod","397","1209857","0.0-397.0","73166","","","","","","triplet","1673.5999999046326","","","","1","stimuli/stim007_animate_bird_3.png","stimuli/tree_uppercase.png","stimuli/stim006_animate_bird_2.png","386"
"html-button-response-mod","398","1211670","0.0-398.0","73166","","","","","","triplet","1310.7000000476837","","","","0","stimuli/stim012_animate_face_4.png","stimuli/stim013_inanimate_boats_1.png","stimuli/fish_lowercase.png","387"
"html-button-response-mod","399","1213307","0.0-399.0","73166","","","","","","triplet","1132.6000001430511","","","","0","stimuli/stim015_inanimate_boats_3.png","stimuli/stim017_inanimate_tree_1.png","stimuli/stim018_inanimate_tree_2.png","388"
"html-button-response-mod","400","1215636","0.0-400.0","73166","","","","","","triplet","1827.6999998092651","","","","1","stimuli/stim007_animate_bird_3.png","stimuli/stim020_inanimate_tree_4.png","stimuli/stim004_animate_fish_4.png","389"
"html-button-response-mod","401","1217450","0.0-401.0","73166","","","","","","triplet","1310.7999999523163","","","","1","stimuli/stim012_animate_face_4.png","stimuli/stim021_inanimate_tools_1.png","stimuli/stim017_inanimate_tree_1.png","390"
"html-button-response-mod","402","1224657","0.0-402.0","73166","","","","","","triplet","6704.799999952316","","","","1","stimuli/bird_uppercase.png","stimuli/tools_uppercase.png","stimuli/boats_lowercase.png","391"
"html-button-response-mod","403","1229453","0.0-403.0","73166","","","","","","triplet","4292.5","","","","1","stimuli/tree_lowercase.png","stimuli/stim010_animate_face_2.png","stimuli/stim024_inanimate_tools_4.png","392"
"html-button-response-mod","404","1230807","0.0-404.0","73166","","","","","","triplet","851.9000000953674","","","","1","stimuli/stim007_animate_bird_3.png","stimuli/stim013_inanimate_boats_1.png","stimuli/stim001_animate_fish_1.png","393"
"html-button-response-mod","405","1233467","0.0-405.0","73166","","","","","","triplet","2158.600000143051","","","","0","stimuli/tools_uppercase.png","stimuli/face_uppercase.png","stimuli/stim018_inanimate_tree_2.png","394"
"html-button-response-mod","406","1235200","0.0-406.0","73166","","","","","","triplet","1230.5","","","","0","stimuli/stim009_animate_face_1.png","stimuli/stim016_inanimate_boats_4.png","stimuli/stim006_animate_bird_2.png","395"
"html-button-response-mod","407","1236909","0.0-407.0","73166","","","","","","triplet","1207.3000001907349","","","","2","stimuli/bird_uppercase.png","stimuli/stim017_inanimate_tree_1.png","stimuli/stim022_inanimate_tools_2.png","396"
"html-button-response-mod","408","1238369","0.0-408.0","73166","","","","","","triplet","954.2000000476837","","","","1","stimuli/stim014_inanimate_boats_2.png","stimuli/stim021_inanimate_tools_1.png","stimuli/stim013_inanimate_boats_1.png","397"
"html-button-response-mod","409","1240223","0.0-409.0","73166","","","","","","triplet","1351.5","","","","0","stimuli/stim014_inanimate_boats_2.png","stimuli/stim022_inanimate_tools_2.png","stimuli/stim021_inanimate_tools_1.png","398"
"html-button-response-mod","410","1241690","0.0-410.0","73166","","","","","","triplet","965.5999999046326","","","","1","stimuli/bird_lowercase.png","stimuli/stim019_inanimate_tree_3.png","stimuli/stim007_animate_bird_3.png","399"
"html-button-response","411","1242971","0.0-411.0","73166","","","","","","break","778.0999999046326","<p>BREAK</p><p>Take a break for as long as you need</p><p>Click the button to continue</p>","0","","","","","",""
"survey-text","412","1279976","0.0-412.0","73166","","","","","","data_patterns","36976.200000047684","","{""Q0"":""at first it was boat and fish made sense but then i realised fish and face because they  are both alive?""}","","","","","",""
"survey-text","413","1283224","0.0-413.0","73166","","","","","","age_question","3243.100000143051","","{""Age"":""19""}","","","","","",""
