"trial_type","trial_index","time_elapsed","internal_node_id","subject","success","timeout","failed_images","failed_audio","failed_video","test_part","rt","stimulus","response","end_time","button_pressed","stim0","stim1","stim2","trialnr"
"pavlovia","0","10","0.0-0.0","76167","","","","","","","","","","","","","","",""
"preload","1","859","0.0-1.0","76167","true","false","[]","[]","[]","preload","","","","","","","","",""
"html-button-response","2","30660","0.0-2.0","76167","","","","","","","29800.799999952316","<p>Welcome to the experiment. To begin, please read the following and press the button at the bottom of the screen.</p><p></p><p><strong>Project Name: A study on cognitive processes involved in visual perception</p></strong><p></p><p><strong>PARTICIPANT INFORMATION STATEMENT</strong></p><p></p><strong>(1) What is the study about?</strong><br>You are invited to participate in a study that investigates the cognitive processes involved in perceiving and recognizing visual stimuli.If you decide to participate, you will be asked to complete a task in which you will view pictures, letters, numbers, or words presented on a computer screen.<br><strong>(2) Who can participate?</strong><br>Anyone aged 18 years or over with access to a computer (not a phone/tablet)<br><strong>(3) Where is the study located?</strong><br>The study will be conducted in your browser<br><strong>(4) Who is carrying out the study?</strong><br>The study is being conducted by Sophia Shatek from the Computational Cognitive Neuroscience laboratory at the University of Sydney.<br><strong>(5) What does the study involve?</strong><br>In this study, you will be asked to perform tasks where you will see different stimuli appear on the computer screen.You will respond by pressing a key or using a computer mouse.<br><strong>(6) How much time will the study take?</strong><br>The study takes about 30 minutes<br><strong>(7)	Can I withdraw from the study?</strong><br>Being in this study is completely voluntary - you are not under any obligation to consent. You can withdraw at any time without having to give a reason and without penalty.<br><strong>(8) Will anyone else know the results?</strong><br>All aspects of the study, including results, will be strictly confidential and only the researchers will have access to information on participants.The results and data from the study may be submitted for publication or shared with other research labs, but individual participants will not be identifiable.<br><strong>(9) Will the study benefit me?</strong><br>You will be awarded 0.5 credits for your participation.<br><strong>(10) Can I tell other people about the study?</strong><br>Yes, please tell them to contact Dr Thomas Carlson by email at thomas.carlson@sydney.edu.au.<br><strong>(11) What if I require further information about the study or my involvement in it?</strong><br>When you have read this information, the investigator will discuss it with you further and answer any questions you may have.If you would like to know more at any stage, please feel free to contact Dr Thomas Carlson directly by email at thomas.carlson@sydney.edu.au.If you would like to be informed about the outcomes of the study, contact Dr Thomas Carlson directly by email at thomas.carlson@sydney.edu.au.<br><strong>(12) What if I have a complaint or any concerns?</strong><br>Any person with concerns or complaints about the conduct of a research study can contact The Manager,Human Ethics Administration, University of Sydney on +61 2 8627 8176 (Telephone); +61 2 8627 8177 (Facsimile) or ro.humanethics@sydney.edu.au (Email).</p><p></p><strong>By participating in this experiment, you consent to participate in this study and acknowledge that:</strong><br>1. The procedures required for the project and the times involved have been explained to me, and any questions I have about the project have been answered to my satisfaction.<br>2.	I have read the Above Information Statement and have been given the opportunity to discuss the information and my involvement in the project with the researcher/s.<br>3. I understand that allowing my data to be used in research reports is completely voluntary - I am not under any obligation to consent.<br>4. I understand that my involvement is strictly confidential. I understand that any research data gathered from the results of the study may be publishedhowever no information about me will be used in any way that is identifiable.</p><p></p>","0","","","","","",""
"html-button-response","3","55577","0.0-3.0","76167","","","","","","opening_instructions","24913.700000047684","<p>In this experiment, you will see three images appear on the screen.</p><p>You need to click the 'odd one out', or the image </p><p>that is MOST CONCEPTUALLY DIFFERENT to the other two. </p><p>(e.g., the word 'tree' and a picture of a tree are conceptually SIMILAR, </p><p> but the word 'tree' and the word 'boat' are conceptually DIFFERENT even though they look similar) </p><p>Just go with your intuition, don't spend too long thinking about each one.</p>","0","58972.200000047684","","","","",""
"html-button-response-mod","4","59426","0.0-4.0","76167","","","","","","triplet","3845.600000143051","","","","2","stimuli/tree_uppercase.png","stimuli/stim005_animate_bird_1.png","stimuli/stim016_inanimate_boats_4.png","0"
"html-button-response-mod","5","63593","0.0-5.0","76167","","","","","","triplet","3660.4000000953674","","","","1","stimuli/stim001_animate_fish_1.png","stimuli/stim017_inanimate_tree_1.png","stimuli/boats_uppercase.png","1"
"html-button-response-mod","6","68493","0.0-6.0","76167","","","","","","triplet","4393.399999856949","","","","1","stimuli/stim013_inanimate_boats_1.png","stimuli/stim012_animate_face_4.png","stimuli/stim021_inanimate_tools_1.png","2"
"html-button-response-mod","7","73626","0.0-7.0","76167","","","","","","triplet","4627","","","","1","stimuli/stim005_animate_bird_1.png","stimuli/stim024_inanimate_tools_4.png","stimuli/stim020_inanimate_tree_4.png","3"
"html-button-response-mod","8","78526","0.0-8.0","76167","","","","","","triplet","4396.599999904633","","","","1","stimuli/stim013_inanimate_boats_1.png","stimuli/tools_uppercase.png","stimuli/fish_lowercase.png","4"
"html-button-response-mod","9","83692","0.0-9.0","76167","","","","","","triplet","4659.099999904633","","","","1","stimuli/stim007_animate_bird_3.png","stimuli/stim022_inanimate_tools_2.png","stimuli/face_lowercase.png","5"
"html-button-response-mod","10","86159","0.0-10.0","76167","","","","","","triplet","1963.4000000953674","","","","0","stimuli/stim021_inanimate_tools_1.png","stimuli/stim004_animate_fish_4.png","stimuli/bird_uppercase.png","6"
"html-button-response-mod","11","93226","0.0-11.0","76167","","","","","","triplet","6563","","","","0","stimuli/stim005_animate_bird_1.png","stimuli/stim023_inanimate_tools_3.png","stimuli/tools_uppercase.png","7"
"html-button-response-mod","12","98008","0.0-12.0","76167","","","","","","triplet","4279","","","","2","stimuli/stim024_inanimate_tools_4.png","stimuli/stim023_inanimate_tools_3.png","stimuli/stim022_inanimate_tools_2.png","8"
"html-button-response-mod","13","101926","0.0-13.0","76167","","","","","","triplet","3413.2000000476837","","","","2","stimuli/stim016_inanimate_boats_4.png","stimuli/stim024_inanimate_tools_4.png","stimuli/bird_uppercase.png","9"
"html-button-response-mod","14","105792","0.0-14.0","76167","","","","","","triplet","3362.0999999046326","","","","2","stimuli/stim023_inanimate_tools_3.png","stimuli/stim013_inanimate_boats_1.png","stimuli/stim008_animate_bird_4.png","10"
"html-button-response-mod","15","108375","0.0-15.0","76167","","","","","","triplet","2077.7000000476837","","","","1","stimuli/stim021_inanimate_tools_1.png","stimuli/stim020_inanimate_tree_4.png","stimuli/tools_uppercase.png","11"
"html-button-response-mod","16","110641","0.0-16.0","76167","","","","","","triplet","1763.2000000476837","","","","1","stimuli/tree_lowercase.png","stimuli/stim013_inanimate_boats_1.png","stimuli/stim019_inanimate_tree_3.png","12"
"html-button-response-mod","17","114475","0.0-17.0","76167","","","","","","triplet","3330.4000000953674","","","","0","stimuli/stim022_inanimate_tools_2.png","stimuli/face_lowercase.png","stimuli/stim012_animate_face_4.png","13"
"html-button-response-mod","18","117892","0.0-18.0","76167","","","","","","triplet","2913.4000000953674","","","","1","stimuli/stim024_inanimate_tools_4.png","stimuli/stim003_animate_fish_3.png","stimuli/stim022_inanimate_tools_2.png","14"
"html-button-response-mod","19","125125","0.0-19.0","76167","","","","","","triplet","6730.200000047684","","","","0","stimuli/stim010_animate_face_2.png","stimuli/tools_lowercase.png","stimuli/stim013_inanimate_boats_1.png","15"
"html-button-response-mod","20","129092","0.0-20.0","76167","","","","","","triplet","3462.9000000953674","","","","2","stimuli/stim023_inanimate_tools_3.png","stimuli/stim016_inanimate_boats_4.png","stimuli/stim008_animate_bird_4.png","16"
"html-button-response-mod","21","132125","0.0-21.0","76167","","","","","","triplet","2525.899999856949","","","","0","stimuli/bird_lowercase.png","stimuli/stim013_inanimate_boats_1.png","stimuli/stim024_inanimate_tools_4.png","17"
"html-button-response-mod","22","135792","0.0-22.0","76167","","","","","","triplet","3161.2999999523163","","","","1","stimuli/face_uppercase.png","stimuli/stim023_inanimate_tools_3.png","stimuli/bird_uppercase.png","18"
"html-button-response-mod","23","141142","0.0-23.0","76167","","","","","","triplet","4845.199999809265","","","","1","stimuli/boats_uppercase.png","stimuli/stim020_inanimate_tree_4.png","stimuli/tools_uppercase.png","19"
"html-button-response-mod","24","144292","0.0-24.0","76167","","","","","","triplet","2642.7999999523163","","","","0","stimuli/fish_lowercase.png","stimuli/stim008_animate_bird_4.png","stimuli/stim018_inanimate_tree_2.png","20"
"html-button-response-mod","25","147892","0.0-25.0","76167","","","","","","triplet","3096.7000000476837","","","","2","stimuli/stim007_animate_bird_3.png","stimuli/bird_lowercase.png","stimuli/boats_lowercase.png","21"
"html-button-response-mod","26","149842","0.0-26.0","76167","","","","","","triplet","1442.7999999523163","","","","0","stimuli/stim017_inanimate_tree_1.png","stimuli/tools_lowercase.png","stimuli/stim021_inanimate_tools_1.png","22"
"html-button-response-mod","27","153709","0.0-27.0","76167","","","","","","triplet","3360.0999999046326","","","","1","stimuli/stim008_animate_bird_4.png","stimuli/stim010_animate_face_2.png","stimuli/stim019_inanimate_tree_3.png","23"
"html-button-response-mod","28","156891","0.0-28.0","76167","","","","","","triplet","2675.5999999046326","","","","0","stimuli/stim018_inanimate_tree_2.png","stimuli/stim003_animate_fish_3.png","stimuli/boats_uppercase.png","24"
"html-button-response-mod","29","162140","0.0-29.0","76167","","","","","","triplet","4742.599999904633","","","","2","stimuli/stim020_inanimate_tree_4.png","stimuli/stim011_animate_face_3.png","stimuli/stim022_inanimate_tools_2.png","25"
"html-button-response-mod","30","165291","0.0-30.0","76167","","","","","","triplet","2644.0999999046326","","","","0","stimuli/stim023_inanimate_tools_3.png","stimuli/stim017_inanimate_tree_1.png","stimuli/stim006_animate_bird_2.png","26"
"html-button-response-mod","31","168075","0.0-31.0","76167","","","","","","triplet","2280.4000000953674","","","","2","stimuli/stim001_animate_fish_1.png","stimuli/stim014_inanimate_boats_2.png","stimuli/face_uppercase.png","27"
"html-button-response-mod","32","172424","0.0-32.0","76167","","","","","","triplet","3842.4000000953674","","","","0","stimuli/stim022_inanimate_tools_2.png","stimuli/face_uppercase.png","stimuli/stim001_animate_fish_1.png","28"
"html-button-response-mod","33","174625","0.0-33.0","76167","","","","","","triplet","1693.1999998092651","","","","2","stimuli/stim015_inanimate_boats_3.png","stimuli/stim014_inanimate_boats_2.png","stimuli/stim023_inanimate_tools_3.png","29"
"html-button-response-mod","34","177942","0.0-34.0","76167","","","","","","triplet","2813.2999999523163","","","","1","stimuli/stim004_animate_fish_4.png","stimuli/tools_lowercase.png","stimuli/face_uppercase.png","30"
"html-button-response-mod","35","180625","0.0-35.0","76167","","","","","","triplet","2175.7999999523163","","","","2","stimuli/stim018_inanimate_tree_2.png","stimuli/stim011_animate_face_3.png","stimuli/stim024_inanimate_tools_4.png","31"
"html-button-response-mod","36","183375","0.0-36.0","76167","","","","","","triplet","2244.100000143051","","","","0","stimuli/stim018_inanimate_tree_2.png","stimuli/face_lowercase.png","stimuli/stim009_animate_face_1.png","32"
"html-button-response-mod","37","185524","0.0-37.0","76167","","","","","","triplet","1642.7000000476837","","","","0","stimuli/fish_lowercase.png","stimuli/tools_uppercase.png","stimuli/stim021_inanimate_tools_1.png","33"
"html-button-response-mod","38","188891","0.0-38.0","76167","","","","","","triplet","2861.2000000476837","","","","0","stimuli/stim022_inanimate_tools_2.png","stimuli/boats_lowercase.png","stimuli/stim002_animate_fish_2.png","34"
"html-button-response-mod","39","190708","0.0-39.0","76167","","","","","","triplet","1309.8999998569489","","","","1","stimuli/stim002_animate_fish_2.png","stimuli/tree_uppercase.png","stimuli/stim004_animate_fish_4.png","35"
"html-button-response-mod","40","192658","0.0-40.0","76167","","","","","","triplet","1447","","","","0","stimuli/face_lowercase.png","stimuli/stim008_animate_bird_4.png","stimuli/stim001_animate_fish_1.png","36"
"html-button-response-mod","41","195574","0.0-41.0","76167","","","","","","triplet","2409.600000143051","","","","1","stimuli/bird_uppercase.png","stimuli/stim015_inanimate_boats_3.png","stimuli/tree_uppercase.png","37"
"html-button-response-mod","42","199824","0.0-42.0","76167","","","","","","triplet","3743.7000000476837","","","","0","stimuli/tools_uppercase.png","stimuli/stim013_inanimate_boats_1.png","stimuli/stim007_animate_bird_3.png","38"
"html-button-response-mod","43","205374","0.0-43.0","76167","","","","","","triplet","5043.100000143051","","","","0","stimuli/boats_lowercase.png","stimuli/stim006_animate_bird_2.png","stimuli/stim002_animate_fish_2.png","39"
"html-button-response-mod","44","207524","0.0-44.0","76167","","","","","","triplet","1644.8999998569489","","","","1","stimuli/face_lowercase.png","stimuli/stim003_animate_fish_3.png","stimuli/face_uppercase.png","40"
"html-button-response-mod","45","210191","0.0-45.0","76167","","","","","","triplet","2160.2999999523163","","","","1","stimuli/stim020_inanimate_tree_4.png","stimuli/stim014_inanimate_boats_2.png","stimuli/bird_lowercase.png","41"
"html-button-response-mod","46","214024","0.0-46.0","76167","","","","","","triplet","3326.2000000476837","","","","2","stimuli/fish_uppercase.png","stimuli/stim012_animate_face_4.png","stimuli/tools_uppercase.png","42"
"html-button-response-mod","47","217573","0.0-47.0","76167","","","","","","triplet","3042.5","","","","1","stimuli/stim002_animate_fish_2.png","stimuli/stim021_inanimate_tools_1.png","stimuli/stim014_inanimate_boats_2.png","43"
"html-button-response-mod","48","224691","0.0-48.0","76167","","","","","","triplet","6614.5","","","","2","stimuli/face_lowercase.png","stimuli/stim006_animate_bird_2.png","stimuli/stim023_inanimate_tools_3.png","44"
"html-button-response-mod","49","227757","0.0-49.0","76167","","","","","","triplet","2559.2000000476837","","","","2","stimuli/stim004_animate_fish_4.png","stimuli/fish_uppercase.png","stimuli/stim005_animate_bird_1.png","45"
"html-button-response-mod","50","233207","0.0-50.0","76167","","","","","","triplet","4947.100000143051","","","","0","stimuli/stim024_inanimate_tools_4.png","stimuli/boats_lowercase.png","stimuli/stim003_animate_fish_3.png","46"
"html-button-response-mod","51","235575","0.0-51.0","76167","","","","","","triplet","1864.5","","","","1","stimuli/stim007_animate_bird_3.png","stimuli/stim003_animate_fish_3.png","stimuli/tree_lowercase.png","47"
"html-button-response-mod","52","239291","0.0-52.0","76167","","","","","","triplet","3209","","","","2","stimuli/stim007_animate_bird_3.png","stimuli/stim019_inanimate_tree_3.png","stimuli/stim021_inanimate_tools_1.png","48"
"html-button-response-mod","53","247574","0.0-53.0","76167","","","","","","triplet","7780.099999904633","","","","1","stimuli/fish_uppercase.png","stimuli/stim017_inanimate_tree_1.png","stimuli/bird_lowercase.png","49"
"html-button-response","54","251557","0.0-54.0","76167","","","","","","break","3478.899999856949","<p>BREAK</p><p>Take a break for as long as you need</p><p>Click the button to continue</p>","0","","","","","",""
"html-button-response-mod","55","253491","0.0-55.0","76167","","","","","","triplet","1930.3999998569489","","","","2","stimuli/tree_lowercase.png","stimuli/stim020_inanimate_tree_4.png","stimuli/stim011_animate_face_3.png","50"
"html-button-response-mod","56","257840","0.0-56.0","76167","","","","","","triplet","3844.2999999523163","","","","2","stimuli/stim015_inanimate_boats_3.png","stimuli/stim017_inanimate_tree_1.png","stimuli/face_uppercase.png","51"
"html-button-response-mod","57","260824","0.0-57.0","76167","","","","","","triplet","2476.7000000476837","","","","2","stimuli/face_lowercase.png","stimuli/stim004_animate_fish_4.png","stimuli/stim021_inanimate_tools_1.png","52"
"html-button-response-mod","58","262740","0.0-58.0","76167","","","","","","triplet","1412","","","","0","stimuli/stim024_inanimate_tools_4.png","stimuli/stim009_animate_face_1.png","stimuli/stim010_animate_face_2.png","53"
"html-button-response-mod","59","266074","0.0-59.0","76167","","","","","","triplet","2831.5","","","","1","stimuli/stim006_animate_bird_2.png","stimuli/boats_uppercase.png","stimuli/stim018_inanimate_tree_2.png","54"
"html-button-response-mod","60","269391","0.0-60.0","76167","","","","","","triplet","2812.5","","","","1","stimuli/stim001_animate_fish_1.png","stimuli/face_uppercase.png","stimuli/stim019_inanimate_tree_3.png","55"
"html-button-response-mod","61","274424","0.0-61.0","76167","","","","","","triplet","4526.099999904633","","","","2","stimuli/stim017_inanimate_tree_1.png","stimuli/face_uppercase.png","stimuli/stim022_inanimate_tools_2.png","56"
"html-button-response-mod","62","279140","0.0-62.0","76167","","","","","","triplet","4209.5","","","","2","stimuli/stim019_inanimate_tree_3.png","stimuli/fish_uppercase.png","stimuli/tools_uppercase.png","57"
"html-button-response-mod","63","281806","0.0-63.0","76167","","","","","","triplet","2159.4000000953674","","","","1","stimuli/stim006_animate_bird_2.png","stimuli/tools_lowercase.png","stimuli/stim001_animate_fish_1.png","58"
"html-button-response-mod","64","283624","0.0-64.0","76167","","","","","","triplet","1314.2000000476837","","","","1","stimuli/stim005_animate_bird_1.png","stimuli/stim013_inanimate_boats_1.png","stimuli/stim006_animate_bird_2.png","59"
"html-button-response-mod","65","286007","0.0-65.0","76167","","","","","","triplet","1879.5999999046326","","","","2","stimuli/stim001_animate_fish_1.png","stimuli/boats_uppercase.png","stimuli/tools_lowercase.png","60"
"html-button-response-mod","66","291223","0.0-66.0","76167","","","","","","triplet","4709.299999952316","","","","1","stimuli/face_uppercase.png","stimuli/stim015_inanimate_boats_3.png","stimuli/stim007_animate_bird_3.png","61"
"html-button-response-mod","67","293406","0.0-67.0","76167","","","","","","triplet","1676.5","","","","0","stimuli/stim013_inanimate_boats_1.png","stimuli/stim024_inanimate_tools_4.png","stimuli/stim022_inanimate_tools_2.png","62"
"html-button-response-mod","68","295190","0.0-68.0","76167","","","","","","triplet","1276.1000001430511","","","","0","stimuli/stim005_animate_bird_1.png","stimuli/stim013_inanimate_boats_1.png","stimuli/stim016_inanimate_boats_4.png","63"
"html-button-response-mod","69","300106","0.0-69.0","76167","","","","","","triplet","4409.5","","","","0","stimuli/stim009_animate_face_1.png","stimuli/stim005_animate_bird_1.png","stimuli/stim018_inanimate_tree_2.png","64"
"html-button-response-mod","70","303023","0.0-70.0","76167","","","","","","triplet","2409.7999999523163","","","","0","stimuli/stim010_animate_face_2.png","stimuli/stim004_animate_fish_4.png","stimuli/boats_uppercase.png","65"
"html-button-response-mod","71","306256","0.0-71.0","76167","","","","","","triplet","2726.9000000953674","","","","1","stimuli/stim017_inanimate_tree_1.png","stimuli/stim012_animate_face_4.png","stimuli/stim008_animate_bird_4.png","66"
"html-button-response-mod","72","308755","0.0-72.0","76167","","","","","","triplet","1991.9000000953674","","","","0","stimuli/stim022_inanimate_tools_2.png","stimuli/fish_lowercase.png","stimuli/stim004_animate_fish_4.png","67"
"html-button-response-mod","73","311106","0.0-73.0","76167","","","","","","triplet","1845.2999999523163","","","","0","stimuli/tools_uppercase.png","stimuli/stim005_animate_bird_1.png","stimuli/stim012_animate_face_4.png","68"
"html-button-response-mod","74","312923","0.0-74.0","76167","","","","","","triplet","1313.3999998569489","","","","1","stimuli/tree_lowercase.png","stimuli/stim011_animate_face_3.png","stimuli/stim018_inanimate_tree_2.png","69"
"html-button-response-mod","75","315623","0.0-75.0","76167","","","","","","triplet","2196.4000000953674","","","","2","stimuli/stim008_animate_bird_4.png","stimuli/boats_uppercase.png","stimuli/tools_lowercase.png","70"
"html-button-response-mod","76","317824","0.0-76.0","76167","","","","","","triplet","1696.7000000476837","","","","0","stimuli/tools_lowercase.png","stimuli/stim008_animate_bird_4.png","stimuli/stim019_inanimate_tree_3.png","71"
"html-button-response-mod","77","319589","0.0-77.0","76167","","","","","","triplet","1262.9000000953674","","","","1","stimuli/stim002_animate_fish_2.png","stimuli/stim012_animate_face_4.png","stimuli/fish_lowercase.png","72"
"html-button-response-mod","78","323056","0.0-78.0","76167","","","","","","triplet","2964.2999999523163","","","","1","stimuli/fish_uppercase.png","stimuli/stim023_inanimate_tools_3.png","stimuli/face_lowercase.png","73"
"html-button-response-mod","79","325173","0.0-79.0","76167","","","","","","triplet","1609.7000000476837","","","","0","stimuli/stim008_animate_bird_4.png","stimuli/face_uppercase.png","stimuli/face_lowercase.png","74"
"html-button-response-mod","80","327374","0.0-80.0","76167","","","","","","triplet","1693.7000000476837","","","","2","stimuli/stim003_animate_fish_3.png","stimuli/fish_uppercase.png","stimuli/tools_uppercase.png","75"
"html-button-response-mod","81","329956","0.0-81.0","76167","","","","","","triplet","2075.7000000476837","","","","0","stimuli/tools_uppercase.png","stimuli/stim014_inanimate_boats_2.png","stimuli/fish_uppercase.png","76"
"html-button-response-mod","82","331973","0.0-82.0","76167","","","","","","triplet","1512.7999999523163","","","","1","stimuli/stim023_inanimate_tools_3.png","stimuli/stim014_inanimate_boats_2.png","stimuli/stim022_inanimate_tools_2.png","77"
"html-button-response-mod","83","334990","0.0-83.0","76167","","","","","","triplet","2513.399999856949","","","","1","stimuli/tools_uppercase.png","stimuli/stim008_animate_bird_4.png","stimuli/stim014_inanimate_boats_2.png","78"
"html-button-response-mod","84","339073","0.0-84.0","76167","","","","","","triplet","3578.800000190735","","","","1","stimuli/bird_lowercase.png","stimuli/boats_lowercase.png","stimuli/stim011_animate_face_3.png","79"
"html-button-response-mod","85","342121","0.0-85.0","76167","","","","","","triplet","2544.899999856949","","","","0","stimuli/stim019_inanimate_tree_3.png","stimuli/stim007_animate_bird_3.png","stimuli/face_lowercase.png","80"
"html-button-response-mod","86","344023","0.0-86.0","76167","","","","","","triplet","1398.2999999523163","","","","2","stimuli/stim022_inanimate_tools_2.png","stimuli/stim021_inanimate_tools_1.png","stimuli/stim020_inanimate_tree_4.png","81"
"html-button-response-mod","87","347290","0.0-87.0","76167","","","","","","triplet","2759.9000000953674","","","","1","stimuli/stim001_animate_fish_1.png","stimuli/stim022_inanimate_tools_2.png","stimuli/stim010_animate_face_2.png","82"
"html-button-response-mod","88","351240","0.0-88.0","76167","","","","","","triplet","3443.2000000476837","","","","2","stimuli/stim019_inanimate_tree_3.png","stimuli/stim012_animate_face_4.png","stimuli/stim013_inanimate_boats_1.png","83"
"html-button-response-mod","89","355139","0.0-89.0","76167","","","","","","triplet","3392.2999999523163","","","","0","stimuli/bird_lowercase.png","stimuli/stim001_animate_fish_1.png","stimuli/boats_lowercase.png","84"
"html-button-response-mod","90","360023","0.0-90.0","76167","","","","","","triplet","4377.299999952316","","","","1","stimuli/fish_uppercase.png","stimuli/tools_lowercase.png","stimuli/stim012_animate_face_4.png","85"
"html-button-response-mod","91","363572","0.0-91.0","76167","","","","","","triplet","3045.5999999046326","","","","1","stimuli/stim003_animate_fish_3.png","stimuli/tools_uppercase.png","stimuli/stim011_animate_face_3.png","86"
"html-button-response-mod","92","365906","0.0-92.0","76167","","","","","","triplet","1828.5","","","","1","stimuli/stim003_animate_fish_3.png","stimuli/tools_lowercase.png","stimuli/stim019_inanimate_tree_3.png","87"
"html-button-response-mod","93","369956","0.0-93.0","76167","","","","","","triplet","3543","","","","1","stimuli/stim020_inanimate_tree_4.png","stimuli/face_lowercase.png","stimuli/stim007_animate_bird_3.png","88"
"html-button-response-mod","94","373689","0.0-94.0","76167","","","","","","triplet","3226.7000000476837","","","","0","stimuli/stim023_inanimate_tools_3.png","stimuli/stim011_animate_face_3.png","stimuli/stim014_inanimate_boats_2.png","89"
"html-button-response-mod","95","377155","0.0-95.0","76167","","","","","","triplet","2960.5999999046326","","","","1","stimuli/stim005_animate_bird_1.png","stimuli/tree_uppercase.png","stimuli/stim003_animate_fish_3.png","90"
"html-button-response-mod","96","381139","0.0-96.0","76167","","","","","","triplet","3477.0999999046326","","","","1","stimuli/stim014_inanimate_boats_2.png","stimuli/stim009_animate_face_1.png","stimuli/stim013_inanimate_boats_1.png","91"
"html-button-response-mod","97","385038","0.0-97.0","76167","","","","","","triplet","3392.2000000476837","","","","0","stimuli/stim014_inanimate_boats_2.png","stimuli/stim009_animate_face_1.png","stimuli/stim007_animate_bird_3.png","92"
"html-button-response-mod","98","388673","0.0-98.0","76167","","","","","","triplet","3127.2999999523163","","","","1","stimuli/stim015_inanimate_boats_3.png","stimuli/stim018_inanimate_tree_2.png","stimuli/stim003_animate_fish_3.png","93"
"html-button-response-mod","99","391822","0.0-99.0","76167","","","","","","triplet","2642.2999999523163","","","","1","stimuli/fish_lowercase.png","stimuli/stim020_inanimate_tree_4.png","stimuli/stim014_inanimate_boats_2.png","94"
"html-button-response-mod","100","398689","0.0-100.0","76167","","","","","","triplet","6359.899999856949","","","","2","stimuli/stim020_inanimate_tree_4.png","stimuli/stim011_animate_face_3.png","stimuli/stim016_inanimate_boats_4.png","95"
"html-button-response-mod","101","402755","0.0-101.0","76167","","","","","","triplet","3559.2000000476837","","","","1","stimuli/stim013_inanimate_boats_1.png","stimuli/tools_lowercase.png","stimuli/stim011_animate_face_3.png","96"
"html-button-response-mod","102","405588","0.0-102.0","76167","","","","","","triplet","2330.100000143051","","","","0","stimuli/stim002_animate_fish_2.png","stimuli/stim008_animate_bird_4.png","stimuli/stim006_animate_bird_2.png","97"
"html-button-response-mod","103","407705","0.0-103.0","76167","","","","","","triplet","1609.2999999523163","","","","0","stimuli/stim004_animate_fish_4.png","stimuli/stim010_animate_face_2.png","stimuli/face_lowercase.png","98"
"html-button-response-mod","104","410589","0.0-104.0","76167","","","","","","triplet","2378.9000000953674","","","","2","stimuli/stim002_animate_fish_2.png","stimuli/bird_lowercase.png","stimuli/face_lowercase.png","99"
"html-button-response","105","415439","0.0-105.0","76167","","","","","","break","4343","<p>BREAK</p><p>Take a break for as long as you need</p><p>Click the button to continue</p>","0","","","","","",""
"html-button-response-mod","106","417522","0.0-106.0","76167","","","","","","triplet","2081.2000000476837","","","","0","stimuli/tools_lowercase.png","stimuli/face_lowercase.png","stimuli/stim003_animate_fish_3.png","100"
"html-button-response-mod","107","421138","0.0-107.0","76167","","","","","","triplet","3113.9000000953674","","","","0","stimuli/stim014_inanimate_boats_2.png","stimuli/stim008_animate_bird_4.png","stimuli/stim019_inanimate_tree_3.png","101"
"html-button-response-mod","108","423738","0.0-108.0","76167","","","","","","triplet","2093.2999999523163","","","","1","stimuli/fish_lowercase.png","stimuli/stim015_inanimate_boats_3.png","stimuli/stim007_animate_bird_3.png","102"
"html-button-response-mod","109","427472","0.0-109.0","76167","","","","","","triplet","3228.5","","","","0","stimuli/tools_uppercase.png","stimuli/boats_lowercase.png","stimuli/stim004_animate_fish_4.png","103"
"html-button-response-mod","110","429522","0.0-110.0","76167","","","","","","triplet","1544.6000001430511","","","","1","stimuli/stim005_animate_bird_1.png","stimuli/stim017_inanimate_tree_1.png","stimuli/stim006_animate_bird_2.png","104"
"html-button-response-mod","111","432088","0.0-111.0","76167","","","","","","triplet","2059.5","","","","2","stimuli/stim011_animate_face_3.png","stimuli/stim009_animate_face_1.png","stimuli/stim018_inanimate_tree_2.png","105"
"html-button-response-mod","112","435588","0.0-112.0","76167","","","","","","triplet","2993.2000000476837","","","","2","stimuli/boats_lowercase.png","stimuli/stim014_inanimate_boats_2.png","stimuli/bird_lowercase.png","106"
"html-button-response-mod","113","437504","0.0-113.0","76167","","","","","","triplet","1411.5999999046326","","","","1","stimuli/stim002_animate_fish_2.png","stimuli/stim015_inanimate_boats_3.png","stimuli/fish_lowercase.png","107"
"html-button-response-mod","114","439488","0.0-114.0","76167","","","","","","triplet","1478","","","","0","stimuli/tree_uppercase.png","stimuli/fish_uppercase.png","stimuli/stim002_animate_fish_2.png","108"
"html-button-response-mod","115","442871","0.0-115.0","76167","","","","","","triplet","2877.5999999046326","","","","1","stimuli/stim006_animate_bird_2.png","stimuli/face_lowercase.png","stimuli/bird_lowercase.png","109"
"html-button-response-mod","116","445522","0.0-116.0","76167","","","","","","triplet","2146.399999856949","","","","0","stimuli/tree_lowercase.png","stimuli/fish_lowercase.png","stimuli/stim003_animate_fish_3.png","110"
"html-button-response-mod","117","447455","0.0-117.0","76167","","","","","","triplet","1428.9000000953674","","","","0","stimuli/stim004_animate_fish_4.png","stimuli/face_lowercase.png","stimuli/stim011_animate_face_3.png","111"
"html-button-response-mod","118","450839","0.0-118.0","76167","","","","","","triplet","2879.4000000953674","","","","2","stimuli/bird_lowercase.png","stimuli/stim018_inanimate_tree_2.png","stimuli/fish_uppercase.png","112"
"html-button-response-mod","119","452938","0.0-119.0","76167","","","","","","triplet","1595","","","","1","stimuli/stim004_animate_fish_4.png","stimuli/tree_lowercase.png","stimuli/fish_uppercase.png","113"
"html-button-response-mod","120","454588","0.0-120.0","76167","","","","","","triplet","1143.2000000476837","","","","1","stimuli/face_lowercase.png","stimuli/stim023_inanimate_tools_3.png","stimuli/stim010_animate_face_2.png","114"
"html-button-response-mod","121","457255","0.0-121.0","76167","","","","","","triplet","2161.7000000476837","","","","1","stimuli/stim017_inanimate_tree_1.png","stimuli/stim024_inanimate_tools_4.png","stimuli/face_uppercase.png","115"
"html-button-response-mod","122","459588","0.0-122.0","76167","","","","","","triplet","1829.5","","","","2","stimuli/stim017_inanimate_tree_1.png","stimuli/stim005_animate_bird_1.png","stimuli/stim009_animate_face_1.png","116"
"html-button-response-mod","123","462120","0.0-123.0","76167","","","","","","triplet","2024.9000000953674","","","","2","stimuli/stim003_animate_fish_3.png","stimuli/stim007_animate_bird_3.png","stimuli/stim009_animate_face_1.png","117"
"html-button-response-mod","124","466621","0.0-124.0","76167","","","","","","triplet","3993.7999999523163","","","","1","stimuli/stim012_animate_face_4.png","stimuli/stim013_inanimate_boats_1.png","stimuli/stim007_animate_bird_3.png","118"
"html-button-response-mod","125","469321","0.0-125.0","76167","","","","","","triplet","2192.7999999523163","","","","2","stimuli/stim003_animate_fish_3.png","stimuli/stim007_animate_bird_3.png","stimuli/stim024_inanimate_tools_4.png","119"
"html-button-response-mod","126","471638","0.0-126.0","76167","","","","","","triplet","1809.6999998092651","","","","2","stimuli/stim011_animate_face_3.png","stimuli/stim007_animate_bird_3.png","stimuli/tools_lowercase.png","120"
"html-button-response-mod","127","473322","0.0-127.0","76167","","","","","","triplet","1177.2999999523163","","","","0","stimuli/stim012_animate_face_4.png","stimuli/tree_lowercase.png","stimuli/tree_uppercase.png","121"
"html-button-response-mod","128","475755","0.0-128.0","76167","","","","","","triplet","1925.2999999523163","","","","0","stimuli/stim015_inanimate_boats_3.png","stimuli/fish_lowercase.png","stimuli/bird_uppercase.png","122"
"html-button-response-mod","129","478305","0.0-129.0","76167","","","","","","triplet","2047","","","","1","stimuli/stim009_animate_face_1.png","stimuli/stim016_inanimate_boats_4.png","stimuli/face_uppercase.png","123"
"html-button-response-mod","130","479838","0.0-130.0","76167","","","","","","triplet","1026.4000000953674","","","","0","stimuli/stim009_animate_face_1.png","stimuli/stim019_inanimate_tree_3.png","stimuli/stim018_inanimate_tree_2.png","124"
"html-button-response-mod","131","481737","0.0-131.0","76167","","","","","","triplet","1395.7000000476837","","","","2","stimuli/tree_lowercase.png","stimuli/stim018_inanimate_tree_2.png","stimuli/fish_lowercase.png","125"
"html-button-response-mod","132","484454","0.0-132.0","76167","","","","","","triplet","2212.2999999523163","","","","1","stimuli/boats_uppercase.png","stimuli/tree_lowercase.png","stimuli/fish_uppercase.png","126"
"html-button-response-mod","133","487021","0.0-133.0","76167","","","","","","triplet","2060.9000000953674","","","","0","stimuli/stim024_inanimate_tools_4.png","stimuli/stim019_inanimate_tree_3.png","stimuli/stim018_inanimate_tree_2.png","127"
"html-button-response-mod","134","489238","0.0-134.0","76167","","","","","","triplet","1712.4000000953674","","","","0","stimuli/stim022_inanimate_tools_2.png","stimuli/fish_uppercase.png","stimuli/boats_uppercase.png","128"
"html-button-response-mod","135","491187","0.0-135.0","76167","","","","","","triplet","1442.8000001907349","","","","2","stimuli/stim009_animate_face_1.png","stimuli/stim012_animate_face_4.png","stimuli/tools_uppercase.png","129"
"html-button-response-mod","136","493754","0.0-136.0","76167","","","","","","triplet","2064","","","","2","stimuli/stim018_inanimate_tree_2.png","stimuli/stim007_animate_bird_3.png","stimuli/stim013_inanimate_boats_1.png","130"
"html-button-response-mod","137","496788","0.0-137.0","76167","","","","","","triplet","2527.4000000953674","","","","0","stimuli/stim024_inanimate_tools_4.png","stimuli/stim011_animate_face_3.png","stimuli/stim005_animate_bird_1.png","131"
"html-button-response-mod","138","500288","0.0-138.0","76167","","","","","","triplet","2996.2999999523163","","","","1","stimuli/stim008_animate_bird_4.png","stimuli/boats_uppercase.png","stimuli/stim003_animate_fish_3.png","132"
"html-button-response-mod","139","504004","0.0-139.0","76167","","","","","","triplet","3209.7000000476837","","","","0","stimuli/stim015_inanimate_boats_3.png","stimuli/stim020_inanimate_tree_4.png","stimuli/stim006_animate_bird_2.png","133"
"html-button-response-mod","140","505954","0.0-140.0","76167","","","","","","triplet","1442.7000000476837","","","","1","stimuli/fish_lowercase.png","stimuli/stim021_inanimate_tools_1.png","stimuli/fish_uppercase.png","134"
"html-button-response-mod","141","508204","0.0-141.0","76167","","","","","","triplet","1745.7000000476837","","","","1","stimuli/stim001_animate_fish_1.png","stimuli/stim015_inanimate_boats_3.png","stimuli/stim005_animate_bird_1.png","135"
"html-button-response-mod","142","511854","0.0-142.0","76167","","","","","","triplet","3143","","","","2","stimuli/fish_lowercase.png","stimuli/stim015_inanimate_boats_3.png","stimuli/tools_uppercase.png","136"
"html-button-response-mod","143","515088","0.0-143.0","76167","","","","","","triplet","2730.2999999523163","","","","2","stimuli/boats_lowercase.png","stimuli/tools_uppercase.png","stimuli/stim010_animate_face_2.png","137"
"html-button-response-mod","144","517420","0.0-144.0","76167","","","","","","triplet","1825.8999998569489","","","","2","stimuli/stim013_inanimate_boats_1.png","stimuli/tools_uppercase.png","stimuli/stim011_animate_face_3.png","138"
"html-button-response-mod","145","519703","0.0-145.0","76167","","","","","","triplet","1779.3999998569489","","","","0","stimuli/stim021_inanimate_tools_1.png","stimuli/tree_uppercase.png","stimuli/stim007_animate_bird_3.png","139"
"html-button-response-mod","146","522304","0.0-146.0","76167","","","","","","triplet","2094.100000143051","","","","2","stimuli/stim015_inanimate_boats_3.png","stimuli/boats_uppercase.png","stimuli/stim001_animate_fish_1.png","140"
"html-button-response-mod","147","524404","0.0-147.0","76167","","","","","","triplet","1596.2999999523163","","","","1","stimuli/face_uppercase.png","stimuli/bird_uppercase.png","stimuli/stim012_animate_face_4.png","141"
"html-button-response-mod","148","526320","0.0-148.0","76167","","","","","","triplet","1413.2000000476837","","","","0","stimuli/stim010_animate_face_2.png","stimuli/stim004_animate_fish_4.png","stimuli/stim001_animate_fish_1.png","142"
"html-button-response-mod","149","529987","0.0-149.0","76167","","","","","","triplet","3160.0999999046326","","","","2","stimuli/stim014_inanimate_boats_2.png","stimuli/stim019_inanimate_tree_3.png","stimuli/stim009_animate_face_1.png","143"
"html-button-response-mod","150","532654","0.0-150.0","76167","","","","","","triplet","2159.7999999523163","","","","1","stimuli/bird_uppercase.png","stimuli/tools_uppercase.png","stimuli/bird_lowercase.png","144"
"html-button-response-mod","151","535488","0.0-151.0","76167","","","","","","triplet","2326.7999999523163","","","","2","stimuli/boats_uppercase.png","stimuli/tools_uppercase.png","stimuli/bird_lowercase.png","145"
"html-button-response-mod","152","539353","0.0-152.0","76167","","","","","","triplet","3359","","","","0","stimuli/face_uppercase.png","stimuli/bird_uppercase.png","stimuli/stim005_animate_bird_1.png","146"
"html-button-response-mod","153","542220","0.0-153.0","76167","","","","","","triplet","2359.5999999046326","","","","2","stimuli/stim014_inanimate_boats_2.png","stimuli/stim007_animate_bird_3.png","stimuli/face_uppercase.png","147"
"html-button-response-mod","154","545186","0.0-154.0","76167","","","","","","triplet","2459.5999999046326","","","","1","stimuli/stim013_inanimate_boats_1.png","stimuli/tree_lowercase.png","stimuli/boats_lowercase.png","148"
"html-button-response-mod","155","547404","0.0-155.0","76167","","","","","","triplet","1710.4000000953674","","","","0","stimuli/stim001_animate_fish_1.png","stimuli/face_lowercase.png","stimuli/stim010_animate_face_2.png","149"
"html-button-response","156","560904","0.0-156.0","76167","","","","","","break","12994.5","<p>BREAK</p><p>Take a break for as long as you need</p><p>Click the button to continue</p>","0","","","","","",""
"html-button-response-mod","157","563070","0.0-157.0","76167","","","","","","triplet","2162.5","","","","2","stimuli/fish_uppercase.png","stimuli/stim018_inanimate_tree_2.png","stimuli/tools_lowercase.png","150"
"html-button-response-mod","158","566787","0.0-158.0","76167","","","","","","triplet","3213.7999999523163","","","","0","stimuli/stim006_animate_bird_2.png","stimuli/boats_lowercase.png","stimuli/stim022_inanimate_tools_2.png","151"
"html-button-response-mod","159","569154","0.0-159.0","76167","","","","","","triplet","1860","","","","0","stimuli/stim005_animate_bird_1.png","stimuli/boats_lowercase.png","stimuli/tools_uppercase.png","152"
"html-button-response-mod","160","571253","0.0-160.0","76167","","","","","","triplet","1592.6999998092651","","","","2","stimuli/stim008_animate_bird_4.png","stimuli/bird_lowercase.png","stimuli/tools_lowercase.png","153"
"html-button-response-mod","161","573403","0.0-161.0","76167","","","","","","triplet","1643.4000000953674","","","","2","stimuli/stim017_inanimate_tree_1.png","stimuli/stim009_animate_face_1.png","stimuli/stim021_inanimate_tools_1.png","154"
"html-button-response-mod","162","576787","0.0-162.0","76167","","","","","","triplet","2880.9000000953674","","","","1","stimuli/boats_uppercase.png","stimuli/stim012_animate_face_4.png","stimuli/stim004_animate_fish_4.png","155"
"html-button-response-mod","163","579019","0.0-163.0","76167","","","","","","triplet","1725.5","","","","0","stimuli/tools_lowercase.png","stimuli/stim018_inanimate_tree_2.png","stimuli/stim004_animate_fish_4.png","156"
"html-button-response-mod","164","581303","0.0-164.0","76167","","","","","","triplet","1780.3999998569489","","","","1","stimuli/bird_lowercase.png","stimuli/fish_lowercase.png","stimuli/stim020_inanimate_tree_4.png","157"
"html-button-response-mod","165","583353","0.0-165.0","76167","","","","","","triplet","1542.3999998569489","","","","0","stimuli/face_uppercase.png","stimuli/fish_lowercase.png","stimuli/stim002_animate_fish_2.png","158"
"html-button-response-mod","166","586103","0.0-166.0","76167","","","","","","triplet","2247.4000000953674","","","","2","stimuli/stim019_inanimate_tree_3.png","stimuli/face_lowercase.png","stimuli/tools_uppercase.png","159"
"html-button-response-mod","167","588536","0.0-167.0","76167","","","","","","triplet","1929.9000000953674","","","","2","stimuli/stim017_inanimate_tree_1.png","stimuli/bird_uppercase.png","stimuli/stim024_inanimate_tools_4.png","160"
"html-button-response-mod","168","591720","0.0-168.0","76167","","","","","","triplet","2678.2000000476837","","","","1","stimuli/stim005_animate_bird_1.png","stimuli/stim013_inanimate_boats_1.png","stimuli/face_lowercase.png","161"
"html-button-response-mod","169","594636","0.0-169.0","76167","","","","","","triplet","2411","","","","2","stimuli/stim018_inanimate_tree_2.png","stimuli/fish_uppercase.png","stimuli/stim023_inanimate_tools_3.png","162"
"html-button-response-mod","170","597286","0.0-170.0","76167","","","","","","triplet","2146.100000143051","","","","1","stimuli/stim023_inanimate_tools_3.png","stimuli/fish_lowercase.png","stimuli/boats_lowercase.png","163"
"html-button-response-mod","171","602853","0.0-171.0","76167","","","","","","triplet","5061.300000190735","","","","2","stimuli/stim013_inanimate_boats_1.png","stimuli/stim016_inanimate_boats_4.png","stimuli/bird_uppercase.png","164"
"html-button-response-mod","172","604719","0.0-172.0","76167","","","","","","triplet","1359.6000001430511","","","","1","stimuli/stim003_animate_fish_3.png","stimuli/stim021_inanimate_tools_1.png","stimuli/stim002_animate_fish_2.png","165"
"html-button-response-mod","173","608087","0.0-173.0","76167","","","","","","triplet","2860.4000000953674","","","","1","stimuli/stim005_animate_bird_1.png","stimuli/stim015_inanimate_boats_3.png","stimuli/face_lowercase.png","166"
"html-button-response-mod","174","610186","0.0-174.0","76167","","","","","","triplet","1596.2000000476837","","","","0","stimuli/face_uppercase.png","stimuli/tree_lowercase.png","stimuli/tree_uppercase.png","167"
"html-button-response-mod","175","612086","0.0-175.0","76167","","","","","","triplet","1393.2999999523163","","","","2","stimuli/bird_lowercase.png","stimuli/stim007_animate_bird_3.png","stimuli/stim023_inanimate_tools_3.png","168"
"html-button-response-mod","176","616236","0.0-176.0","76167","","","","","","triplet","3642.9000000953674","","","","1","stimuli/fish_uppercase.png","stimuli/boats_uppercase.png","stimuli/stim007_animate_bird_3.png","169"
"html-button-response-mod","177","620669","0.0-177.0","76167","","","","","","triplet","3926.399999856949","","","","1","stimuli/stim002_animate_fish_2.png","stimuli/stim017_inanimate_tree_1.png","stimuli/stim006_animate_bird_2.png","170"
"html-button-response-mod","178","623070","0.0-178.0","76167","","","","","","triplet","1893.2999999523163","","","","2","stimuli/stim014_inanimate_boats_2.png","stimuli/stim006_animate_bird_2.png","stimuli/stim023_inanimate_tools_3.png","171"
"html-button-response-mod","179","625236","0.0-179.0","76167","","","","","","triplet","1659.5","","","","0","stimuli/stim012_animate_face_4.png","stimuli/bird_lowercase.png","stimuli/stim006_animate_bird_2.png","172"
"html-button-response-mod","180","631253","0.0-180.0","76167","","","","","","triplet","5512.799999952316","","","","2","stimuli/boats_lowercase.png","stimuli/stim021_inanimate_tools_1.png","stimuli/stim008_animate_bird_4.png","173"
"html-button-response-mod","181","633486","0.0-181.0","76167","","","","","","triplet","1726","","","","0","stimuli/stim008_animate_bird_4.png","stimuli/tools_lowercase.png","stimuli/tools_uppercase.png","174"
"html-button-response-mod","182","636002","0.0-182.0","76167","","","","","","triplet","2009.1000001430511","","","","0","stimuli/stim024_inanimate_tools_4.png","stimuli/stim004_animate_fish_4.png","stimuli/face_lowercase.png","175"
"html-button-response-mod","183","639119","0.0-183.0","76167","","","","","","triplet","2613.2000000476837","","","","1","stimuli/fish_uppercase.png","stimuli/stim024_inanimate_tools_4.png","stimuli/tree_lowercase.png","176"
"html-button-response-mod","184","644018","0.0-184.0","76167","","","","","","triplet","4396.600000143051","","","","1","stimuli/boats_uppercase.png","stimuli/stim020_inanimate_tree_4.png","stimuli/fish_uppercase.png","177"
"html-button-response-mod","185","648879","0.0-185.0","76167","","","","","","triplet","4360.299999952316","","","","0","stimuli/stim010_animate_face_2.png","stimuli/stim014_inanimate_boats_2.png","stimuli/stim022_inanimate_tools_2.png","178"
"html-button-response-mod","186","652442","0.0-186.0","76167","","","","","","triplet","3059.5","","","","2","stimuli/stim001_animate_fish_1.png","stimuli/boats_lowercase.png","stimuli/stim024_inanimate_tools_4.png","179"
"html-button-response-mod","187","655957","0.0-187.0","76167","","","","","","triplet","3013.9000000953674","","","","0","stimuli/tools_lowercase.png","stimuli/stim016_inanimate_boats_4.png","stimuli/boats_lowercase.png","180"
"html-button-response-mod","188","659388","0.0-188.0","76167","","","","","","triplet","2926.9000000953674","","","","0","stimuli/stim022_inanimate_tools_2.png","stimuli/stim012_animate_face_4.png","stimuli/stim020_inanimate_tree_4.png","181"
"html-button-response-mod","189","663969","0.0-189.0","76167","","","","","","triplet","4077","","","","0","stimuli/stim019_inanimate_tree_3.png","stimuli/stim015_inanimate_boats_3.png","stimuli/stim021_inanimate_tools_1.png","182"
"html-button-response-mod","190","666535","0.0-190.0","76167","","","","","","triplet","2063.100000143051","","","","0","stimuli/tools_uppercase.png","stimuli/stim001_animate_fish_1.png","stimuli/fish_uppercase.png","183"
"html-button-response-mod","191","668402","0.0-191.0","76167","","","","","","triplet","1364.2000000476837","","","","1","stimuli/stim011_animate_face_3.png","stimuli/bird_uppercase.png","stimuli/stim009_animate_face_1.png","184"
"html-button-response-mod","192","670784","0.0-192.0","76167","","","","","","triplet","1875.6000001430511","","","","2","stimuli/stim002_animate_fish_2.png","stimuli/boats_lowercase.png","stimuli/stim010_animate_face_2.png","185"
"html-button-response-mod","193","674017","0.0-193.0","76167","","","","","","triplet","2726.5","","","","0","stimuli/stim015_inanimate_boats_3.png","stimuli/stim019_inanimate_tree_3.png","stimuli/stim012_animate_face_4.png","186"
"html-button-response-mod","194","679083","0.0-194.0","76167","","","","","","triplet","4564.099999904633","","","","1","stimuli/bird_uppercase.png","stimuli/stim001_animate_fish_1.png","stimuli/stim017_inanimate_tree_1.png","187"
"html-button-response-mod","195","684665","0.0-195.0","76167","","","","","","triplet","5077.200000047684","","","","1","stimuli/bird_uppercase.png","stimuli/stim022_inanimate_tools_2.png","stimuli/fish_uppercase.png","188"
"html-button-response-mod","196","694381","0.0-196.0","76167","","","","","","triplet","9211.200000047684","","","","2","stimuli/boats_lowercase.png","stimuli/boats_uppercase.png","stimuli/stim016_inanimate_boats_4.png","189"
"html-button-response-mod","197","696381","0.0-197.0","76167","","","","","","triplet","1492.8000001907349","","","","2","stimuli/boats_uppercase.png","stimuli/boats_lowercase.png","stimuli/stim020_inanimate_tree_4.png","190"
"html-button-response-mod","198","700263","0.0-198.0","76167","","","","","","triplet","3375.7999999523163","","","","0","stimuli/stim019_inanimate_tree_3.png","stimuli/tools_uppercase.png","stimuli/boats_lowercase.png","191"
"html-button-response-mod","199","703147","0.0-199.0","76167","","","","","","triplet","2376.7000000476837","","","","2","stimuli/tools_lowercase.png","stimuli/stim014_inanimate_boats_2.png","stimuli/stim007_animate_bird_3.png","192"
"html-button-response-mod","200","706147","0.0-200.0","76167","","","","","","triplet","2493.4000000953674","","","","2","stimuli/bird_lowercase.png","stimuli/stim003_animate_fish_3.png","stimuli/face_lowercase.png","193"
"html-button-response-mod","201","709080","0.0-201.0","76167","","","","","","triplet","2428.0999999046326","","","","2","stimuli/stim022_inanimate_tools_2.png","stimuli/boats_lowercase.png","stimuli/stim017_inanimate_tree_1.png","194"
"html-button-response-mod","202","712380","0.0-202.0","76167","","","","","","triplet","2796.5","","","","1","stimuli/stim017_inanimate_tree_1.png","stimuli/stim024_inanimate_tools_4.png","stimuli/stim001_animate_fish_1.png","195"
"html-button-response-mod","203","714847","0.0-203.0","76167","","","","","","triplet","1964","","","","0","stimuli/tree_uppercase.png","stimuli/fish_lowercase.png","stimuli/stim004_animate_fish_4.png","196"
"html-button-response-mod","204","717414","0.0-204.0","76167","","","","","","triplet","2059.7999999523163","","","","1","stimuli/stim015_inanimate_boats_3.png","stimuli/stim017_inanimate_tree_1.png","stimuli/stim013_inanimate_boats_1.png","197"
"html-button-response-mod","205","720096","0.0-205.0","76167","","","","","","triplet","2175.7999999523163","","","","2","stimuli/stim023_inanimate_tools_3.png","stimuli/tools_lowercase.png","stimuli/stim016_inanimate_boats_4.png","198"
"html-button-response-mod","206","721980","0.0-206.0","76167","","","","","","triplet","1376.9000000953674","","","","0","stimuli/tools_uppercase.png","stimuli/stim010_animate_face_2.png","stimuli/stim006_animate_bird_2.png","199"
"html-button-response","207","832264","0.0-207.0","76167","","","","","","break","109782.5","<p>BREAK</p><p>Take a break for as long as you need</p><p>Click the button to continue</p>","0","","","","","",""
"html-button-response-mod","208","834045","0.0-208.0","76167","","","","","","triplet","1773.9000000953674","","","","0","stimuli/stim002_animate_fish_2.png","stimuli/bird_lowercase.png","stimuli/stim005_animate_bird_1.png","200"
"html-button-response-mod","209","836262","0.0-209.0","76167","","","","","","triplet","1709.6999998092651","","","","0","stimuli/stim022_inanimate_tools_2.png","stimuli/bird_uppercase.png","stimuli/face_lowercase.png","201"
"html-button-response-mod","210","838729","0.0-210.0","76167","","","","","","triplet","1963","","","","0","stimuli/face_uppercase.png","stimuli/tree_lowercase.png","stimuli/stim008_animate_bird_4.png","202"
"html-button-response-mod","211","841062","0.0-211.0","76167","","","","","","triplet","1829.8999998569489","","","","0","stimuli/stim022_inanimate_tools_2.png","stimuli/tree_uppercase.png","stimuli/fish_uppercase.png","203"
"html-button-response-mod","212","842829","0.0-212.0","76167","","","","","","triplet","1262.2999999523163","","","","1","stimuli/stim024_inanimate_tools_4.png","stimuli/stim003_animate_fish_3.png","stimuli/stim021_inanimate_tools_1.png","204"
"html-button-response-mod","213","844979","0.0-213.0","76167","","","","","","triplet","1646.0999999046326","","","","1","stimuli/stim009_animate_face_1.png","stimuli/stim015_inanimate_boats_3.png","stimuli/stim006_animate_bird_2.png","205"
"html-button-response-mod","214","847545","0.0-214.0","76167","","","","","","triplet","2059.7000000476837","","","","2","stimuli/stim016_inanimate_boats_4.png","stimuli/boats_lowercase.png","stimuli/stim022_inanimate_tools_2.png","206"
"html-button-response-mod","215","850879","0.0-215.0","76167","","","","","","triplet","2826.300000190735","","","","0","stimuli/stim015_inanimate_boats_3.png","stimuli/stim012_animate_face_4.png","stimuli/bird_lowercase.png","207"
"html-button-response-mod","216","853595","0.0-216.0","76167","","","","","","triplet","2209.9000000953674","","","","0","stimuli/tools_uppercase.png","stimuli/stim001_animate_fish_1.png","stimuli/stim007_animate_bird_3.png","208"
"html-button-response-mod","217","856296","0.0-217.0","76167","","","","","","triplet","2193.300000190735","","","","0","stimuli/tools_uppercase.png","stimuli/stim005_animate_bird_1.png","stimuli/face_lowercase.png","209"
"html-button-response-mod","218","858294","0.0-218.0","76167","","","","","","triplet","1491.8000001907349","","","","2","stimuli/stim010_animate_face_2.png","stimuli/stim004_animate_fish_4.png","stimuli/tools_uppercase.png","210"
"html-button-response-mod","219","861462","0.0-219.0","76167","","","","","","triplet","2663.7999999523163","","","","0","stimuli/bird_uppercase.png","stimuli/boats_uppercase.png","stimuli/stim024_inanimate_tools_4.png","211"
"html-button-response-mod","220","865395","0.0-220.0","76167","","","","","","triplet","3427.5999999046326","","","","2","stimuli/stim008_animate_bird_4.png","stimuli/tree_lowercase.png","stimuli/boats_uppercase.png","212"
"html-button-response-mod","221","867262","0.0-221.0","76167","","","","","","triplet","1360.2999999523163","","","","2","stimuli/bird_lowercase.png","stimuli/stim006_animate_bird_2.png","stimuli/tools_lowercase.png","213"
"html-button-response-mod","222","868828","0.0-222.0","76167","","","","","","triplet","1059.9000000953674","","","","2","stimuli/fish_lowercase.png","stimuli/stim003_animate_fish_3.png","stimuli/stim018_inanimate_tree_2.png","214"
"html-button-response-mod","223","871194","0.0-223.0","76167","","","","","","triplet","1859.0999999046326","","","","0","stimuli/stim017_inanimate_tree_1.png","stimuli/boats_uppercase.png","stimuli/fish_lowercase.png","215"
"html-button-response-mod","224","874178","0.0-224.0","76167","","","","","","triplet","2477","","","","0","stimuli/tools_uppercase.png","stimuli/stim006_animate_bird_2.png","stimuli/fish_uppercase.png","216"
"html-button-response-mod","225","875928","0.0-225.0","76167","","","","","","triplet","1246.5","","","","0","stimuli/stim017_inanimate_tree_1.png","stimuli/stim001_animate_fish_1.png","stimuli/stim004_animate_fish_4.png","217"
"html-button-response-mod","226","877678","0.0-226.0","76167","","","","","","triplet","1246.6999998092651","","","","1","stimuli/stim012_animate_face_4.png","stimuli/stim002_animate_fish_2.png","stimuli/stim009_animate_face_1.png","218"
"html-button-response-mod","227","879746","0.0-227.0","76167","","","","","","triplet","1563.7000000476837","","","","1","stimuli/bird_uppercase.png","stimuli/stim013_inanimate_boats_1.png","stimuli/tree_uppercase.png","219"
"html-button-response-mod","228","883461","0.0-228.0","76167","","","","","","triplet","3208.9000000953674","","","","2","stimuli/stim005_animate_bird_1.png","stimuli/fish_lowercase.png","stimuli/stim009_animate_face_1.png","220"
"html-button-response-mod","229","885628","0.0-229.0","76167","","","","","","triplet","1659.7000000476837","","","","2","stimuli/stim001_animate_fish_1.png","stimuli/fish_lowercase.png","stimuli/boats_lowercase.png","221"
"html-button-response-mod","230","889728","0.0-230.0","76167","","","","","","triplet","3596.7999999523163","","","","0","stimuli/face_lowercase.png","stimuli/stim020_inanimate_tree_4.png","stimuli/stim008_animate_bird_4.png","222"
"html-button-response-mod","231","892428","0.0-231.0","76167","","","","","","triplet","2193.2000000476837","","","","0","stimuli/tools_lowercase.png","stimuli/bird_lowercase.png","stimuli/tree_uppercase.png","223"
"html-button-response-mod","232","894128","0.0-232.0","76167","","","","","","triplet","1193.7999999523163","","","","1","stimuli/stim010_animate_face_2.png","stimuli/bird_lowercase.png","stimuli/stim009_animate_face_1.png","224"
"html-button-response-mod","233","896678","0.0-233.0","76167","","","","","","triplet","2047.2000000476837","","","","1","stimuli/stim002_animate_fish_2.png","stimuli/stim011_animate_face_3.png","stimuli/stim014_inanimate_boats_2.png","225"
"html-button-response-mod","234","902445","0.0-234.0","76167","","","","","","triplet","5259.599999904633","","","","0","stimuli/stim022_inanimate_tools_2.png","stimuli/bird_uppercase.png","stimuli/stim009_animate_face_1.png","226"
"html-button-response-mod","235","904528","0.0-235.0","76167","","","","","","triplet","1576.4000000953674","","","","2","stimuli/boats_uppercase.png","stimuli/boats_lowercase.png","stimuli/stim004_animate_fish_4.png","227"
"html-button-response-mod","236","908461","0.0-236.0","76167","","","","","","triplet","3430","","","","0","stimuli/stim019_inanimate_tree_3.png","stimuli/face_lowercase.png","stimuli/stim003_animate_fish_3.png","228"
"html-button-response-mod","237","911228","0.0-237.0","76167","","","","","","triplet","2261.100000143051","","","","1","stimuli/face_uppercase.png","stimuli/stim022_inanimate_tools_2.png","stimuli/stim012_animate_face_4.png","229"
"html-button-response-mod","238","916327","0.0-238.0","76167","","","","","","triplet","4592.700000047684","","","","1","stimuli/tools_uppercase.png","stimuli/tree_lowercase.png","stimuli/stim013_inanimate_boats_1.png","230"
"html-button-response-mod","239","920344","0.0-239.0","76167","","","","","","triplet","3513","","","","0","stimuli/stim017_inanimate_tree_1.png","stimuli/stim002_animate_fish_2.png","stimuli/stim015_inanimate_boats_3.png","231"
"html-button-response-mod","240","922311","0.0-240.0","76167","","","","","","triplet","1460.2000000476837","","","","0","stimuli/stim010_animate_face_2.png","stimuli/boats_lowercase.png","stimuli/stim015_inanimate_boats_3.png","232"
"html-button-response-mod","241","925661","0.0-241.0","76167","","","","","","triplet","2842.399999856949","","","","2","stimuli/stim020_inanimate_tree_4.png","stimuli/stim003_animate_fish_3.png","stimuli/stim009_animate_face_1.png","233"
"html-button-response-mod","242","931861","0.0-242.0","76167","","","","","","triplet","5693.299999952316","","","","2","stimuli/stim022_inanimate_tools_2.png","stimuli/stim014_inanimate_boats_2.png","stimuli/stim020_inanimate_tree_4.png","234"
"html-button-response-mod","243","936177","0.0-243.0","76167","","","","","","triplet","3809.5999999046326","","","","0","stimuli/stim024_inanimate_tools_4.png","stimuli/stim004_animate_fish_4.png","stimuli/stim006_animate_bird_2.png","235"
"html-button-response-mod","244","939661","0.0-244.0","76167","","","","","","triplet","2976.2000000476837","","","","1","stimuli/stim012_animate_face_4.png","stimuli/stim017_inanimate_tree_1.png","stimuli/fish_uppercase.png","236"
"html-button-response-mod","245","946128","0.0-245.0","76167","","","","","","triplet","5960.100000143051","","","","1","stimuli/fish_lowercase.png","stimuli/tools_lowercase.png","stimuli/stim013_inanimate_boats_1.png","237"
"html-button-response-mod","246","951493","0.0-246.0","76167","","","","","","triplet","4859.400000095367","","","","0","stimuli/boats_uppercase.png","stimuli/stim008_animate_bird_4.png","stimuli/stim007_animate_bird_3.png","238"
"html-button-response-mod","247","955760","0.0-247.0","76167","","","","","","triplet","3760.100000143051","","","","1","stimuli/face_uppercase.png","stimuli/stim024_inanimate_tools_4.png","stimuli/stim002_animate_fish_2.png","239"
"html-button-response-mod","248","957927","0.0-248.0","76167","","","","","","triplet","1660.1000001430511","","","","1","stimuli/bird_lowercase.png","stimuli/stim024_inanimate_tools_4.png","stimuli/tree_lowercase.png","240"
"html-button-response-mod","249","961127","0.0-249.0","76167","","","","","","triplet","2696.2999999523163","","","","1","stimuli/stim013_inanimate_boats_1.png","stimuli/stim012_animate_face_4.png","stimuli/tools_uppercase.png","241"
"html-button-response-mod","250","963727","0.0-250.0","76167","","","","","","triplet","2092.7000000476837","","","","2","stimuli/stim004_animate_fish_4.png","stimuli/stim001_animate_fish_1.png","stimuli/bird_lowercase.png","242"
"html-button-response-mod","251","965394","0.0-251.0","76167","","","","","","triplet","1160.0999999046326","","","","2","stimuli/boats_lowercase.png","stimuli/stim016_inanimate_boats_4.png","stimuli/stim003_animate_fish_3.png","243"
"html-button-response-mod","252","968561","0.0-252.0","76167","","","","","","triplet","2662","","","","0","stimuli/bird_uppercase.png","stimuli/boats_lowercase.png","stimuli/stim016_inanimate_boats_4.png","244"
"html-button-response-mod","253","970561","0.0-253.0","76167","","","","","","triplet","1492.5999999046326","","","","0","stimuli/stim015_inanimate_boats_3.png","stimuli/stim012_animate_face_4.png","stimuli/face_lowercase.png","245"
"html-button-response-mod","254","972661","0.0-254.0","76167","","","","","","triplet","1592.7000000476837","","","","1","stimuli/stim016_inanimate_boats_4.png","stimuli/bird_lowercase.png","stimuli/boats_lowercase.png","246"
"html-button-response-mod","255","974277","0.0-255.0","76167","","","","","","triplet","1109.4000000953674","","","","2","stimuli/stim001_animate_fish_1.png","stimuli/stim004_animate_fish_4.png","stimuli/stim016_inanimate_boats_4.png","247"
"html-button-response-mod","256","976377","0.0-256.0","76167","","","","","","triplet","1593.0999999046326","","","","0","stimuli/stim021_inanimate_tools_1.png","stimuli/stim015_inanimate_boats_3.png","stimuli/stim013_inanimate_boats_1.png","248"
"html-button-response-mod","257","978210","0.0-257.0","76167","","","","","","triplet","1327.4000000953674","","","","2","stimuli/stim005_animate_bird_1.png","stimuli/stim004_animate_fish_4.png","stimuli/stim024_inanimate_tools_4.png","249"
"html-button-response","258","1079192","0.0-258.0","76167","","","","","","break","100483.5","<p>BREAK</p><p>Take a break for as long as you need</p><p>Click the button to continue</p>","0","","","","","",""
"html-button-response-mod","259","1081226","0.0-259.0","76167","","","","","","triplet","2030.2000000476837","","","","0","stimuli/stim019_inanimate_tree_3.png","stimuli/tools_lowercase.png","stimuli/stim013_inanimate_boats_1.png","250"
"html-button-response-mod","260","1083142","0.0-260.0","76167","","","","","","triplet","1409.2000000476837","","","","0","stimuli/stim021_inanimate_tools_1.png","stimuli/bird_lowercase.png","stimuli/stim019_inanimate_tree_3.png","251"
"html-button-response-mod","261","1086009","0.0-261.0","76167","","","","","","triplet","2362.9000000953674","","","","2","stimuli/stim018_inanimate_tree_2.png","stimuli/stim011_animate_face_3.png","stimuli/boats_lowercase.png","252"
"html-button-response-mod","262","1088292","0.0-262.0","76167","","","","","","triplet","1778.0999999046326","","","","1","stimuli/stim012_animate_face_4.png","stimuli/stim022_inanimate_tools_2.png","stimuli/stim003_animate_fish_3.png","253"
"html-button-response-mod","263","1090525","0.0-263.0","76167","","","","","","triplet","1726.5999999046326","","","","1","stimuli/stim017_inanimate_tree_1.png","stimuli/stim012_animate_face_4.png","stimuli/stim006_animate_bird_2.png","254"
"html-button-response-mod","264","1092808","0.0-264.0","76167","","","","","","triplet","1776.5999999046326","","","","2","stimuli/bird_lowercase.png","stimuli/stim017_inanimate_tree_1.png","stimuli/stim004_animate_fish_4.png","255"
"html-button-response-mod","265","1096141","0.0-265.0","76167","","","","","","triplet","2825.7000000476837","","","","1","stimuli/stim019_inanimate_tree_3.png","stimuli/stim023_inanimate_tools_3.png","stimuli/stim003_animate_fish_3.png","256"
"html-button-response-mod","266","1097942","0.0-266.0","76167","","","","","","triplet","1293.3000001907349","","","","0","stimuli/stim015_inanimate_boats_3.png","stimuli/stim023_inanimate_tools_3.png","stimuli/stim024_inanimate_tools_4.png","257"
"html-button-response-mod","267","1101158","0.0-267.0","76167","","","","","","triplet","2709.7000000476837","","","","2","stimuli/stim005_animate_bird_1.png","stimuli/stim017_inanimate_tree_1.png","stimuli/fish_lowercase.png","258"
"html-button-response-mod","268","1105675","0.0-268.0","76167","","","","","","triplet","4009.4000000953674","","","","0","stimuli/face_lowercase.png","stimuli/stim015_inanimate_boats_3.png","stimuli/stim014_inanimate_boats_2.png","259"
"html-button-response-mod","269","1107808","0.0-269.0","76167","","","","","","triplet","1629","","","","2","stimuli/stim015_inanimate_boats_3.png","stimuli/stim004_animate_fish_4.png","stimuli/stim020_inanimate_tree_4.png","260"
"html-button-response-mod","270","1111409","0.0-270.0","76167","","","","","","triplet","3093","","","","0","stimuli/stim022_inanimate_tools_2.png","stimuli/stim002_animate_fish_2.png","stimuli/stim015_inanimate_boats_3.png","261"
"html-button-response-mod","271","1113859","0.0-271.0","76167","","","","","","triplet","1942.9000000953674","","","","1","stimuli/stim017_inanimate_tree_1.png","stimuli/stim002_animate_fish_2.png","stimuli/stim020_inanimate_tree_4.png","262"
"html-button-response-mod","272","1115408","0.0-272.0","76167","","","","","","triplet","1045.8999998569489","","","","2","stimuli/face_lowercase.png","stimuli/face_uppercase.png","stimuli/fish_lowercase.png","263"
"html-button-response-mod","273","1119575","0.0-273.0","76167","","","","","","triplet","3663.0999999046326","","","","0","stimuli/stim013_inanimate_boats_1.png","stimuli/stim012_animate_face_4.png","stimuli/stim004_animate_fish_4.png","264"
"html-button-response-mod","274","1124425","0.0-274.0","76167","","","","","","triplet","4343.5","","","","1","stimuli/tree_lowercase.png","stimuli/bird_uppercase.png","stimuli/stim017_inanimate_tree_1.png","265"
"html-button-response-mod","275","1127075","0.0-275.0","76167","","","","","","triplet","2145.300000190735","","","","0","stimuli/stim010_animate_face_2.png","stimuli/boats_lowercase.png","stimuli/stim001_animate_fish_1.png","266"
"html-button-response-mod","276","1132742","0.0-276.0","76167","","","","","","triplet","5160.299999952316","","","","0","stimuli/stim011_animate_face_3.png","stimuli/tree_uppercase.png","stimuli/bird_uppercase.png","267"
"html-button-response-mod","277","1135259","0.0-277.0","76167","","","","","","triplet","2009.5","","","","1","stimuli/stim023_inanimate_tools_3.png","stimuli/fish_uppercase.png","stimuli/stim021_inanimate_tools_1.png","268"
"html-button-response-mod","278","1137542","0.0-278.0","76167","","","","","","triplet","1775.7000000476837","","","","1","stimuli/tree_uppercase.png","stimuli/tools_lowercase.png","stimuli/stim020_inanimate_tree_4.png","269"
"html-button-response-mod","279","1139625","0.0-279.0","76167","","","","","","triplet","1579.1999998092651","","","","1","stimuli/tree_lowercase.png","stimuli/stim016_inanimate_boats_4.png","stimuli/stim017_inanimate_tree_1.png","270"
"html-button-response-mod","280","1141442","0.0-280.0","76167","","","","","","triplet","1310.2999999523163","","","","2","stimuli/tools_uppercase.png","stimuli/stim021_inanimate_tools_1.png","stimuli/bird_lowercase.png","271"
"html-button-response-mod","281","1143308","0.0-281.0","76167","","","","","","triplet","1361.3999998569489","","","","1","stimuli/stim007_animate_bird_3.png","stimuli/boats_lowercase.png","stimuli/stim005_animate_bird_1.png","272"
"html-button-response-mod","282","1145642","0.0-282.0","76167","","","","","","triplet","1826.7999999523163","","","","1","stimuli/stim003_animate_fish_3.png","stimuli/stim010_animate_face_2.png","stimuli/stim006_animate_bird_2.png","273"
"html-button-response-mod","283","1149242","0.0-283.0","76167","","","","","","triplet","3096.0999999046326","","","","2","stimuli/stim020_inanimate_tree_4.png","stimuli/stim009_animate_face_1.png","stimuli/boats_uppercase.png","274"
"html-button-response-mod","284","1150925","0.0-284.0","76167","","","","","","triplet","1178.7999999523163","","","","2","stimuli/stim015_inanimate_boats_3.png","stimuli/stim016_inanimate_boats_4.png","stimuli/stim012_animate_face_4.png","275"
"html-button-response-mod","285","1155391","0.0-285.0","76167","","","","","","triplet","3961.600000143051","","","","0","stimuli/boats_uppercase.png","stimuli/stim018_inanimate_tree_2.png","stimuli/face_lowercase.png","276"
"html-button-response-mod","286","1159025","0.0-286.0","76167","","","","","","triplet","3127","","","","1","stimuli/bird_lowercase.png","stimuli/stim013_inanimate_boats_1.png","stimuli/stim019_inanimate_tree_3.png","277"
"html-button-response-mod","287","1161274","0.0-287.0","76167","","","","","","triplet","1741.5999999046326","","","","2","stimuli/tree_uppercase.png","stimuli/tree_lowercase.png","stimuli/stim021_inanimate_tools_1.png","278"
"html-button-response-mod","288","1164974","0.0-288.0","76167","","","","","","triplet","3192.699999809265","","","","0","stimuli/stim016_inanimate_boats_4.png","stimuli/stim015_inanimate_boats_3.png","stimuli/stim014_inanimate_boats_2.png","279"
"html-button-response-mod","289","1169141","0.0-289.0","76167","","","","","","triplet","3659","","","","0","stimuli/stim019_inanimate_tree_3.png","stimuli/stim005_animate_bird_1.png","stimuli/stim004_animate_fish_4.png","280"
"html-button-response-mod","290","1170974","0.0-290.0","76167","","","","","","triplet","1326.5999999046326","","","","2","stimuli/stim006_animate_bird_2.png","stimuli/stim008_animate_bird_4.png","stimuli/stim021_inanimate_tools_1.png","281"
"html-button-response-mod","291","1174425","0.0-291.0","76167","","","","","","triplet","2942.7999999523163","","","","2","stimuli/fish_lowercase.png","stimuli/stim008_animate_bird_4.png","stimuli/face_uppercase.png","282"
"html-button-response-mod","292","1176674","0.0-292.0","76167","","","","","","triplet","1741.9000000953674","","","","2","stimuli/stim013_inanimate_boats_1.png","stimuli/stim021_inanimate_tools_1.png","stimuli/stim019_inanimate_tree_3.png","283"
"html-button-response-mod","293","1179409","0.0-293.0","76167","","","","","","triplet","2226.899999856949","","","","1","stimuli/stim019_inanimate_tree_3.png","stimuli/stim024_inanimate_tools_4.png","stimuli/stim010_animate_face_2.png","284"
"html-button-response-mod","294","1181458","0.0-294.0","76167","","","","","","triplet","1541.5","","","","0","stimuli/stim022_inanimate_tools_2.png","stimuli/stim015_inanimate_boats_3.png","stimuli/stim001_animate_fish_1.png","285"
"html-button-response-mod","295","1185492","0.0-295.0","76167","","","","","","triplet","3528.399999856949","","","","0","stimuli/bird_uppercase.png","stimuli/boats_lowercase.png","stimuli/fish_lowercase.png","286"
"html-button-response-mod","296","1189041","0.0-296.0","76167","","","","","","triplet","3044.2999999523163","","","","2","stimuli/fish_uppercase.png","stimuli/stim001_animate_fish_1.png","stimuli/stim020_inanimate_tree_4.png","287"
"html-button-response-mod","297","1192957","0.0-297.0","76167","","","","","","triplet","3409.100000143051","","","","2","stimuli/stim016_inanimate_boats_4.png","stimuli/stim021_inanimate_tools_1.png","stimuli/stim018_inanimate_tree_2.png","288"
"html-button-response-mod","298","1195474","0.0-298.0","76167","","","","","","triplet","2009","","","","1","stimuli/fish_lowercase.png","stimuli/stim021_inanimate_tools_1.png","stimuli/face_lowercase.png","289"
"html-button-response-mod","299","1199957","0.0-299.0","76167","","","","","","triplet","3978.800000190735","","","","0","stimuli/boats_uppercase.png","stimuli/stim017_inanimate_tree_1.png","stimuli/stim012_animate_face_4.png","290"
"html-button-response-mod","300","1203158","0.0-300.0","76167","","","","","","triplet","2694.600000143051","","","","0","stimuli/stim006_animate_bird_2.png","stimuli/stim023_inanimate_tools_3.png","stimuli/boats_uppercase.png","291"
"html-button-response-mod","301","1205742","0.0-301.0","76167","","","","","","triplet","2076.5","","","","2","stimuli/stim002_animate_fish_2.png","stimuli/tree_uppercase.png","stimuli/tools_uppercase.png","292"
"html-button-response-mod","302","1207674","0.0-302.0","76167","","","","","","triplet","1424.5","","","","0","stimuli/stim023_inanimate_tools_3.png","stimuli/stim001_animate_fish_1.png","stimuli/stim012_animate_face_4.png","293"
"html-button-response-mod","303","1209958","0.0-303.0","76167","","","","","","triplet","1775.8999998569489","","","","1","stimuli/tree_lowercase.png","stimuli/stim024_inanimate_tools_4.png","stimuli/stim010_animate_face_2.png","294"
"html-button-response-mod","304","1214274","0.0-304.0","76167","","","","","","triplet","3809.100000143051","","","","1","stimuli/boats_uppercase.png","stimuli/stim009_animate_face_1.png","stimuli/tools_lowercase.png","295"
"html-button-response-mod","305","1216791","0.0-305.0","76167","","","","","","triplet","2010.2000000476837","","","","0","stimuli/stim023_inanimate_tools_3.png","stimuli/boats_uppercase.png","stimuli/stim016_inanimate_boats_4.png","296"
"html-button-response-mod","306","1220357","0.0-306.0","76167","","","","","","triplet","3063.0999999046326","","","","1","stimuli/bird_lowercase.png","stimuli/tools_lowercase.png","stimuli/face_uppercase.png","297"
"html-button-response-mod","307","1223708","0.0-307.0","76167","","","","","","triplet","2843.7000000476837","","","","2","stimuli/stim007_animate_bird_3.png","stimuli/stim005_animate_bird_1.png","stimuli/face_uppercase.png","298"
"html-button-response-mod","308","1228140","0.0-308.0","76167","","","","","","triplet","3925.899999856949","","","","2","stimuli/stim017_inanimate_tree_1.png","stimuli/stim010_animate_face_2.png","stimuli/stim016_inanimate_boats_4.png","299"
"html-button-response","309","1233758","0.0-309.0","76167","","","","","","break","5110.5","<p>BREAK</p><p>Take a break for as long as you need</p><p>Click the button to continue</p>","0","","","","","",""
"html-button-response-mod","310","1236956","0.0-310.0","76167","","","","","","triplet","3195.7000000476837","","","","1","stimuli/stim006_animate_bird_2.png","stimuli/stim023_inanimate_tools_3.png","stimuli/stim011_animate_face_3.png","300"
"html-button-response-mod","311","1239574","0.0-311.0","76167","","","","","","triplet","2114.600000143051","","","","2","stimuli/fish_lowercase.png","stimuli/boats_lowercase.png","stimuli/stim022_inanimate_tools_2.png","301"
"html-button-response-mod","312","1241490","0.0-312.0","76167","","","","","","triplet","1409.1999998092651","","","","2","stimuli/stim014_inanimate_boats_2.png","stimuli/stim005_animate_bird_1.png","stimuli/stim022_inanimate_tools_2.png","302"
"html-button-response-mod","313","1243206","0.0-313.0","76167","","","","","","triplet","1213","","","","1","stimuli/stim007_animate_bird_3.png","stimuli/stim022_inanimate_tools_2.png","stimuli/bird_uppercase.png","303"
"html-button-response-mod","314","1244708","0.0-314.0","76167","","","","","","triplet","995.5","","","","1","stimuli/tools_lowercase.png","stimuli/stim020_inanimate_tree_4.png","stimuli/stim023_inanimate_tools_3.png","304"
"html-button-response-mod","315","1246891","0.0-315.0","76167","","","","","","triplet","1679.7999999523163","","","","2","stimuli/stim020_inanimate_tree_4.png","stimuli/tree_uppercase.png","stimuli/boats_uppercase.png","305"
"html-button-response-mod","316","1248340","0.0-316.0","76167","","","","","","triplet","942.6000001430511","","","","1","stimuli/stim010_animate_face_2.png","stimuli/stim004_animate_fish_4.png","stimuli/stim009_animate_face_1.png","306"
"html-button-response-mod","317","1251290","0.0-317.0","76167","","","","","","triplet","2446","","","","0","stimuli/stim020_inanimate_tree_4.png","stimuli/bird_lowercase.png","stimuli/fish_uppercase.png","307"
"html-button-response-mod","318","1253340","0.0-318.0","76167","","","","","","triplet","1543.1000001430511","","","","0","stimuli/tree_lowercase.png","stimuli/stim023_inanimate_tools_3.png","stimuli/stim022_inanimate_tools_2.png","308"
"html-button-response-mod","319","1257407","0.0-319.0","76167","","","","","","triplet","3559.4000000953674","","","","0","stimuli/stim010_animate_face_2.png","stimuli/tools_uppercase.png","stimuli/stim015_inanimate_boats_3.png","309"
"html-button-response-mod","320","1261906","0.0-320.0","76167","","","","","","triplet","3992","","","","0","stimuli/tree_uppercase.png","stimuli/stim003_animate_fish_3.png","stimuli/stim010_animate_face_2.png","310"
"html-button-response-mod","321","1263941","0.0-321.0","76167","","","","","","triplet","1530.5999999046326","","","","0","stimuli/stim016_inanimate_boats_4.png","stimuli/fish_lowercase.png","stimuli/stim001_animate_fish_1.png","311"
"html-button-response-mod","322","1266423","0.0-322.0","76167","","","","","","triplet","1975.2999999523163","","","","0","stimuli/stim011_animate_face_3.png","stimuli/fish_uppercase.png","stimuli/boats_uppercase.png","312"
"html-button-response-mod","323","1272040","0.0-323.0","76167","","","","","","triplet","5109.099999904633","","","","1","stimuli/stim009_animate_face_1.png","stimuli/stim016_inanimate_boats_4.png","stimuli/stim001_animate_fish_1.png","313"
"html-button-response-mod","324","1274390","0.0-324.0","76167","","","","","","triplet","1842.7999999523163","","","","2","stimuli/stim002_animate_fish_2.png","stimuli/stim003_animate_fish_3.png","stimuli/tree_uppercase.png","314"
"html-button-response-mod","325","1278907","0.0-325.0","76167","","","","","","triplet","4009.5","","","","0","stimuli/stim024_inanimate_tools_4.png","stimuli/stim012_animate_face_4.png","stimuli/stim019_inanimate_tree_3.png","315"
"html-button-response-mod","326","1282724","0.0-326.0","76167","","","","","","triplet","3309.399999856949","","","","2","stimuli/stim024_inanimate_tools_4.png","stimuli/boats_uppercase.png","stimuli/stim009_animate_face_1.png","316"
"html-button-response-mod","327","1284340","0.0-327.0","76167","","","","","","triplet","1110.0999999046326","","","","0","stimuli/tools_uppercase.png","stimuli/stim019_inanimate_tree_3.png","stimuli/stim018_inanimate_tree_2.png","317"
"html-button-response-mod","328","1286390","0.0-328.0","76167","","","","","","triplet","1542.0999999046326","","","","0","stimuli/stim010_animate_face_2.png","stimuli/stim024_inanimate_tools_4.png","stimuli/tools_uppercase.png","318"
"html-button-response-mod","329","1289107","0.0-329.0","76167","","","","","","triplet","2209.399999856949","","","","2","stimuli/bird_lowercase.png","stimuli/tree_lowercase.png","stimuli/stim015_inanimate_boats_3.png","319"
"html-button-response-mod","330","1291557","0.0-330.0","76167","","","","","","triplet","1942.8000001907349","","","","0","stimuli/face_uppercase.png","stimuli/tree_lowercase.png","stimuli/bird_lowercase.png","320"
"html-button-response-mod","331","1294390","0.0-331.0","76167","","","","","","triplet","2327.5","","","","2","stimuli/tree_lowercase.png","stimuli/bird_uppercase.png","stimuli/tools_uppercase.png","321"
"html-button-response-mod","332","1297607","0.0-332.0","76167","","","","","","triplet","2712.2000000476837","","","","2","stimuli/stim006_animate_bird_2.png","stimuli/stim007_animate_bird_3.png","stimuli/stim009_animate_face_1.png","322"
"html-button-response-mod","333","1300540","0.0-333.0","76167","","","","","","triplet","2425.199999809265","","","","0","stimuli/stim006_animate_bird_2.png","stimuli/boats_uppercase.png","stimuli/tools_lowercase.png","323"
"html-button-response-mod","334","1304457","0.0-334.0","76167","","","","","","triplet","3409.7999999523163","","","","1","stimuli/stim015_inanimate_boats_3.png","stimuli/fish_lowercase.png","stimuli/boats_uppercase.png","324"
"html-button-response-mod","335","1307090","0.0-335.0","76167","","","","","","triplet","2128.7000000476837","","","","0","stimuli/stim009_animate_face_1.png","stimuli/stim023_inanimate_tools_3.png","stimuli/tools_uppercase.png","325"
"html-button-response-mod","336","1309556","0.0-336.0","76167","","","","","","triplet","1961.2000000476837","","","","2","stimuli/fish_lowercase.png","stimuli/boats_uppercase.png","stimuli/stim018_inanimate_tree_2.png","326"
"html-button-response-mod","337","1315906","0.0-337.0","76167","","","","","","triplet","5842.700000047684","","","","1","stimuli/stim011_animate_face_3.png","stimuli/stim022_inanimate_tools_2.png","stimuli/stim006_animate_bird_2.png","327"
"html-button-response-mod","338","1318190","0.0-338.0","76167","","","","","","triplet","1775.7000000476837","","","","1","stimuli/stim016_inanimate_boats_4.png","stimuli/tree_lowercase.png","stimuli/stim014_inanimate_boats_2.png","328"
"html-button-response-mod","339","1320307","0.0-339.0","76167","","","","","","triplet","1609.2999999523163","","","","1","stimuli/stim004_animate_fish_4.png","stimuli/bird_uppercase.png","stimuli/stim001_animate_fish_1.png","329"
"html-button-response-mod","340","1322623","0.0-340.0","76167","","","","","","triplet","1809.4000000953674","","","","0","stimuli/stim023_inanimate_tools_3.png","stimuli/boats_lowercase.png","stimuli/stim015_inanimate_boats_3.png","330"
"html-button-response-mod","341","1327256","0.0-341.0","76167","","","","","","triplet","4125.400000095367","","","","2","stimuli/stim004_animate_fish_4.png","stimuli/bird_lowercase.png","stimuli/stim023_inanimate_tools_3.png","331"
"html-button-response-mod","342","1330406","0.0-342.0","76167","","","","","","triplet","2645.7000000476837","","","","0","stimuli/tools_uppercase.png","stimuli/fish_lowercase.png","stimuli/stim009_animate_face_1.png","332"
"html-button-response-mod","343","1332556","0.0-343.0","76167","","","","","","triplet","1642.9000000953674","","","","1","stimuli/fish_lowercase.png","stimuli/tools_uppercase.png","stimuli/stim014_inanimate_boats_2.png","333"
"html-button-response-mod","344","1337022","0.0-344.0","76167","","","","","","triplet","3960.399999856949","","","","2","stimuli/stim018_inanimate_tree_2.png","stimuli/stim007_animate_bird_3.png","stimuli/stim024_inanimate_tools_4.png","334"
"html-button-response-mod","345","1339406","0.0-345.0","76167","","","","","","triplet","1879.5999999046326","","","","2","stimuli/fish_uppercase.png","stimuli/fish_lowercase.png","stimuli/stim018_inanimate_tree_2.png","335"
"html-button-response-mod","346","1345856","0.0-346.0","76167","","","","","","triplet","5943.700000047684","","","","2","stimuli/tree_lowercase.png","stimuli/tree_uppercase.png","stimuli/stim020_inanimate_tree_4.png","336"
"html-button-response-mod","347","1348256","0.0-347.0","76167","","","","","","triplet","1896.5","","","","1","stimuli/stim019_inanimate_tree_3.png","stimuli/stim022_inanimate_tools_2.png","stimuli/face_lowercase.png","337"
"html-button-response-mod","348","1352072","0.0-348.0","76167","","","","","","triplet","3309.5999999046326","","","","0","stimuli/stim010_animate_face_2.png","stimuli/stim024_inanimate_tools_4.png","stimuli/stim016_inanimate_boats_4.png","338"
"html-button-response-mod","349","1355639","0.0-349.0","76167","","","","","","triplet","3059.399999856949","","","","1","stimuli/stim021_inanimate_tools_1.png","stimuli/stim003_animate_fish_3.png","stimuli/tools_lowercase.png","339"
"html-button-response-mod","350","1359556","0.0-350.0","76167","","","","","","triplet","3409.9000000953674","","","","0","stimuli/stim010_animate_face_2.png","stimuli/stim020_inanimate_tree_4.png","stimuli/stim008_animate_bird_4.png","340"
"html-button-response-mod","351","1364472","0.0-351.0","76167","","","","","","triplet","4409.699999809265","","","","0","stimuli/stim015_inanimate_boats_3.png","stimuli/stim019_inanimate_tree_3.png","stimuli/stim008_animate_bird_4.png","341"
"html-button-response-mod","352","1366689","0.0-352.0","76167","","","","","","triplet","1709.4000000953674","","","","2","stimuli/stim023_inanimate_tools_3.png","stimuli/tools_lowercase.png","stimuli/stim009_animate_face_1.png","342"
"html-button-response-mod","353","1370156","0.0-353.0","76167","","","","","","triplet","2960.100000143051","","","","2","stimuli/stim008_animate_bird_4.png","stimuli/tree_lowercase.png","stimuli/stim013_inanimate_boats_1.png","343"
"html-button-response-mod","354","1373254","0.0-354.0","76167","","","","","","triplet","2591.0999999046326","","","","2","stimuli/stim007_animate_bird_3.png","stimuli/stim010_animate_face_2.png","stimuli/stim016_inanimate_boats_4.png","344"
"html-button-response-mod","355","1376204","0.0-355.0","76167","","","","","","triplet","2444","","","","1","stimuli/stim018_inanimate_tree_2.png","stimuli/boats_lowercase.png","stimuli/stim012_animate_face_4.png","345"
"html-button-response-mod","356","1377988","0.0-356.0","76167","","","","","","triplet","1277.6000001430511","","","","2","stimuli/stim022_inanimate_tools_2.png","stimuli/stim024_inanimate_tools_4.png","stimuli/stim017_inanimate_tree_1.png","346"
"html-button-response-mod","357","1380756","0.0-357.0","76167","","","","","","triplet","2266","","","","1","stimuli/face_uppercase.png","stimuli/stim018_inanimate_tree_2.png","stimuli/stim012_animate_face_4.png","347"
"html-button-response-mod","358","1383638","0.0-358.0","76167","","","","","","triplet","2375.5","","","","2","stimuli/stim019_inanimate_tree_3.png","stimuli/stim012_animate_face_4.png","stimuli/stim023_inanimate_tools_3.png","348"
"html-button-response-mod","359","1385589","0.0-359.0","76167","","","","","","triplet","1443.7000000476837","","","","2","stimuli/face_lowercase.png","stimuli/face_uppercase.png","stimuli/tools_uppercase.png","349"
"html-button-response","360","1407356","0.0-360.0","76167","","","","","","break","21264.5","<p>BREAK</p><p>Take a break for as long as you need</p><p>Click the button to continue</p>","0","","","","","",""
"html-button-response-mod","361","1410072","0.0-361.0","76167","","","","","","triplet","2711.7999999523163","","","","0","stimuli/face_lowercase.png","stimuli/stim018_inanimate_tree_2.png","stimuli/stim004_animate_fish_4.png","350"
"html-button-response-mod","362","1413022","0.0-362.0","76167","","","","","","triplet","2442.5999999046326","","","","1","stimuli/stim004_animate_fish_4.png","stimuli/stim019_inanimate_tree_3.png","stimuli/stim006_animate_bird_2.png","351"
"html-button-response-mod","363","1415689","0.0-363.0","76167","","","","","","triplet","2159.5999999046326","","","","1","stimuli/face_uppercase.png","stimuli/tools_lowercase.png","stimuli/stim020_inanimate_tree_4.png","352"
"html-button-response-mod","364","1417822","0.0-364.0","76167","","","","","","triplet","1625.7999999523163","","","","0","stimuli/face_uppercase.png","stimuli/boats_uppercase.png","stimuli/stim002_animate_fish_2.png","353"
"html-button-response-mod","365","1421022","0.0-365.0","76167","","","","","","triplet","2693.5","","","","1","stimuli/stim005_animate_bird_1.png","stimuli/tools_uppercase.png","stimuli/tree_uppercase.png","354"
"html-button-response-mod","366","1422555","0.0-366.0","76167","","","","","","triplet","1026.0999999046326","","","","2","stimuli/stim001_animate_fish_1.png","stimuli/stim002_animate_fish_2.png","stimuli/stim019_inanimate_tree_3.png","355"
"html-button-response-mod","367","1425405","0.0-367.0","76167","","","","","","triplet","2342","","","","2","stimuli/stim019_inanimate_tree_3.png","stimuli/tree_lowercase.png","stimuli/boats_lowercase.png","356"
"html-button-response-mod","368","1428188","0.0-368.0","76167","","","","","","triplet","2275.2000000476837","","","","0","stimuli/stim020_inanimate_tree_4.png","stimuli/stim021_inanimate_tools_1.png","stimuli/boats_lowercase.png","357"
"html-button-response-mod","369","1430188","0.0-369.0","76167","","","","","","triplet","1492.7999999523163","","","","2","stimuli/stim018_inanimate_tree_2.png","stimuli/bird_lowercase.png","stimuli/stim024_inanimate_tools_4.png","358"
"html-button-response-mod","370","1432855","0.0-370.0","76167","","","","","","triplet","2159.4000000953674","","","","1","stimuli/stim006_animate_bird_2.png","stimuli/stim024_inanimate_tools_4.png","stimuli/tree_uppercase.png","359"
"html-button-response-mod","371","1435955","0.0-371.0","76167","","","","","","triplet","2592.2999999523163","","","","2","stimuli/stim001_animate_fish_1.png","stimuli/face_uppercase.png","stimuli/tools_uppercase.png","360"
"html-button-response-mod","372","1438972","0.0-372.0","76167","","","","","","triplet","2509.5","","","","0","stimuli/stim012_animate_face_4.png","stimuli/stim005_animate_bird_1.png","stimuli/tree_uppercase.png","361"
"html-button-response-mod","373","1443022","0.0-373.0","76167","","","","","","triplet","3545.300000190735","","","","0","stimuli/tools_uppercase.png","stimuli/tree_uppercase.png","stimuli/stim018_inanimate_tree_2.png","362"
"html-button-response-mod","374","1445055","0.0-374.0","76167","","","","","","triplet","1527.8999998569489","","","","0","stimuli/stim023_inanimate_tools_3.png","stimuli/stim009_animate_face_1.png","stimuli/stim005_animate_bird_1.png","363"
"html-button-response-mod","375","1446921","0.0-375.0","76167","","","","","","triplet","1361.9000000953674","","","","2","stimuli/stim010_animate_face_2.png","stimuli/stim012_animate_face_4.png","stimuli/bird_uppercase.png","364"
"html-button-response-mod","376","1450588","0.0-376.0","76167","","","","","","triplet","3159.899999856949","","","","0","stimuli/stim013_inanimate_boats_1.png","stimuli/stim001_animate_fish_1.png","stimuli/face_uppercase.png","365"
"html-button-response-mod","377","1453338","0.0-377.0","76167","","","","","","triplet","2243.399999856949","","","","2","stimuli/tools_uppercase.png","stimuli/boats_lowercase.png","stimuli/stim011_animate_face_3.png","366"
"html-button-response-mod","378","1456305","0.0-378.0","76167","","","","","","triplet","2458.7000000476837","","","","1","stimuli/face_lowercase.png","stimuli/stim015_inanimate_boats_3.png","stimuli/stim011_animate_face_3.png","367"
"html-button-response-mod","379","1460255","0.0-379.0","76167","","","","","","triplet","3443.100000143051","","","","1","stimuli/stim019_inanimate_tree_3.png","stimuli/stim021_inanimate_tools_1.png","stimuli/stim009_animate_face_1.png","368"
"html-button-response-mod","380","1462371","0.0-380.0","76167","","","","","","triplet","1608.2999999523163","","","","1","stimuli/stim005_animate_bird_1.png","stimuli/stim001_animate_fish_1.png","stimuli/bird_uppercase.png","369"
"html-button-response-mod","381","1464321","0.0-381.0","76167","","","","","","triplet","1442.3999998569489","","","","1","stimuli/stim009_animate_face_1.png","stimuli/stim017_inanimate_tree_1.png","stimuli/face_uppercase.png","370"
"html-button-response-mod","382","1466721","0.0-382.0","76167","","","","","","triplet","1895.2000000476837","","","","0","stimuli/stim020_inanimate_tree_4.png","stimuli/stim016_inanimate_boats_4.png","stimuli/stim022_inanimate_tools_2.png","371"
"html-button-response-mod","383","1468788","0.0-383.0","76167","","","","","","triplet","1559.5999999046326","","","","2","stimuli/bird_uppercase.png","stimuli/stim019_inanimate_tree_3.png","stimuli/stim010_animate_face_2.png","372"
"html-button-response-mod","384","1472486","0.0-384.0","76167","","","","","","triplet","3192.600000143051","","","","1","stimuli/stim015_inanimate_boats_3.png","stimuli/stim001_animate_fish_1.png","stimuli/stim014_inanimate_boats_2.png","373"
"html-button-response-mod","385","1475787","0.0-385.0","76167","","","","","","triplet","2793.800000190735","","","","1","stimuli/stim018_inanimate_tree_2.png","stimuli/stim024_inanimate_tools_4.png","stimuli/stim008_animate_bird_4.png","374"
"html-button-response-mod","386","1478838","0.0-386.0","76167","","","","","","triplet","2543.7000000476837","","","","2","stimuli/stim020_inanimate_tree_4.png","stimuli/face_uppercase.png","stimuli/boats_lowercase.png","375"
"html-button-response-mod","387","1482069","0.0-387.0","76167","","","","","","triplet","2726","","","","1","stimuli/stim013_inanimate_boats_1.png","stimuli/tree_uppercase.png","stimuli/fish_uppercase.png","376"
"html-button-response-mod","388","1484904","0.0-388.0","76167","","","","","","triplet","2331.100000143051","","","","2","stimuli/tree_lowercase.png","stimuli/stim020_inanimate_tree_4.png","stimuli/stim008_animate_bird_4.png","377"
"html-button-response-mod","389","1489620","0.0-389.0","76167","","","","","","triplet","4209.200000047684","","","","0","stimuli/boats_uppercase.png","stimuli/stim009_animate_face_1.png","stimuli/tree_uppercase.png","378"
"html-button-response-mod","390","1491971","0.0-390.0","76167","","","","","","triplet","1846.5999999046326","","","","1","stimuli/tree_uppercase.png","stimuli/stim021_inanimate_tools_1.png","stimuli/bird_lowercase.png","379"
"html-button-response-mod","391","1494688","0.0-391.0","76167","","","","","","triplet","2213.2999999523163","","","","2","stimuli/stim018_inanimate_tree_2.png","stimuli/face_lowercase.png","stimuli/stim013_inanimate_boats_1.png","380"
"html-button-response-mod","392","1497204","0.0-392.0","76167","","","","","","triplet","2009.5","","","","2","stimuli/stim005_animate_bird_1.png","stimuli/stim019_inanimate_tree_3.png","stimuli/tools_lowercase.png","381"
"html-button-response-mod","393","1500520","0.0-393.0","76167","","","","","","triplet","2808.7000000476837","","","","0","stimuli/stim017_inanimate_tree_1.png","stimuli/stim006_animate_bird_2.png","stimuli/stim001_animate_fish_1.png","382"
"html-button-response-mod","394","1503738","0.0-394.0","76167","","","","","","triplet","2710.2999999523163","","","","1","stimuli/stim005_animate_bird_1.png","stimuli/face_uppercase.png","stimuli/boats_uppercase.png","383"
"html-button-response-mod","395","1508086","0.0-395.0","76167","","","","","","triplet","3841.899999856949","","","","0","stimuli/bird_lowercase.png","stimuli/stim013_inanimate_boats_1.png","stimuli/tools_uppercase.png","384"
"html-button-response-mod","396","1511771","0.0-396.0","76167","","","","","","triplet","3176.7999999523163","","","","0","stimuli/stim017_inanimate_tree_1.png","stimuli/stim004_animate_fish_4.png","stimuli/stim007_animate_bird_3.png","385"
"html-button-response-mod","397","1513904","0.0-397.0","76167","","","","","","triplet","1626.1000001430511","","","","1","stimuli/stim023_inanimate_tools_3.png","stimuli/stim011_animate_face_3.png","stimuli/tools_uppercase.png","386"
"html-button-response-mod","398","1516070","0.0-398.0","76167","","","","","","triplet","1659.1999998092651","","","","1","stimuli/stim006_animate_bird_2.png","stimuli/stim016_inanimate_boats_4.png","stimuli/stim018_inanimate_tree_2.png","387"
"html-button-response-mod","399","1521471","0.0-399.0","76167","","","","","","triplet","4893","","","","0","stimuli/stim024_inanimate_tools_4.png","stimuli/stim010_animate_face_2.png","stimuli/tree_uppercase.png","388"
"html-button-response-mod","400","1524238","0.0-400.0","76167","","","","","","triplet","2259.7999999523163","","","","1","stimuli/stim003_animate_fish_3.png","stimuli/stim009_animate_face_1.png","stimuli/stim014_inanimate_boats_2.png","389"
"html-button-response-mod","401","1528954","0.0-401.0","76167","","","","","","triplet","4208.299999952316","","","","1","stimuli/stim005_animate_bird_1.png","stimuli/boats_uppercase.png","stimuli/stim010_animate_face_2.png","390"
"html-button-response-mod","402","1531671","0.0-402.0","76167","","","","","","triplet","2209.7000000476837","","","","2","stimuli/stim014_inanimate_boats_2.png","stimuli/fish_uppercase.png","stimuli/face_uppercase.png","391"
"html-button-response-mod","403","1536503","0.0-403.0","76167","","","","","","triplet","4325","","","","0","stimuli/stim013_inanimate_boats_1.png","stimuli/bird_lowercase.png","stimuli/stim009_animate_face_1.png","392"
"html-button-response-mod","404","1538504","0.0-404.0","76167","","","","","","triplet","1492.7999999523163","","","","1","stimuli/stim024_inanimate_tools_4.png","stimuli/stim005_animate_bird_1.png","stimuli/tools_lowercase.png","393"
"html-button-response-mod","405","1542184","0.0-405.0","76167","","","","","","triplet","3058.899999856949","","","","2","stimuli/stim008_animate_bird_4.png","stimuli/stim009_animate_face_1.png","stimuli/tree_uppercase.png","394"
"html-button-response-mod","406","1545935","0.0-406.0","76167","","","","","","triplet","3244.0999999046326","","","","2","stimuli/boats_uppercase.png","stimuli/stim015_inanimate_boats_3.png","stimuli/stim007_animate_bird_3.png","395"
"html-button-response-mod","407","1549035","0.0-407.0","76167","","","","","","triplet","2592.7999999523163","","","","0","stimuli/stim023_inanimate_tools_3.png","stimuli/bird_uppercase.png","stimuli/stim011_animate_face_3.png","396"
"html-button-response-mod","408","1552468","0.0-408.0","76167","","","","","","triplet","2925.600000143051","","","","2","stimuli/boats_uppercase.png","stimuli/stim013_inanimate_boats_1.png","stimuli/bird_lowercase.png","397"
"html-button-response-mod","409","1556102","0.0-409.0","76167","","","","","","triplet","3128.2999999523163","","","","1","stimuli/stim003_animate_fish_3.png","stimuli/stim001_animate_fish_1.png","stimuli/stim004_animate_fish_4.png","398"
"html-button-response-mod","410","1560020","0.0-410.0","76167","","","","","","triplet","3410.100000143051","","","","1","stimuli/tools_uppercase.png","stimuli/stim011_animate_face_3.png","stimuli/stim014_inanimate_boats_2.png","399"
"html-button-response","411","1562820","0.0-411.0","76167","","","","","","break","2295.0999999046326","<p>BREAK</p><p>Take a break for as long as you need</p><p>Click the button to continue</p>","0","","","","","",""
"survey-text","412","1640044","0.0-412.0","76167","","","","","","data_patterns","77201","","{""Q0"":""Determining wether they were natural (humans, animals, trees) or man made (boats, tools). Wether they are typically related to each other (birds in trees, fish with boats). Sometimes unintentionally pictures seemed to fit together better and vv for words.""}","","","","","",""
"survey-text","413","1643377","0.0-413.0","76167","","","","","","age_question","3328.7999999523163","","{""Age"":""19""}","","","","","",""
"html-button-response","414","1644609","0.0-414.0","76167","","","","","","gender_question","1229","How would you like your gender to be recorded?","1","","","","","",""
