"trial_type","trial_index","time_elapsed","internal_node_id","subject","success","timeout","failed_images","failed_audio","failed_video","test_part","rt","stimulus","response","end_time","button_pressed","stim0","stim1","stim2","trialnr"
"pavlovia","0","10","0.0-0.0","76061","","","","","","","","","","","","","","",""
"preload","1","1529","0.0-1.0","76061","true","false","[]","[]","[]","preload","","","","","","","","",""
"html-button-response","2","34171","0.0-2.0","76061","","","","","","","32640.19999998808","<p>Welcome to the experiment. To begin, please read the following and press the button at the bottom of the screen.</p><p></p><p><strong>Project Name: A study on cognitive processes involved in visual perception</p></strong><p></p><p><strong>PARTICIPANT INFORMATION STATEMENT</strong></p><p></p><strong>(1) What is the study about?</strong><br>You are invited to participate in a study that investigates the cognitive processes involved in perceiving and recognizing visual stimuli.If you decide to participate, you will be asked to complete a task in which you will view pictures, letters, numbers, or words presented on a computer screen.<br><strong>(2) Who can participate?</strong><br>Anyone aged 18 years or over with access to a computer (not a phone/tablet)<br><strong>(3) Where is the study located?</strong><br>The study will be conducted in your browser<br><strong>(4) Who is carrying out the study?</strong><br>The study is being conducted by Sophia Shatek from the Computational Cognitive Neuroscience laboratory at the University of Sydney.<br><strong>(5) What does the study involve?</strong><br>In this study, you will be asked to perform tasks where you will see different stimuli appear on the computer screen.You will respond by pressing a key or using a computer mouse.<br><strong>(6) How much time will the study take?</strong><br>The study takes about 30 minutes<br><strong>(7)	Can I withdraw from the study?</strong><br>Being in this study is completely voluntary - you are not under any obligation to consent. You can withdraw at any time without having to give a reason and without penalty.<br><strong>(8) Will anyone else know the results?</strong><br>All aspects of the study, including results, will be strictly confidential and only the researchers will have access to information on participants.The results and data from the study may be submitted for publication or shared with other research labs, but individual participants will not be identifiable.<br><strong>(9) Will the study benefit me?</strong><br>You will be awarded 0.5 credits for your participation.<br><strong>(10) Can I tell other people about the study?</strong><br>Yes, please tell them to contact Dr Thomas Carlson by email at thomas.carlson@sydney.edu.au.<br><strong>(11) What if I require further information about the study or my involvement in it?</strong><br>When you have read this information, the investigator will discuss it with you further and answer any questions you may have.If you would like to know more at any stage, please feel free to contact Dr Thomas Carlson directly by email at thomas.carlson@sydney.edu.au.If you would like to be informed about the outcomes of the study, contact Dr Thomas Carlson directly by email at thomas.carlson@sydney.edu.au.<br><strong>(12) What if I have a complaint or any concerns?</strong><br>Any person with concerns or complaints about the conduct of a research study can contact The Manager,Human Ethics Administration, University of Sydney on +61 2 8627 8176 (Telephone); +61 2 8627 8177 (Facsimile) or ro.humanethics@sydney.edu.au (Email).</p><p></p><strong>By participating in this experiment, you consent to participate in this study and acknowledge that:</strong><br>1. The procedures required for the project and the times involved have been explained to me, and any questions I have about the project have been answered to my satisfaction.<br>2.	I have read the Above Information Statement and have been given the opportunity to discuss the information and my involvement in the project with the researcher/s.<br>3. I understand that allowing my data to be used in research reports is completely voluntary - I am not under any obligation to consent.<br>4. I understand that my involvement is strictly confidential. I understand that any research data gathered from the results of the study may be publishedhowever no information about me will be used in any way that is identifiable.</p><p></p>","0","","","","","",""
"html-button-response","3","73169","0.0-3.0","76061","","","","","","opening_instructions","38996.39999999106","<p>In this experiment, you will see three images appear on the screen.</p><p>You need to click the 'odd one out', or the image </p><p>that is MOST CONCEPTUALLY DIFFERENT to the other two. </p><p>(e.g., the word 'tree' and a picture of a tree are conceptually SIMILAR, </p><p> but the word 'tree' and the word 'boat' are conceptually DIFFERENT even though they look similar) </p><p>Just go with your intuition, don't spend too long thinking about each one.</p>","0","77544.10000000894","","","","",""
"html-button-response-mod","4","75642","0.0-4.0","76061","","","","","","triplet","2470.699999988079","","","","2","stimuli/stim017_inanimate_tree_1.png","stimuli/stim005_animate_bird_1.png","stimuli/stim024_inanimate_tools_4.png","0"
"html-button-response-mod","5","77659","0.0-5.0","76061","","","","","","triplet","1512.5","","","","1","stimuli/stim017_inanimate_tree_1.png","stimuli/stim009_animate_face_1.png","stimuli/stim018_inanimate_tree_2.png","1"
"html-button-response-mod","6","86002","0.0-6.0","76061","","","","","","triplet","7840.800000011921","","","","2","stimuli/bird_uppercase.png","stimuli/stim014_inanimate_boats_2.png","stimuli/stim010_animate_face_2.png","2"
"html-button-response-mod","7","90547","0.0-7.0","76061","","","","","","triplet","4038.2000000029802","","","","1","stimuli/stim002_animate_fish_2.png","stimuli/tools_lowercase.png","stimuli/bird_uppercase.png","3"
"html-button-response-mod","8","93658","0.0-8.0","76061","","","","","","triplet","2608.8999999910593","","","","0","stimuli/stim023_inanimate_tools_3.png","stimuli/stim014_inanimate_boats_2.png","stimuli/bird_lowercase.png","4"
"html-button-response-mod","9","95958","0.0-9.0","76061","","","","","","triplet","1793.2000000029802","","","","1","stimuli/stim019_inanimate_tree_3.png","stimuli/stim022_inanimate_tools_2.png","stimuli/stim018_inanimate_tree_2.png","5"
"html-button-response-mod","10","98446","0.0-10.0","76061","","","","","","triplet","1984.800000011921","","","","0","stimuli/face_uppercase.png","stimuli/stim005_animate_bird_1.png","stimuli/stim007_animate_bird_3.png","6"
"html-button-response-mod","11","107323","0.0-11.0","76061","","","","","","triplet","8374.699999988079","","","","1","stimuli/stim006_animate_bird_2.png","stimuli/stim024_inanimate_tools_4.png","stimuli/face_uppercase.png","7"
"html-button-response-mod","12","110758","0.0-12.0","76061","","","","","","triplet","2932.5999999940395","","","","2","stimuli/stim013_inanimate_boats_1.png","stimuli/stim002_animate_fish_2.png","stimuli/stim022_inanimate_tools_2.png","8"
"html-button-response-mod","13","115010","0.0-13.0","76061","","","","","","triplet","3751.2999999970198","","","","1","stimuli/stim011_animate_face_3.png","stimuli/stim020_inanimate_tree_4.png","stimuli/stim012_animate_face_4.png","9"
"html-button-response-mod","14","117871","0.0-14.0","76061","","","","","","triplet","2358.2000000029802","","","","2","stimuli/stim014_inanimate_boats_2.png","stimuli/bird_uppercase.png","stimuli/tools_lowercase.png","10"
"html-button-response-mod","15","124569","0.0-15.0","76061","","","","","","triplet","6191.800000011921","","","","1","stimuli/stim019_inanimate_tree_3.png","stimuli/boats_lowercase.png","stimuli/bird_uppercase.png","11"
"html-button-response-mod","16","132396","0.0-16.0","76061","","","","","","triplet","7323.600000008941","","","","0","stimuli/stim022_inanimate_tools_2.png","stimuli/fish_lowercase.png","stimuli/face_lowercase.png","12"
"html-button-response-mod","17","137885","0.0-17.0","76061","","","","","","triplet","4983.699999988079","","","","0","stimuli/stim006_animate_bird_2.png","stimuli/boats_lowercase.png","stimuli/stim023_inanimate_tools_3.png","13"
"html-button-response-mod","18","148882","0.0-18.0","76061","","","","","","triplet","10494.800000011921","","","","0","stimuli/stim020_inanimate_tree_4.png","stimuli/stim023_inanimate_tools_3.png","stimuli/stim013_inanimate_boats_1.png","14"
"html-button-response-mod","19","154023","0.0-19.0","76061","","","","","","triplet","4639.0999999940395","","","","0","stimuli/stim023_inanimate_tools_3.png","stimuli/stim002_animate_fish_2.png","stimuli/fish_uppercase.png","15"
"html-button-response-mod","20","156429","0.0-20.0","76061","","","","","","triplet","1904.5","","","","2","stimuli/stim019_inanimate_tree_3.png","stimuli/stim020_inanimate_tree_4.png","stimuli/stim008_animate_bird_4.png","16"
"html-button-response-mod","21","159597","0.0-21.0","76061","","","","","","triplet","2665.5","","","","2","stimuli/stim004_animate_fish_4.png","stimuli/stim019_inanimate_tree_3.png","stimuli/stim012_animate_face_4.png","17"
"html-button-response-mod","22","162215","0.0-22.0","76061","","","","","","triplet","2116.2000000029802","","","","0","stimuli/stim006_animate_bird_2.png","stimuli/stim011_animate_face_3.png","stimuli/stim009_animate_face_1.png","18"
"html-button-response-mod","23","168356","0.0-23.0","76061","","","","","","triplet","5637.70000000298","","","","0","stimuli/stim008_animate_bird_4.png","stimuli/stim024_inanimate_tools_4.png","stimuli/boats_lowercase.png","19"
"html-button-response-mod","24","171709","0.0-24.0","76061","","","","","","triplet","2851.2999999970198","","","","0","stimuli/tools_uppercase.png","stimuli/stim013_inanimate_boats_1.png","stimuli/stim015_inanimate_boats_3.png","20"
"html-button-response-mod","25","174084","0.0-25.0","76061","","","","","","triplet","1871.6000000089407","","","","2","stimuli/fish_lowercase.png","stimuli/stim002_animate_fish_2.png","stimuli/bird_uppercase.png","21"
"html-button-response-mod","26","184678","0.0-26.0","76061","","","","","","triplet","10091.79999999702","","","","1","stimuli/stim015_inanimate_boats_3.png","stimuli/stim024_inanimate_tools_4.png","stimuli/boats_lowercase.png","22"
"html-button-response-mod","27","186590","0.0-27.0","76061","","","","","","triplet","1409","","","","1","stimuli/stim020_inanimate_tree_4.png","stimuli/stim015_inanimate_boats_3.png","stimuli/stim018_inanimate_tree_2.png","23"
"html-button-response-mod","28","188965","0.0-28.0","76061","","","","","","triplet","1871.2999999970198","","","","0","stimuli/face_lowercase.png","stimuli/boats_uppercase.png","stimuli/stim013_inanimate_boats_1.png","24"
"html-button-response-mod","29","191379","0.0-29.0","76061","","","","","","triplet","1912.2999999970198","","","","1","stimuli/stim006_animate_bird_2.png","stimuli/stim023_inanimate_tools_3.png","stimuli/stim018_inanimate_tree_2.png","25"
"html-button-response-mod","30","193234","0.0-30.0","76061","","","","","","triplet","1352.2000000029802","","","","2","stimuli/stim018_inanimate_tree_2.png","stimuli/stim017_inanimate_tree_1.png","stimuli/stim003_animate_fish_3.png","26"
"html-button-response-mod","31","202591","0.0-31.0","76061","","","","","","triplet","8854","","","","1","stimuli/stim011_animate_face_3.png","stimuli/stim022_inanimate_tools_2.png","stimuli/stim007_animate_bird_3.png","27"
"html-button-response-mod","32","207240","0.0-32.0","76061","","","","","","triplet","4145.29999999702","","","","2","stimuli/tree_lowercase.png","stimuli/bird_lowercase.png","stimuli/face_lowercase.png","28"
"html-button-response-mod","33","209436","0.0-33.0","76061","","","","","","triplet","1693.7999999970198","","","","1","stimuli/stim011_animate_face_3.png","stimuli/fish_uppercase.png","stimuli/stim009_animate_face_1.png","29"
"html-button-response-mod","34","216669","0.0-34.0","76061","","","","","","triplet","6730.5","","","","1","stimuli/boats_uppercase.png","stimuli/tree_lowercase.png","stimuli/stim003_animate_fish_3.png","30"
"html-button-response-mod","35","222113","0.0-35.0","76061","","","","","","triplet","4943","","","","2","stimuli/stim022_inanimate_tools_2.png","stimuli/boats_uppercase.png","stimuli/tree_uppercase.png","31"
"html-button-response-mod","36","226187","0.0-36.0","76061","","","","","","triplet","3571.4000000059605","","","","0","stimuli/stim024_inanimate_tools_4.png","stimuli/bird_lowercase.png","stimuli/stim003_animate_fish_3.png","32"
"html-button-response-mod","37","230992","0.0-37.0","76061","","","","","","triplet","4303.20000000298","","","","2","stimuli/stim005_animate_bird_1.png","stimuli/stim009_animate_face_1.png","stimuli/stim024_inanimate_tools_4.png","33"
"html-button-response-mod","38","233495","0.0-38.0","76061","","","","","","triplet","2000.8999999910593","","","","1","stimuli/stim016_inanimate_boats_4.png","stimuli/fish_lowercase.png","stimuli/boats_uppercase.png","34"
"html-button-response-mod","39","237051","0.0-39.0","76061","","","","","","triplet","3054.5","","","","1","stimuli/stim012_animate_face_4.png","stimuli/boats_lowercase.png","stimuli/face_uppercase.png","35"
"html-button-response-mod","40","245092","0.0-40.0","76061","","","","","","triplet","7538.800000011921","","","","2","stimuli/stim007_animate_bird_3.png","stimuli/stim008_animate_bird_4.png","stimuli/boats_uppercase.png","36"
"html-button-response-mod","41","252015","0.0-41.0","76061","","","","","","triplet","6417.899999991059","","","","1","stimuli/boats_lowercase.png","stimuli/bird_uppercase.png","stimuli/stim023_inanimate_tools_3.png","37"
"html-button-response-mod","42","254730","0.0-42.0","76061","","","","","","triplet","2212.300000011921","","","","0","stimuli/bird_uppercase.png","stimuli/stim024_inanimate_tools_4.png","stimuli/stim021_inanimate_tools_1.png","38"
"html-button-response-mod","43","257694","0.0-43.0","76061","","","","","","triplet","2462.1000000089407","","","","1","stimuli/stim006_animate_bird_2.png","stimuli/stim016_inanimate_boats_4.png","stimuli/stim020_inanimate_tree_4.png","39"
"html-button-response-mod","44","259817","0.0-44.0","76061","","","","","","triplet","1620","","","","1","stimuli/tree_uppercase.png","stimuli/stim003_animate_fish_3.png","stimuli/stim017_inanimate_tree_1.png","40"
"html-button-response-mod","45","266562","0.0-45.0","76061","","","","","","triplet","6242.29999999702","","","","1","stimuli/stim008_animate_bird_4.png","stimuli/stim009_animate_face_1.png","stimuli/stim018_inanimate_tree_2.png","41"
"html-button-response-mod","46","269649","0.0-46.0","76061","","","","","","triplet","2583.3999999910593","","","","1","stimuli/tools_uppercase.png","stimuli/stim018_inanimate_tree_2.png","stimuli/stim015_inanimate_boats_3.png","42"
"html-button-response-mod","47","271730","0.0-47.0","76061","","","","","","triplet","1578.9000000059605","","","","0","stimuli/stim002_animate_fish_2.png","stimuli/tree_lowercase.png","stimuli/tree_uppercase.png","43"
"html-button-response-mod","48","277619","0.0-48.0","76061","","","","","","triplet","5386.29999999702","","","","2","stimuli/boats_uppercase.png","stimuli/stim001_animate_fish_1.png","stimuli/tree_lowercase.png","44"
"html-button-response-mod","49","282348","0.0-49.0","76061","","","","","","triplet","4226.199999988079","","","","1","stimuli/stim018_inanimate_tree_2.png","stimuli/stim021_inanimate_tools_1.png","stimuli/stim003_animate_fish_3.png","45"
"html-button-response-mod","50","285790","0.0-50.0","76061","","","","","","triplet","2939.2000000029802","","","","1","stimuli/tree_uppercase.png","stimuli/stim010_animate_face_2.png","stimuli/stim006_animate_bird_2.png","46"
"html-button-response-mod","51","289746","0.0-51.0","76061","","","","","","triplet","3453.6000000089407","","","","1","stimuli/stim015_inanimate_boats_3.png","stimuli/stim012_animate_face_4.png","stimuli/stim013_inanimate_boats_1.png","47"
"html-button-response-mod","52","296461","0.0-52.0","76061","","","","","","triplet","6212.0999999940395","","","","2","stimuli/stim018_inanimate_tree_2.png","stimuli/stim007_animate_bird_3.png","stimuli/tools_uppercase.png","48"
"html-button-response-mod","53","345679","0.0-53.0","76061","","","","","","triplet","48714.70000000298","","","","0","stimuli/bird_uppercase.png","stimuli/stim007_animate_bird_3.png","stimuli/stim006_animate_bird_2.png","49"
"html-button-response","54","354471","0.0-54.0","76061","","","","","","break","8290.20000000298","<p>BREAK</p><p>Take a break for as long as you need</p><p>Click the button to continue</p>","0","","","","","",""
"html-button-response-mod","55","356163","0.0-55.0","76061","","","","","","triplet","1690.7999999970198","","","","1","stimuli/stim013_inanimate_boats_1.png","stimuli/stim001_animate_fish_1.png","stimuli/stim016_inanimate_boats_4.png","50"
"html-button-response-mod","56","358019","0.0-56.0","76061","","","","","","triplet","1353","","","","2","stimuli/stim006_animate_bird_2.png","stimuli/stim007_animate_bird_3.png","stimuli/stim010_animate_face_2.png","51"
"html-button-response-mod","57","361786","0.0-57.0","76061","","","","","","triplet","3264.5999999940395","","","","2","stimuli/stim001_animate_fish_1.png","stimuli/bird_lowercase.png","stimuli/stim010_animate_face_2.png","52"
"html-button-response-mod","58","364223","0.0-58.0","76061","","","","","","triplet","1934.2000000029802","","","","2","stimuli/fish_uppercase.png","stimuli/stim012_animate_face_4.png","stimuli/tools_lowercase.png","53"
"html-button-response-mod","59","366677","0.0-59.0","76061","","","","","","triplet","1952.3999999910593","","","","1","stimuli/bird_lowercase.png","stimuli/face_uppercase.png","stimuli/stim006_animate_bird_2.png","54"
"html-button-response-mod","60","374506","0.0-60.0","76061","","","","","","triplet","7326.4000000059605","","","","2","stimuli/stim017_inanimate_tree_1.png","stimuli/stim008_animate_bird_4.png","stimuli/stim011_animate_face_3.png","55"
"html-button-response-mod","61","376686","0.0-61.0","76061","","","","","","triplet","1678","","","","0","stimuli/stim018_inanimate_tree_2.png","stimuli/tools_uppercase.png","stimuli/stim022_inanimate_tools_2.png","56"
"html-button-response-mod","62","380258","0.0-62.0","76061","","","","","","triplet","3070.5","","","","2","stimuli/stim014_inanimate_boats_2.png","stimuli/fish_uppercase.png","stimuli/stim005_animate_bird_1.png","57"
"html-button-response-mod","63","383149","0.0-63.0","76061","","","","","","triplet","2388.7999999970198","","","","1","stimuli/stim001_animate_fish_1.png","stimuli/stim016_inanimate_boats_4.png","stimuli/fish_uppercase.png","58"
"html-button-response-mod","64","384857","0.0-64.0","76061","","","","","","triplet","1206","","","","1","stimuli/face_lowercase.png","stimuli/stim007_animate_bird_3.png","stimuli/stim009_animate_face_1.png","59"
"html-button-response-mod","65","387368","0.0-65.0","76061","","","","","","triplet","2007.1000000089407","","","","1","stimuli/stim015_inanimate_boats_3.png","stimuli/stim010_animate_face_2.png","stimuli/boats_lowercase.png","60"
"html-button-response-mod","66","389093","0.0-66.0","76061","","","","","","triplet","1223.5","","","","1","stimuli/stim017_inanimate_tree_1.png","stimuli/stim004_animate_fish_4.png","stimuli/stim020_inanimate_tree_4.png","61"
"html-button-response-mod","67","391758","0.0-67.0","76061","","","","","","triplet","2163.5","","","","0","stimuli/stim008_animate_bird_4.png","stimuli/stim015_inanimate_boats_3.png","stimuli/fish_lowercase.png","62"
"html-button-response-mod","68","398383","0.0-68.0","76061","","","","","","triplet","6121.29999999702","","","","1","stimuli/stim001_animate_fish_1.png","stimuli/tools_lowercase.png","stimuli/stim010_animate_face_2.png","63"
"html-button-response-mod","69","401469","0.0-69.0","76061","","","","","","triplet","2583.800000011921","","","","2","stimuli/stim013_inanimate_boats_1.png","stimuli/stim022_inanimate_tools_2.png","stimuli/bird_lowercase.png","64"
"html-button-response-mod","70","403694","0.0-70.0","76061","","","","","","triplet","1723.2999999970198","","","","0","stimuli/stim006_animate_bird_2.png","stimuli/stim022_inanimate_tools_2.png","stimuli/tools_uppercase.png","65"
"html-button-response-mod","71","407241","0.0-71.0","76061","","","","","","triplet","3045.7999999970198","","","","0","stimuli/stim012_animate_face_4.png","stimuli/stim016_inanimate_boats_4.png","stimuli/boats_uppercase.png","66"
"html-button-response-mod","72","410214","0.0-72.0","76061","","","","","","triplet","2469.6000000089407","","","","0","stimuli/tools_lowercase.png","stimuli/stim007_animate_bird_3.png","stimuli/bird_uppercase.png","67"
"html-button-response-mod","73","414123","0.0-73.0","76061","","","","","","triplet","3407.3999999910593","","","","0","stimuli/stim023_inanimate_tools_3.png","stimuli/stim003_animate_fish_3.png","stimuli/stim007_animate_bird_3.png","68"
"html-button-response-mod","74","417673","0.0-74.0","76061","","","","","","triplet","3047.4000000059605","","","","0","stimuli/stim024_inanimate_tools_4.png","stimuli/stim005_animate_bird_1.png","stimuli/stim020_inanimate_tree_4.png","69"
"html-button-response-mod","75","420449","0.0-75.0","76061","","","","","","triplet","2274.2000000029802","","","","0","stimuli/tools_uppercase.png","stimuli/stim020_inanimate_tree_4.png","stimuli/stim002_animate_fish_2.png","70"
"html-button-response-mod","76","424918","0.0-76.0","76061","","","","","","triplet","3967.3999999910593","","","","1","stimuli/stim004_animate_fish_4.png","stimuli/stim019_inanimate_tree_3.png","stimuli/boats_lowercase.png","71"
"html-button-response-mod","77","427146","0.0-77.0","76061","","","","","","triplet","1725.5999999940395","","","","2","stimuli/stim004_animate_fish_4.png","stimuli/stim007_animate_bird_3.png","stimuli/face_uppercase.png","72"
"html-button-response-mod","78","429041","0.0-78.0","76061","","","","","","triplet","1392.7999999970198","","","","1","stimuli/stim014_inanimate_boats_2.png","stimuli/stim010_animate_face_2.png","stimuli/stim015_inanimate_boats_3.png","73"
"html-button-response-mod","79","432474","0.0-79.0","76061","","","","","","triplet","2931.7000000029802","","","","2","stimuli/stim007_animate_bird_3.png","stimuli/bird_uppercase.png","stimuli/stim019_inanimate_tree_3.png","74"
"html-button-response-mod","80","433989","0.0-80.0","76061","","","","","","triplet","1013.3000000119209","","","","2","stimuli/stim024_inanimate_tools_4.png","stimuli/stim022_inanimate_tools_2.png","stimuli/stim009_animate_face_1.png","75"
"html-button-response-mod","81","438785","0.0-81.0","76061","","","","","","triplet","4293","","","","1","stimuli/stim006_animate_bird_2.png","stimuli/fish_uppercase.png","stimuli/stim020_inanimate_tree_4.png","76"
"html-button-response-mod","82","452123","0.0-82.0","76061","","","","","","triplet","12836.39999999106","","","","2","stimuli/stim005_animate_bird_1.png","stimuli/stim010_animate_face_2.png","stimuli/boats_lowercase.png","77"
"html-button-response-mod","83","454966","0.0-83.0","76061","","","","","","triplet","2340.2000000029802","","","","2","stimuli/bird_lowercase.png","stimuli/stim008_animate_bird_4.png","stimuli/fish_uppercase.png","78"
"html-button-response-mod","84","461524","0.0-84.0","76061","","","","","","triplet","6055.5","","","","0","stimuli/stim010_animate_face_2.png","stimuli/bird_uppercase.png","stimuli/fish_lowercase.png","79"
"html-button-response-mod","85","464741","0.0-85.0","76061","","","","","","triplet","2714.9000000059605","","","","2","stimuli/stim015_inanimate_boats_3.png","stimuli/stim013_inanimate_boats_1.png","stimuli/fish_lowercase.png","80"
"html-button-response-mod","86","471004","0.0-86.0","76061","","","","","","triplet","5760.79999999702","","","","0","stimuli/bird_lowercase.png","stimuli/stim016_inanimate_boats_4.png","stimuli/fish_lowercase.png","81"
"html-button-response-mod","87","475908","0.0-87.0","76061","","","","","","triplet","4400.9000000059605","","","","2","stimuli/bird_uppercase.png","stimuli/stim018_inanimate_tree_2.png","stimuli/stim009_animate_face_1.png","82"
"html-button-response-mod","88","479505","0.0-88.0","76061","","","","","","triplet","3094.4000000059605","","","","2","stimuli/boats_lowercase.png","stimuli/boats_uppercase.png","stimuli/face_lowercase.png","83"
"html-button-response-mod","89","483111","0.0-89.0","76061","","","","","","triplet","3104.7000000029802","","","","1","stimuli/stim013_inanimate_boats_1.png","stimuli/fish_uppercase.png","stimuli/stim022_inanimate_tools_2.png","84"
"html-button-response-mod","90","487274","0.0-90.0","76061","","","","","","triplet","3660.1000000089407","","","","0","stimuli/stim012_animate_face_4.png","stimuli/stim017_inanimate_tree_1.png","stimuli/tools_uppercase.png","85"
"html-button-response-mod","91","494980","0.0-91.0","76061","","","","","","triplet","7204","","","","0","stimuli/tools_uppercase.png","stimuli/stim006_animate_bird_2.png","stimuli/stim017_inanimate_tree_1.png","86"
"html-button-response-mod","92","498318","0.0-92.0","76061","","","","","","triplet","2835.5","","","","2","stimuli/stim018_inanimate_tree_2.png","stimuli/stim008_animate_bird_4.png","stimuli/stim016_inanimate_boats_4.png","87"
"html-button-response-mod","93","500942","0.0-93.0","76061","","","","","","triplet","2121.5","","","","1","stimuli/tree_lowercase.png","stimuli/stim015_inanimate_boats_3.png","stimuli/bird_lowercase.png","88"
"html-button-response-mod","94","513900","0.0-94.0","76061","","","","","","triplet","12456.09999999404","","","","1","stimuli/stim001_animate_fish_1.png","stimuli/stim010_animate_face_2.png","stimuli/stim017_inanimate_tree_1.png","89"
"html-button-response-mod","95","567860","0.0-95.0","76061","","","","","","triplet","53457","","","","2","stimuli/tree_lowercase.png","stimuli/stim017_inanimate_tree_1.png","stimuli/stim006_animate_bird_2.png","90"
"html-button-response-mod","96","700578","0.0-96.0","76061","","","","","","triplet","132215.70000000298","","","","2","stimuli/stim017_inanimate_tree_1.png","stimuli/stim020_inanimate_tree_4.png","stimuli/stim024_inanimate_tools_4.png","91"
"html-button-response-mod","97","702827","0.0-97.0","76061","","","","","","triplet","1742.4000000059605","","","","1","stimuli/stim009_animate_face_1.png","stimuli/bird_lowercase.png","stimuli/face_uppercase.png","92"
"html-button-response-mod","98","704937","0.0-98.0","76061","","","","","","triplet","1607.6000000089407","","","","1","stimuli/stim013_inanimate_boats_1.png","stimuli/stim010_animate_face_2.png","stimuli/stim015_inanimate_boats_3.png","93"
"html-button-response-mod","99","706905","0.0-99.0","76061","","","","","","triplet","1466.4000000059605","","","","1","stimuli/tree_uppercase.png","stimuli/boats_lowercase.png","stimuli/stim019_inanimate_tree_3.png","94"
"html-button-response-mod","100","709530","0.0-100.0","76061","","","","","","triplet","2122.5","","","","2","stimuli/stim002_animate_fish_2.png","stimuli/stim016_inanimate_boats_4.png","stimuli/bird_uppercase.png","95"
"html-button-response-mod","101","715111","0.0-101.0","76061","","","","","","triplet","5079.199999988079","","","","0","stimuli/stim012_animate_face_4.png","stimuli/stim013_inanimate_boats_1.png","stimuli/stim022_inanimate_tools_2.png","96"
"html-button-response-mod","102","718472","0.0-102.0","76061","","","","","","triplet","2856.7000000029802","","","","2","stimuli/stim017_inanimate_tree_1.png","stimuli/stim008_animate_bird_4.png","stimuli/stim001_animate_fish_1.png","97"
"html-button-response-mod","103","720198","0.0-103.0","76061","","","","","","triplet","1223.7999999970198","","","","2","stimuli/tree_lowercase.png","stimuli/tree_uppercase.png","stimuli/bird_lowercase.png","98"
"html-button-response-mod","104","722069","0.0-104.0","76061","","","","","","triplet","1365.8999999910593","","","","0","stimuli/boats_uppercase.png","stimuli/stim019_inanimate_tree_3.png","stimuli/tree_lowercase.png","99"
"html-button-response","105","765471","0.0-105.0","76061","","","","","","break","42894.79999999702","<p>BREAK</p><p>Take a break for as long as you need</p><p>Click the button to continue</p>","0","","","","","",""
"html-button-response-mod","106","767504","0.0-106.0","76061","","","","","","triplet","2031.5999999940395","","","","2","stimuli/boats_uppercase.png","stimuli/tree_lowercase.png","stimuli/face_lowercase.png","100"
"html-button-response-mod","107","769530","0.0-107.0","76061","","","","","","triplet","1520.800000011921","","","","0","stimuli/tree_uppercase.png","stimuli/stim016_inanimate_boats_4.png","stimuli/boats_lowercase.png","101"
"html-button-response-mod","108","771304","0.0-108.0","76061","","","","","","triplet","1268.2999999970198","","","","2","stimuli/stim012_animate_face_4.png","stimuli/face_lowercase.png","stimuli/stim005_animate_bird_1.png","102"
"html-button-response-mod","109","780494","0.0-109.0","76061","","","","","","triplet","8687.09999999404","","","","1","stimuli/stim004_animate_fish_4.png","stimuli/stim022_inanimate_tools_2.png","stimuli/stim020_inanimate_tree_4.png","103"
"html-button-response-mod","110","795919","0.0-110.0","76061","","","","","","triplet","14922.29999999702","","","","0","stimuli/stim008_animate_bird_4.png","stimuli/stim015_inanimate_boats_3.png","stimuli/stim023_inanimate_tools_3.png","104"
"html-button-response-mod","111","872520","0.0-111.0","76061","","","","","","triplet","76097.5","","","","2","stimuli/tree_uppercase.png","stimuli/stim004_animate_fish_4.png","stimuli/stim010_animate_face_2.png","105"
"html-button-response-mod","112","882835","0.0-112.0","76061","","","","","","triplet","9812.60000000894","","","","1","stimuli/stim005_animate_bird_1.png","stimuli/stim021_inanimate_tools_1.png","stimuli/stim009_animate_face_1.png","106"
"html-button-response-mod","113","884594","0.0-113.0","76061","","","","","","triplet","1256.6000000089407","","","","0","stimuli/tree_uppercase.png","stimuli/stim002_animate_fish_2.png","stimuli/stim003_animate_fish_3.png","107"
"html-button-response-mod","114","893950","0.0-114.0","76061","","","","","","triplet","8853.20000000298","","","","1","stimuli/bird_uppercase.png","stimuli/face_uppercase.png","stimuli/stim015_inanimate_boats_3.png","108"
"html-button-response-mod","115","896000","0.0-115.0","76061","","","","","","triplet","1546.9000000059605","","","","0","stimuli/tools_uppercase.png","stimuli/fish_lowercase.png","stimuli/stim007_animate_bird_3.png","109"
"html-button-response-mod","116","897839","0.0-116.0","76061","","","","","","triplet","1336.2999999970198","","","","1","stimuli/tree_lowercase.png","stimuli/stim004_animate_fish_4.png","stimuli/stim019_inanimate_tree_3.png","110"
"html-button-response-mod","117","900447","0.0-117.0","76061","","","","","","triplet","2104.0999999940395","","","","0","stimuli/stim019_inanimate_tree_3.png","stimuli/stim014_inanimate_boats_2.png","stimuli/stim021_inanimate_tools_1.png","111"
"html-button-response-mod","118","902173","0.0-118.0","76061","","","","","","triplet","1222.0999999940395","","","","1","stimuli/stim004_animate_fish_4.png","stimuli/stim024_inanimate_tools_4.png","stimuli/stim008_animate_bird_4.png","112"
"html-button-response-mod","119","904473","0.0-119.0","76061","","","","","","triplet","1797.300000011921","","","","1","stimuli/stim024_inanimate_tools_4.png","stimuli/stim009_animate_face_1.png","stimuli/stim014_inanimate_boats_2.png","113"
"html-button-response-mod","120","906507","0.0-120.0","76061","","","","","","triplet","1531.8999999910593","","","","1","stimuli/tree_lowercase.png","stimuli/stim011_animate_face_3.png","stimuli/stim006_animate_bird_2.png","114"
"html-button-response-mod","121","909090","0.0-121.0","76061","","","","","","triplet","2080.199999988079","","","","1","stimuli/fish_lowercase.png","stimuli/tree_lowercase.png","stimuli/stim015_inanimate_boats_3.png","115"
"html-button-response-mod","122","911164","0.0-122.0","76061","","","","","","triplet","1572.2999999970198","","","","1","stimuli/stim020_inanimate_tree_4.png","stimuli/face_uppercase.png","stimuli/tree_lowercase.png","116"
"html-button-response-mod","123","913595","0.0-123.0","76061","","","","","","triplet","1928.5","","","","0","stimuli/stim022_inanimate_tools_2.png","stimuli/bird_uppercase.png","stimuli/stim006_animate_bird_2.png","117"
"html-button-response-mod","124","916577","0.0-124.0","76061","","","","","","triplet","2479","","","","0","stimuli/stim008_animate_bird_4.png","stimuli/stim022_inanimate_tools_2.png","stimuli/boats_lowercase.png","118"
"html-button-response-mod","125","920400","0.0-125.0","76061","","","","","","triplet","3321.2999999970198","","","","1","stimuli/stim019_inanimate_tree_3.png","stimuli/face_lowercase.png","stimuli/stim006_animate_bird_2.png","119"
"html-button-response-mod","126","924359","0.0-126.0","76061","","","","","","triplet","3455.7999999970198","","","","2","stimuli/boats_uppercase.png","stimuli/stim021_inanimate_tools_1.png","stimuli/stim019_inanimate_tree_3.png","120"
"html-button-response-mod","127","926750","0.0-127.0","76061","","","","","","triplet","1887.5","","","","0","stimuli/stim011_animate_face_3.png","stimuli/stim004_animate_fish_4.png","stimuli/stim015_inanimate_boats_3.png","121"
"html-button-response-mod","128","931538","0.0-128.0","76061","","","","","","triplet","4284.600000008941","","","","1","stimuli/bird_uppercase.png","stimuli/stim017_inanimate_tree_1.png","stimuli/stim006_animate_bird_2.png","122"
"html-button-response-mod","129","937115","0.0-129.0","76061","","","","","","triplet","5073.0999999940395","","","","2","stimuli/stim010_animate_face_2.png","stimuli/stim021_inanimate_tools_1.png","stimuli/stim017_inanimate_tree_1.png","123"
"html-button-response-mod","130","939546","0.0-130.0","76061","","","","","","triplet","1927.5999999940395","","","","0","stimuli/tools_uppercase.png","stimuli/stim016_inanimate_boats_4.png","stimuli/boats_uppercase.png","124"
"html-button-response-mod","131","947928","0.0-131.0","76061","","","","","","triplet","7880","","","","2","stimuli/stim024_inanimate_tools_4.png","stimuli/stim012_animate_face_4.png","stimuli/fish_lowercase.png","125"
"html-button-response-mod","132","950506","0.0-132.0","76061","","","","","","triplet","2074","","","","1","stimuli/stim006_animate_bird_2.png","stimuli/stim022_inanimate_tools_2.png","stimuli/stim020_inanimate_tree_4.png","126"
"html-button-response-mod","133","952150","0.0-133.0","76061","","","","","","triplet","1141.4000000059605","","","","0","stimuli/stim010_animate_face_2.png","stimuli/stim004_animate_fish_4.png","stimuli/stim002_animate_fish_2.png","127"
"html-button-response-mod","134","954158","0.0-134.0","76061","","","","","","triplet","1505.1000000089407","","","","0","stimuli/stim012_animate_face_4.png","stimuli/bird_lowercase.png","stimuli/stim017_inanimate_tree_1.png","128"
"html-button-response-mod","135","957902","0.0-135.0","76061","","","","","","triplet","3240.2000000029802","","","","1","stimuli/stim013_inanimate_boats_1.png","stimuli/tree_lowercase.png","stimuli/stim002_animate_fish_2.png","129"
"html-button-response-mod","136","961408","0.0-136.0","76061","","","","","","triplet","3003.6000000089407","","","","0","stimuli/face_lowercase.png","stimuli/boats_lowercase.png","stimuli/stim015_inanimate_boats_3.png","130"
"html-button-response-mod","137","963678","0.0-137.0","76061","","","","","","triplet","1766.3999999910593","","","","1","stimuli/boats_uppercase.png","stimuli/tools_lowercase.png","stimuli/stim013_inanimate_boats_1.png","131"
"html-button-response-mod","138","969406","0.0-138.0","76061","","","","","","triplet","5225.5","","","","0","stimuli/stim006_animate_bird_2.png","stimuli/stim015_inanimate_boats_3.png","stimuli/tools_lowercase.png","132"
"html-button-response-mod","139","972539","0.0-139.0","76061","","","","","","triplet","2628.8999999910593","","","","1","stimuli/boats_lowercase.png","stimuli/stim019_inanimate_tree_3.png","stimuli/stim022_inanimate_tools_2.png","133"
"html-button-response-mod","140","974304","0.0-140.0","76061","","","","","","triplet","1262","","","","0","stimuli/stim009_animate_face_1.png","stimuli/stim006_animate_bird_2.png","stimuli/stim005_animate_bird_1.png","134"
"html-button-response-mod","141","978252","0.0-141.0","76061","","","","","","triplet","3445.0999999940395","","","","0","stimuli/stim010_animate_face_2.png","stimuli/stim015_inanimate_boats_3.png","stimuli/tools_lowercase.png","135"
"html-button-response-mod","142","981764","0.0-142.0","76061","","","","","","triplet","3010.300000011921","","","","1","stimuli/stim019_inanimate_tree_3.png","stimuli/face_uppercase.png","stimuli/tree_lowercase.png","136"
"html-button-response-mod","143","983311","0.0-143.0","76061","","","","","","triplet","1044.5","","","","0","stimuli/stim018_inanimate_tree_2.png","stimuli/stim022_inanimate_tools_2.png","stimuli/stim024_inanimate_tools_4.png","137"
"html-button-response-mod","144","990713","0.0-144.0","76061","","","","","","triplet","6898.5","","","","1","stimuli/fish_lowercase.png","stimuli/stim023_inanimate_tools_3.png","stimuli/tree_uppercase.png","138"
"html-button-response-mod","145","992982","0.0-145.0","76061","","","","","","triplet","1766.300000011921","","","","1","stimuli/stim016_inanimate_boats_4.png","stimuli/stim001_animate_fish_1.png","stimuli/stim022_inanimate_tools_2.png","139"
"html-button-response-mod","146","996197","0.0-146.0","76061","","","","","","triplet","2711.4000000059605","","","","1","stimuli/stim003_animate_fish_3.png","stimuli/face_lowercase.png","stimuli/bird_uppercase.png","140"
"html-button-response-mod","147","999193","0.0-147.0","76061","","","","","","triplet","2494","","","","1","stimuli/stim012_animate_face_4.png","stimuli/stim001_animate_fish_1.png","stimuli/face_uppercase.png","141"
"html-button-response-mod","148","1002926","0.0-148.0","76061","","","","","","triplet","3230.4000000059605","","","","0","stimuli/stim013_inanimate_boats_1.png","stimuli/stim019_inanimate_tree_3.png","stimuli/tree_lowercase.png","142"
"html-button-response-mod","149","1005728","0.0-149.0","76061","","","","","","triplet","2299.699999988079","","","","2","stimuli/fish_uppercase.png","stimuli/stim001_animate_fish_1.png","stimuli/stim013_inanimate_boats_1.png","143"
"html-button-response-mod","150","1008751","0.0-150.0","76061","","","","","","triplet","2519.8999999910593","","","","0","stimuli/stim003_animate_fish_3.png","stimuli/stim023_inanimate_tools_3.png","stimuli/stim012_animate_face_4.png","144"
"html-button-response-mod","151","1011059","0.0-151.0","76061","","","","","","triplet","1805.7000000029802","","","","1","stimuli/fish_uppercase.png","stimuli/boats_lowercase.png","stimuli/stim001_animate_fish_1.png","145"
"html-button-response-mod","152","1013084","0.0-152.0","76061","","","","","","triplet","1522.0999999940395","","","","0","stimuli/stim006_animate_bird_2.png","stimuli/boats_uppercase.png","stimuli/stim016_inanimate_boats_4.png","146"
"html-button-response-mod","153","1027232","0.0-153.0","76061","","","","","","triplet","13645.39999999106","","","","1","stimuli/stim015_inanimate_boats_3.png","stimuli/face_lowercase.png","stimuli/tree_uppercase.png","147"
"html-button-response-mod","154","1029039","0.0-154.0","76061","","","","","","triplet","1304.5999999940395","","","","2","stimuli/stim007_animate_bird_3.png","stimuli/stim005_animate_bird_1.png","stimuli/stim013_inanimate_boats_1.png","148"
"html-button-response-mod","155","1032896","0.0-155.0","76061","","","","","","triplet","3354.2999999970198","","","","0","stimuli/stim024_inanimate_tools_4.png","stimuli/bird_uppercase.png","stimuli/stim001_animate_fish_1.png","149"
"html-button-response","156","1035083","0.0-156.0","76061","","","","","","break","1683.9000000059605","<p>BREAK</p><p>Take a break for as long as you need</p><p>Click the button to continue</p>","0","","","","","",""
"html-button-response-mod","157","1040971","0.0-157.0","76061","","","","","","triplet","5887.29999999702","","","","0","stimuli/fish_lowercase.png","stimuli/stim013_inanimate_boats_1.png","stimuli/stim022_inanimate_tools_2.png","150"
"html-button-response-mod","158","1044196","0.0-158.0","76061","","","","","","triplet","2721.2999999970198","","","","2","stimuli/stim013_inanimate_boats_1.png","stimuli/stim009_animate_face_1.png","stimuli/stim019_inanimate_tree_3.png","151"
"html-button-response-mod","159","1078143","0.0-159.0","76061","","","","","","triplet","33443.59999999404","","","","2","stimuli/stim018_inanimate_tree_2.png","stimuli/fish_lowercase.png","stimuli/stim010_animate_face_2.png","152"
"html-button-response-mod","160","1085552","0.0-160.0","76061","","","","","","triplet","6903.5","","","","0","stimuli/stim002_animate_fish_2.png","stimuli/stim012_animate_face_4.png","stimuli/tools_lowercase.png","153"
"html-button-response-mod","161","1087810","0.0-161.0","76061","","","","","","triplet","1755.4000000059605","","","","1","stimuli/stim018_inanimate_tree_2.png","stimuli/stim012_animate_face_4.png","stimuli/stim003_animate_fish_3.png","154"
"html-button-response-mod","162","1114066","0.0-162.0","76061","","","","","","triplet","25753.09999999404","","","","2","stimuli/boats_lowercase.png","stimuli/fish_lowercase.png","stimuli/stim011_animate_face_3.png","155"
"html-button-response-mod","163","1117663","0.0-163.0","76061","","","","","","triplet","3095.2000000029802","","","","1","stimuli/stim013_inanimate_boats_1.png","stimuli/stim003_animate_fish_3.png","stimuli/stim014_inanimate_boats_2.png","156"
"html-button-response-mod","164","1120085","0.0-164.0","76061","","","","","","triplet","1920.7000000029802","","","","2","stimuli/stim020_inanimate_tree_4.png","stimuli/stim019_inanimate_tree_3.png","stimuli/bird_uppercase.png","157"
"html-button-response-mod","165","1123324","0.0-165.0","76061","","","","","","triplet","2735.5999999940395","","","","1","stimuli/stim024_inanimate_tools_4.png","stimuli/stim019_inanimate_tree_3.png","stimuli/stim013_inanimate_boats_1.png","158"
"html-button-response-mod","166","1125275","0.0-166.0","76061","","","","","","triplet","1448","","","","1","stimuli/bird_lowercase.png","stimuli/stim023_inanimate_tools_3.png","stimuli/stim007_animate_bird_3.png","159"
"html-button-response-mod","167","1128175","0.0-167.0","76061","","","","","","triplet","2396.2999999970198","","","","1","stimuli/stim016_inanimate_boats_4.png","stimuli/stim011_animate_face_3.png","stimuli/stim024_inanimate_tools_4.png","160"
"html-button-response-mod","168","1129893","0.0-168.0","76061","","","","","","triplet","1214.7999999970198","","","","2","stimuli/stim021_inanimate_tools_1.png","stimuli/tools_uppercase.png","stimuli/stim002_animate_fish_2.png","161"
"html-button-response-mod","169","1131895","0.0-169.0","76061","","","","","","triplet","1498.3999999910593","","","","2","stimuli/stim008_animate_bird_4.png","stimuli/bird_lowercase.png","stimuli/stim016_inanimate_boats_4.png","162"
"html-button-response-mod","170","1133765","0.0-170.0","76061","","","","","","triplet","1366.9000000059605","","","","0","stimuli/stim015_inanimate_boats_3.png","stimuli/stim018_inanimate_tree_2.png","stimuli/tree_uppercase.png","163"
"html-button-response-mod","171","1138591","0.0-171.0","76061","","","","","","triplet","4322.9000000059605","","","","2","stimuli/boats_uppercase.png","stimuli/stim024_inanimate_tools_4.png","stimuli/stim017_inanimate_tree_1.png","164"
"html-button-response-mod","172","1140065","0.0-172.0","76061","","","","","","triplet","972.5","","","","1","stimuli/stim011_animate_face_3.png","stimuli/stim022_inanimate_tools_2.png","stimuli/stim012_animate_face_4.png","165"
"html-button-response-mod","173","1143218","0.0-173.0","76061","","","","","","triplet","2649.7000000029802","","","","0","stimuli/stim011_animate_face_3.png","stimuli/stim024_inanimate_tools_4.png","stimuli/stim013_inanimate_boats_1.png","166"
"html-button-response-mod","174","1148083","0.0-174.0","76061","","","","","","triplet","4362.20000000298","","","","2","stimuli/stim008_animate_bird_4.png","stimuli/fish_uppercase.png","stimuli/boats_uppercase.png","167"
"html-button-response-mod","175","1150601","0.0-175.0","76061","","","","","","triplet","2014.7000000029802","","","","0","stimuli/stim016_inanimate_boats_4.png","stimuli/stim005_animate_bird_1.png","stimuli/bird_lowercase.png","168"
"html-button-response-mod","176","1152886","0.0-176.0","76061","","","","","","triplet","1782","","","","0","stimuli/stim008_animate_bird_4.png","stimuli/stim018_inanimate_tree_2.png","stimuli/tree_uppercase.png","169"
"html-button-response-mod","177","1155622","0.0-177.0","76061","","","","","","triplet","2234.2999999970198","","","","0","stimuli/stim015_inanimate_boats_3.png","stimuli/bird_uppercase.png","stimuli/bird_lowercase.png","170"
"html-button-response-mod","178","1157770","0.0-178.0","76061","","","","","","triplet","1644.5","","","","2","stimuli/stim001_animate_fish_1.png","stimuli/fish_uppercase.png","stimuli/stim007_animate_bird_3.png","171"
"html-button-response-mod","179","1161941","0.0-179.0","76061","","","","","","triplet","3663.5999999940395","","","","2","stimuli/stim014_inanimate_boats_2.png","stimuli/stim023_inanimate_tools_3.png","stimuli/stim008_animate_bird_4.png","172"
"html-button-response-mod","180","1163882","0.0-180.0","76061","","","","","","triplet","1438.8999999910593","","","","1","stimuli/stim024_inanimate_tools_4.png","stimuli/stim020_inanimate_tree_4.png","stimuli/stim013_inanimate_boats_1.png","173"
"html-button-response-mod","181","1167491","0.0-181.0","76061","","","","","","triplet","3107.2999999970198","","","","0","stimuli/tree_uppercase.png","stimuli/stim023_inanimate_tools_3.png","stimuli/stim015_inanimate_boats_3.png","174"
"html-button-response-mod","182","1169364","0.0-182.0","76061","","","","","","triplet","1370.2999999970198","","","","1","stimuli/stim011_animate_face_3.png","stimuli/stim022_inanimate_tools_2.png","stimuli/stim010_animate_face_2.png","175"
"html-button-response-mod","183","1172674","0.0-183.0","76061","","","","","","triplet","2807.2999999970198","","","","0","stimuli/tools_uppercase.png","stimuli/stim003_animate_fish_3.png","stimuli/stim012_animate_face_4.png","176"
"html-button-response-mod","184","1174998","0.0-184.0","76061","","","","","","triplet","1821","","","","0","stimuli/stim021_inanimate_tools_1.png","stimuli/stim008_animate_bird_4.png","stimuli/fish_uppercase.png","177"
"html-button-response-mod","185","1178857","0.0-185.0","76061","","","","","","triplet","3357.2999999970198","","","","1","stimuli/bird_lowercase.png","stimuli/stim013_inanimate_boats_1.png","stimuli/stim020_inanimate_tree_4.png","178"
"html-button-response-mod","186","1181287","0.0-186.0","76061","","","","","","triplet","1927.3999999910593","","","","1","stimuli/stim022_inanimate_tools_2.png","stimuli/fish_lowercase.png","stimuli/tools_uppercase.png","179"
"html-button-response-mod","187","1185433","0.0-187.0","76061","","","","","","triplet","3643.3999999910593","","","","0","stimuli/stim008_animate_bird_4.png","stimuli/boats_uppercase.png","stimuli/stim001_animate_fish_1.png","180"
"html-button-response-mod","188","1187401","0.0-188.0","76061","","","","","","triplet","1465","","","","2","stimuli/tools_uppercase.png","stimuli/stim024_inanimate_tools_4.png","stimuli/stim016_inanimate_boats_4.png","181"
"html-button-response-mod","189","1189134","0.0-189.0","76061","","","","","","triplet","1229.9000000059605","","","","1","stimuli/boats_uppercase.png","stimuli/stim003_animate_fish_3.png","stimuli/stim013_inanimate_boats_1.png","182"
"html-button-response-mod","190","1191303","0.0-190.0","76061","","","","","","triplet","1666.4000000059605","","","","0","stimuli/tools_uppercase.png","stimuli/stim020_inanimate_tree_4.png","stimuli/bird_uppercase.png","183"
"html-button-response-mod","191","1192996","0.0-191.0","76061","","","","","","triplet","1190.3999999910593","","","","1","stimuli/tree_uppercase.png","stimuli/stim006_animate_bird_2.png","stimuli/tree_lowercase.png","184"
"html-button-response-mod","192","1195093","0.0-192.0","76061","","","","","","triplet","1594.5","","","","1","stimuli/stim007_animate_bird_3.png","stimuli/stim009_animate_face_1.png","stimuli/tree_uppercase.png","185"
"html-button-response-mod","193","1199620","0.0-193.0","76061","","","","","","triplet","4023.300000011921","","","","0","stimuli/tools_lowercase.png","stimuli/stim012_animate_face_4.png","stimuli/bird_lowercase.png","186"
"html-button-response-mod","194","1201984","0.0-194.0","76061","","","","","","triplet","1861","","","","2","stimuli/bird_lowercase.png","stimuli/stim006_animate_bird_2.png","stimuli/tools_lowercase.png","187"
"html-button-response-mod","195","1205197","0.0-195.0","76061","","","","","","triplet","2710.5","","","","1","stimuli/stim013_inanimate_boats_1.png","stimuli/bird_uppercase.png","stimuli/stim023_inanimate_tools_3.png","188"
"html-button-response-mod","196","1207020","0.0-196.0","76061","","","","","","triplet","1320.2999999970198","","","","0","stimuli/stim007_animate_bird_3.png","stimuli/tools_uppercase.png","stimuli/tools_lowercase.png","189"
"html-button-response-mod","197","1210196","0.0-197.0","76061","","","","","","triplet","2671.7999999970198","","","","2","stimuli/stim011_animate_face_3.png","stimuli/stim009_animate_face_1.png","stimuli/face_lowercase.png","190"
"html-button-response-mod","198","1216582","0.0-198.0","76061","","","","","","triplet","5883.600000008941","","","","0","stimuli/tools_lowercase.png","stimuli/bird_uppercase.png","stimuli/face_lowercase.png","191"
"html-button-response-mod","199","1220625","0.0-199.0","76061","","","","","","triplet","3541.0999999940395","","","","2","stimuli/stim003_animate_fish_3.png","stimuli/stim017_inanimate_tree_1.png","stimuli/stim021_inanimate_tools_1.png","192"
"html-button-response-mod","200","1222835","0.0-200.0","76061","","","","","","triplet","1706.0999999940395","","","","0","stimuli/stim015_inanimate_boats_3.png","stimuli/tools_uppercase.png","stimuli/stim021_inanimate_tools_1.png","193"
"html-button-response-mod","201","1225993","0.0-201.0","76061","","","","","","triplet","2654","","","","2","stimuli/stim018_inanimate_tree_2.png","stimuli/stim008_animate_bird_4.png","stimuli/stim011_animate_face_3.png","194"
"html-button-response-mod","202","1228366","0.0-202.0","76061","","","","","","triplet","1869.5999999940395","","","","1","stimuli/stim004_animate_fish_4.png","stimuli/tools_uppercase.png","stimuli/stim014_inanimate_boats_2.png","195"
"html-button-response-mod","203","1231993","0.0-203.0","76061","","","","","","triplet","3123.6000000089407","","","","2","stimuli/bird_uppercase.png","stimuli/tree_uppercase.png","stimuli/boats_uppercase.png","196"
"html-button-response-mod","204","1234399","0.0-204.0","76061","","","","","","triplet","1904","","","","0","stimuli/stim012_animate_face_4.png","stimuli/tools_lowercase.png","stimuli/tools_uppercase.png","197"
"html-button-response-mod","205","1239138","0.0-205.0","76061","","","","","","triplet","4235.5999999940395","","","","0","stimuli/face_lowercase.png","stimuli/stim006_animate_bird_2.png","stimuli/tools_uppercase.png","198"
"html-button-response-mod","206","1246495","0.0-206.0","76061","","","","","","triplet","6855.29999999702","","","","2","stimuli/bird_lowercase.png","stimuli/stim011_animate_face_3.png","stimuli/stim013_inanimate_boats_1.png","199"
"html-button-response","207","1251960","0.0-207.0","76061","","","","","","break","4962.9000000059605","<p>BREAK</p><p>Take a break for as long as you need</p><p>Click the button to continue</p>","0","","","","","",""
"html-button-response-mod","208","1253766","0.0-208.0","76061","","","","","","triplet","1804.8999999910593","","","","0","stimuli/stim021_inanimate_tools_1.png","stimuli/stim004_animate_fish_4.png","stimuli/stim005_animate_bird_1.png","200"
"html-button-response-mod","209","1256204","0.0-209.0","76061","","","","","","triplet","1935","","","","2","stimuli/stim015_inanimate_boats_3.png","stimuli/stim013_inanimate_boats_1.png","stimuli/stim018_inanimate_tree_2.png","201"
"html-button-response-mod","210","1313803","0.0-210.0","76061","","","","","","triplet","57094.40000000596","","","","2","stimuli/bird_lowercase.png","stimuli/stim018_inanimate_tree_2.png","stimuli/stim024_inanimate_tools_4.png","202"
"html-button-response-mod","211","1315576","0.0-211.0","76061","","","","","","triplet","1268.1000000089407","","","","0","stimuli/boats_lowercase.png","stimuli/stim001_animate_fish_1.png","stimuli/stim004_animate_fish_4.png","203"
"html-button-response-mod","212","1319124","0.0-212.0","76061","","","","","","triplet","3045.5999999940395","","","","1","stimuli/stim008_animate_bird_4.png","stimuli/stim022_inanimate_tools_2.png","stimuli/fish_lowercase.png","204"
"html-button-response-mod","213","1325888","0.0-213.0","76061","","","","","","triplet","6260.5999999940395","","","","1","stimuli/stim008_animate_bird_4.png","stimuli/stim022_inanimate_tools_2.png","stimuli/stim010_animate_face_2.png","205"
"html-button-response-mod","214","1328010","0.0-214.0","76061","","","","","","triplet","1615","","","","0","stimuli/stim009_animate_face_1.png","stimuli/fish_lowercase.png","stimuli/boats_uppercase.png","206"
"html-button-response-mod","215","1330724","0.0-215.0","76061","","","","","","triplet","2206.7000000029802","","","","2","stimuli/stim018_inanimate_tree_2.png","stimuli/stim007_animate_bird_3.png","stimuli/stim021_inanimate_tools_1.png","207"
"html-button-response-mod","216","1334118","0.0-216.0","76061","","","","","","triplet","2891.0999999940395","","","","1","stimuli/stim012_animate_face_4.png","stimuli/stim005_animate_bird_1.png","stimuli/stim011_animate_face_3.png","208"
"html-button-response-mod","217","1336979","0.0-217.0","76061","","","","","","triplet","2358.2999999970198","","","","0","stimuli/stim015_inanimate_boats_3.png","stimuli/fish_uppercase.png","stimuli/fish_lowercase.png","209"
"html-button-response-mod","218","1342967","0.0-218.0","76061","","","","","","triplet","5484.9000000059605","","","","1","stimuli/stim005_animate_bird_1.png","stimuli/stim022_inanimate_tools_2.png","stimuli/stim011_animate_face_3.png","210"
"html-button-response-mod","219","1347041","0.0-219.0","76061","","","","","","triplet","3566.5","","","","0","stimuli/face_uppercase.png","stimuli/stim004_animate_fish_4.png","stimuli/bird_uppercase.png","211"
"html-button-response-mod","220","1349641","0.0-220.0","76061","","","","","","triplet","2097.0999999940395","","","","0","stimuli/tree_uppercase.png","stimuli/stim013_inanimate_boats_1.png","stimuli/boats_uppercase.png","212"
"html-button-response-mod","221","1352670","0.0-221.0","76061","","","","","","triplet","2525.800000011921","","","","2","stimuli/stim007_animate_bird_3.png","stimuli/tree_uppercase.png","stimuli/stim016_inanimate_boats_4.png","213"
"html-button-response-mod","222","1357839","0.0-222.0","76061","","","","","","triplet","4666.79999999702","","","","0","stimuli/stim011_animate_face_3.png","stimuli/bird_uppercase.png","stimuli/stim001_animate_fish_1.png","214"
"html-button-response-mod","223","1359994","0.0-223.0","76061","","","","","","triplet","1652.4000000059605","","","","2","stimuli/stim007_animate_bird_3.png","stimuli/bird_uppercase.png","stimuli/stim004_animate_fish_4.png","215"
"html-button-response-mod","224","1362173","0.0-224.0","76061","","","","","","triplet","1675.7999999970198","","","","1","stimuli/stim017_inanimate_tree_1.png","stimuli/tools_lowercase.png","stimuli/tree_uppercase.png","216"
"html-button-response-mod","225","1365403","0.0-225.0","76061","","","","","","triplet","2727.800000011921","","","","1","stimuli/stim019_inanimate_tree_3.png","stimuli/face_uppercase.png","stimuli/stim015_inanimate_boats_3.png","217"
"html-button-response-mod","226","1369550","0.0-226.0","76061","","","","","","triplet","3644.8999999910593","","","","1","stimuli/stim004_animate_fish_4.png","stimuli/boats_uppercase.png","stimuli/stim005_animate_bird_1.png","218"
"html-button-response-mod","227","1372304","0.0-227.0","76061","","","","","","triplet","2250.5999999940395","","","","0","stimuli/fish_uppercase.png","stimuli/face_uppercase.png","stimuli/stim012_animate_face_4.png","219"
"html-button-response-mod","228","1376840","0.0-228.0","76061","","","","","","triplet","4032.4000000059605","","","","1","stimuli/face_lowercase.png","stimuli/stim021_inanimate_tools_1.png","stimuli/stim019_inanimate_tree_3.png","220"
"html-button-response-mod","229","1384308","0.0-229.0","76061","","","","","","triplet","6965.199999988079","","","","0","stimuli/stim023_inanimate_tools_3.png","stimuli/stim005_animate_bird_1.png","stimuli/fish_lowercase.png","221"
"html-button-response-mod","230","1392870","0.0-230.0","76061","","","","","","triplet","8059.20000000298","","","","1","stimuli/stim003_animate_fish_3.png","stimuli/bird_uppercase.png","stimuli/stim016_inanimate_boats_4.png","222"
"html-button-response-mod","231","1396021","0.0-231.0","76061","","","","","","triplet","2647.0999999940395","","","","1","stimuli/stim013_inanimate_boats_1.png","stimuli/tools_lowercase.png","stimuli/stim001_animate_fish_1.png","223"
"html-button-response-mod","232","1398145","0.0-232.0","76061","","","","","","triplet","1620.7999999970198","","","","1","stimuli/stim010_animate_face_2.png","stimuli/stim022_inanimate_tools_2.png","stimuli/stim012_animate_face_4.png","224"
"html-button-response-mod","233","1416557","0.0-233.0","76061","","","","","","triplet","17909.10000000894","","","","2","stimuli/stim013_inanimate_boats_1.png","stimuli/stim014_inanimate_boats_2.png","stimuli/stim005_animate_bird_1.png","225"
"html-button-response-mod","234","1421198","0.0-234.0","76061","","","","","","triplet","4138.70000000298","","","","0","stimuli/face_uppercase.png","stimuli/stim016_inanimate_boats_4.png","stimuli/stim001_animate_fish_1.png","226"
"html-button-response-mod","235","1423327","0.0-235.0","76061","","","","","","triplet","1626.1000000089407","","","","0","stimuli/fish_lowercase.png","stimuli/tools_uppercase.png","stimuli/stim024_inanimate_tools_4.png","227"
"html-button-response-mod","236","1427402","0.0-236.0","76061","","","","","","triplet","3572.5999999940395","","","","2","stimuli/stim020_inanimate_tree_4.png","stimuli/stim017_inanimate_tree_1.png","stimuli/bird_lowercase.png","228"
"html-button-response-mod","237","1429046","0.0-237.0","76061","","","","","","triplet","1140.2999999970198","","","","0","stimuli/boats_uppercase.png","stimuli/stim009_animate_face_1.png","stimuli/stim010_animate_face_2.png","229"
"html-button-response-mod","238","1432781","0.0-238.0","76061","","","","","","triplet","3232","","","","0","stimuli/bird_lowercase.png","stimuli/stim001_animate_fish_1.png","stimuli/stim016_inanimate_boats_4.png","230"
"html-button-response-mod","239","1435859","0.0-239.0","76061","","","","","","triplet","2574.7999999970198","","","","1","stimuli/stim001_animate_fish_1.png","stimuli/stim005_animate_bird_1.png","stimuli/stim015_inanimate_boats_3.png","231"
"html-button-response-mod","240","1437675","0.0-240.0","76061","","","","","","triplet","1312.6000000089407","","","","2","stimuli/stim024_inanimate_tools_4.png","stimuli/tools_lowercase.png","stimuli/stim004_animate_fish_4.png","232"
"html-button-response-mod","241","1442461","0.0-241.0","76061","","","","","","triplet","4283.0999999940395","","","","2","stimuli/stim009_animate_face_1.png","stimuli/stim017_inanimate_tree_1.png","stimuli/stim024_inanimate_tools_4.png","233"
"html-button-response-mod","242","1446486","0.0-242.0","76061","","","","","","triplet","3521.7000000029802","","","","0","stimuli/fish_lowercase.png","stimuli/stim009_animate_face_1.png","stimuli/stim024_inanimate_tools_4.png","234"
"html-button-response-mod","243","1448147","0.0-243.0","76061","","","","","","triplet","1158.1000000089407","","","","1","stimuli/stim006_animate_bird_2.png","stimuli/stim009_animate_face_1.png","stimuli/stim003_animate_fish_3.png","235"
"html-button-response-mod","244","1453060","0.0-244.0","76061","","","","","","triplet","4410.699999988079","","","","2","stimuli/stim009_animate_face_1.png","stimuli/stim022_inanimate_tools_2.png","stimuli/tree_uppercase.png","236"
"html-button-response-mod","245","1457043","0.0-245.0","76061","","","","","","triplet","3481.0999999940395","","","","1","stimuli/boats_uppercase.png","stimuli/tree_lowercase.png","stimuli/stim021_inanimate_tools_1.png","237"
"html-button-response-mod","246","1459699","0.0-246.0","76061","","","","","","triplet","2152.2000000029802","","","","2","stimuli/stim021_inanimate_tools_1.png","stimuli/stim024_inanimate_tools_4.png","stimuli/stim006_animate_bird_2.png","238"
"html-button-response-mod","247","1461595","0.0-247.0","76061","","","","","","triplet","1394.5","","","","2","stimuli/stim017_inanimate_tree_1.png","stimuli/stim015_inanimate_boats_3.png","stimuli/stim008_animate_bird_4.png","239"
"html-button-response-mod","248","1463394","0.0-248.0","76061","","","","","","triplet","1295.6000000089407","","","","1","stimuli/stim005_animate_bird_1.png","stimuli/stim012_animate_face_4.png","stimuli/bird_uppercase.png","240"
"html-button-response-mod","249","1465791","0.0-249.0","76061","","","","","","triplet","1893.9000000059605","","","","1","stimuli/face_lowercase.png","stimuli/boats_lowercase.png","stimuli/stim012_animate_face_4.png","241"
"html-button-response-mod","250","1468376","0.0-250.0","76061","","","","","","triplet","2083","","","","0","stimuli/stim010_animate_face_2.png","stimuli/stim002_animate_fish_2.png","stimuli/boats_uppercase.png","242"
"html-button-response-mod","251","1469939","0.0-251.0","76061","","","","","","triplet","1060.5","","","","2","stimuli/stim018_inanimate_tree_2.png","stimuli/stim017_inanimate_tree_1.png","stimuli/stim004_animate_fish_4.png","243"
"html-button-response-mod","252","1474748","0.0-252.0","76061","","","","","","triplet","4305.899999991059","","","","1","stimuli/stim010_animate_face_2.png","stimuli/tree_uppercase.png","stimuli/stim015_inanimate_boats_3.png","244"
"html-button-response-mod","253","1480467","0.0-253.0","76061","","","","","","triplet","5217.699999988079","","","","2","stimuli/tree_uppercase.png","stimuli/face_lowercase.png","stimuli/stim022_inanimate_tools_2.png","245"
"html-button-response-mod","254","1482654","0.0-254.0","76061","","","","","","triplet","1684.0999999940395","","","","0","stimuli/stim018_inanimate_tree_2.png","stimuli/stim004_animate_fish_4.png","stimuli/stim014_inanimate_boats_2.png","246"
"html-button-response-mod","255","1487903","0.0-255.0","76061","","","","","","triplet","4746.79999999702","","","","0","stimuli/stim004_animate_fish_4.png","stimuli/stim012_animate_face_4.png","stimuli/tree_uppercase.png","247"
"html-button-response-mod","256","1490384","0.0-256.0","76061","","","","","","triplet","1977.5","","","","0","stimuli/stim024_inanimate_tools_4.png","stimuli/stim005_animate_bird_1.png","stimuli/bird_uppercase.png","248"
"html-button-response-mod","257","1493307","0.0-257.0","76061","","","","","","triplet","2420.3999999910593","","","","0","stimuli/stim012_animate_face_4.png","stimuli/stim008_animate_bird_4.png","stimuli/fish_uppercase.png","249"
"html-button-response","258","1495748","0.0-258.0","76061","","","","","","break","1938.5","<p>BREAK</p><p>Take a break for as long as you need</p><p>Click the button to continue</p>","0","","","","","",""
"html-button-response-mod","259","1497214","0.0-259.0","76061","","","","","","triplet","1464.2000000029802","","","","0","stimuli/bird_uppercase.png","stimuli/tools_lowercase.png","stimuli/stim022_inanimate_tools_2.png","250"
"html-button-response-mod","260","1499828","0.0-260.0","76061","","","","","","triplet","2112.2999999970198","","","","0","stimuli/stim017_inanimate_tree_1.png","stimuli/boats_uppercase.png","stimuli/stim010_animate_face_2.png","251"
"html-button-response-mod","261","1502373","0.0-261.0","76061","","","","","","triplet","2041.7000000029802","","","","0","stimuli/stim021_inanimate_tools_1.png","stimuli/stim001_animate_fish_1.png","stimuli/stim013_inanimate_boats_1.png","252"
"html-button-response-mod","262","1504822","0.0-262.0","76061","","","","","","triplet","1947","","","","2","stimuli/stim016_inanimate_boats_4.png","stimuli/stim003_animate_fish_3.png","stimuli/tree_uppercase.png","253"
"html-button-response-mod","263","1507455","0.0-263.0","76061","","","","","","triplet","2127.6000000089407","","","","0","stimuli/stim021_inanimate_tools_1.png","stimuli/bird_lowercase.png","stimuli/stim020_inanimate_tree_4.png","254"
"html-button-response-mod","264","1509075","0.0-264.0","76061","","","","","","triplet","1114.2000000029802","","","","2","stimuli/stim005_animate_bird_1.png","stimuli/stim008_animate_bird_4.png","stimuli/stim020_inanimate_tree_4.png","255"
"html-button-response-mod","265","1521644","0.0-265.0","76061","","","","","","triplet","12066.89999999106","","","","0","stimuli/stim020_inanimate_tree_4.png","stimuli/tools_lowercase.png","stimuli/stim012_animate_face_4.png","256"
"html-button-response-mod","266","1528570","0.0-266.0","76061","","","","","","triplet","6422.79999999702","","","","0","stimuli/boats_lowercase.png","stimuli/stim007_animate_bird_3.png","stimuli/stim019_inanimate_tree_3.png","257"
"html-button-response-mod","267","1532045","0.0-267.0","76061","","","","","","triplet","2971","","","","1","stimuli/stim019_inanimate_tree_3.png","stimuli/stim003_animate_fish_3.png","stimuli/stim010_animate_face_2.png","258"
"html-button-response-mod","268","1534531","0.0-268.0","76061","","","","","","triplet","1982.7999999970198","","","","2","stimuli/boats_lowercase.png","stimuli/stim016_inanimate_boats_4.png","stimuli/stim003_animate_fish_3.png","259"
"html-button-response-mod","269","1539270","0.0-269.0","76061","","","","","","triplet","4236.5","","","","1","stimuli/stim012_animate_face_4.png","stimuli/tree_uppercase.png","stimuli/stim023_inanimate_tools_3.png","260"
"html-button-response-mod","270","1543612","0.0-270.0","76061","","","","","","triplet","3838.6000000089407","","","","0","stimuli/boats_lowercase.png","stimuli/stim010_animate_face_2.png","stimuli/stim020_inanimate_tree_4.png","261"
"html-button-response-mod","271","1545571","0.0-271.0","76061","","","","","","triplet","1456.6000000089407","","","","2","stimuli/boats_lowercase.png","stimuli/stim015_inanimate_boats_3.png","stimuli/bird_lowercase.png","262"
"html-button-response-mod","272","1547476","0.0-272.0","76061","","","","","","triplet","1401.7000000029802","","","","1","stimuli/stim010_animate_face_2.png","stimuli/stim017_inanimate_tree_1.png","stimuli/stim006_animate_bird_2.png","263"
"html-button-response-mod","273","1550368","0.0-273.0","76061","","","","","","triplet","2390.5999999940395","","","","1","stimuli/stim023_inanimate_tools_3.png","stimuli/fish_lowercase.png","stimuli/boats_lowercase.png","264"
"html-button-response-mod","274","1552563","0.0-274.0","76061","","","","","","triplet","1690.8999999910593","","","","0","stimuli/boats_uppercase.png","stimuli/stim003_animate_fish_3.png","stimuli/stim002_animate_fish_2.png","265"
"html-button-response-mod","275","1555940","0.0-275.0","76061","","","","","","triplet","2873.9000000059605","","","","1","stimuli/boats_lowercase.png","stimuli/stim021_inanimate_tools_1.png","stimuli/stim019_inanimate_tree_3.png","266"
"html-button-response-mod","276","1557756","0.0-276.0","76061","","","","","","triplet","1312.5999999940395","","","","1","stimuli/stim006_animate_bird_2.png","stimuli/face_lowercase.png","stimuli/stim002_animate_fish_2.png","267"
"html-button-response-mod","277","1562243","0.0-277.0","76061","","","","","","triplet","3985.2000000029802","","","","1","stimuli/stim009_animate_face_1.png","stimuli/stim002_animate_fish_2.png","stimuli/boats_lowercase.png","268"
"html-button-response-mod","278","1565540","0.0-278.0","76061","","","","","","triplet","2792.7000000029802","","","","0","stimuli/bird_lowercase.png","stimuli/fish_uppercase.png","stimuli/stim003_animate_fish_3.png","269"
"html-button-response-mod","279","1568943","0.0-279.0","76061","","","","","","triplet","2901.7000000029802","","","","2","stimuli/stim002_animate_fish_2.png","stimuli/stim016_inanimate_boats_4.png","stimuli/tools_uppercase.png","270"
"html-button-response-mod","280","1571650","0.0-280.0","76061","","","","","","triplet","2204.2999999970198","","","","1","stimuli/stim010_animate_face_2.png","stimuli/stim016_inanimate_boats_4.png","stimuli/stim012_animate_face_4.png","271"
"html-button-response-mod","281","1573951","0.0-281.0","76061","","","","","","triplet","1797.2000000029802","","","","1","stimuli/fish_lowercase.png","stimuli/stim010_animate_face_2.png","stimuli/fish_uppercase.png","272"
"html-button-response-mod","282","1576894","0.0-282.0","76061","","","","","","triplet","2440.2999999970198","","","","2","stimuli/face_lowercase.png","stimuli/stim009_animate_face_1.png","stimuli/stim021_inanimate_tools_1.png","273"
"html-button-response-mod","283","1580003","0.0-283.0","76061","","","","","","triplet","2607.6000000089407","","","","0","stimuli/stim023_inanimate_tools_3.png","stimuli/stim017_inanimate_tree_1.png","stimuli/bird_lowercase.png","274"
"html-button-response-mod","284","1582320","0.0-284.0","76061","","","","","","triplet","1813.7999999970198","","","","0","stimuli/stim009_animate_face_1.png","stimuli/stim014_inanimate_boats_2.png","stimuli/stim015_inanimate_boats_3.png","275"
"html-button-response-mod","285","1583995","0.0-285.0","76061","","","","","","triplet","1172.4000000059605","","","","1","stimuli/stim011_animate_face_3.png","stimuli/stim023_inanimate_tools_3.png","stimuli/face_uppercase.png","276"
"html-button-response-mod","286","1587908","0.0-286.0","76061","","","","","","triplet","3409.800000011921","","","","2","stimuli/bird_uppercase.png","stimuli/fish_lowercase.png","stimuli/face_lowercase.png","277"
"html-button-response-mod","287","1593254","0.0-287.0","76061","","","","","","triplet","4843.100000008941","","","","0","stimuli/stim013_inanimate_boats_1.png","stimuli/stim008_animate_bird_4.png","stimuli/face_uppercase.png","278"
"html-button-response-mod","288","1595587","0.0-288.0","76061","","","","","","triplet","1829.0999999940395","","","","1","stimuli/stim003_animate_fish_3.png","stimuli/stim017_inanimate_tree_1.png","stimuli/stim007_animate_bird_3.png","279"
"html-button-response-mod","289","1603284","0.0-289.0","76061","","","","","","triplet","7194.0999999940395","","","","2","stimuli/face_uppercase.png","stimuli/stim003_animate_fish_3.png","stimuli/tools_uppercase.png","280"
"html-button-response-mod","290","1606581","0.0-290.0","76061","","","","","","triplet","2793.5","","","","1","stimuli/stim014_inanimate_boats_2.png","stimuli/stim023_inanimate_tools_3.png","stimuli/stim013_inanimate_boats_1.png","281"
"html-button-response-mod","291","1609732","0.0-291.0","76061","","","","","","triplet","2648.7999999970198","","","","1","stimuli/tools_uppercase.png","stimuli/stim019_inanimate_tree_3.png","stimuli/boats_uppercase.png","282"
"html-button-response-mod","292","1611271","0.0-292.0","76061","","","","","","triplet","1035.9000000059605","","","","2","stimuli/stim018_inanimate_tree_2.png","stimuli/stim019_inanimate_tree_3.png","stimuli/boats_lowercase.png","283"
"html-button-response-mod","293","1614584","0.0-293.0","76061","","","","","","triplet","2809.7000000029802","","","","0","stimuli/stim024_inanimate_tools_4.png","stimuli/stim003_animate_fish_3.png","stimuli/stim019_inanimate_tree_3.png","284"
"html-button-response-mod","294","1619663","0.0-294.0","76061","","","","","","triplet","4575.699999988079","","","","0","stimuli/stim021_inanimate_tools_1.png","stimuli/fish_lowercase.png","stimuli/stim005_animate_bird_1.png","285"
"html-button-response-mod","295","1622273","0.0-295.0","76061","","","","","","triplet","2106.8999999910593","","","","2","stimuli/stim005_animate_bird_1.png","stimuli/stim020_inanimate_tree_4.png","stimuli/stim022_inanimate_tools_2.png","286"
"html-button-response-mod","296","1627004","0.0-296.0","76061","","","","","","triplet","4228.699999988079","","","","0","stimuli/stim018_inanimate_tree_2.png","stimuli/stim015_inanimate_boats_3.png","stimuli/stim022_inanimate_tools_2.png","287"
"html-button-response-mod","297","1638626","0.0-297.0","76061","","","","","","triplet","11118.5","","","","1","stimuli/fish_uppercase.png","stimuli/stim011_animate_face_3.png","stimuli/bird_uppercase.png","288"
"html-button-response-mod","298","1640446","0.0-298.0","76061","","","","","","triplet","1317.2999999970198","","","","2","stimuli/stim014_inanimate_boats_2.png","stimuli/boats_lowercase.png","stimuli/stim002_animate_fish_2.png","289"
"html-button-response-mod","299","1643662","0.0-299.0","76061","","","","","","triplet","2712.7000000029802","","","","0","stimuli/stim020_inanimate_tree_4.png","stimuli/stim015_inanimate_boats_3.png","stimuli/stim009_animate_face_1.png","290"
"html-button-response-mod","300","1650782","0.0-300.0","76061","","","","","","triplet","6617","","","","0","stimuli/stim011_animate_face_3.png","stimuli/stim015_inanimate_boats_3.png","stimuli/stim002_animate_fish_2.png","291"
"html-button-response-mod","301","1652443","0.0-301.0","76061","","","","","","triplet","1157","","","","1","stimuli/stim006_animate_bird_2.png","stimuli/stim020_inanimate_tree_4.png","stimuli/stim008_animate_bird_4.png","292"
"html-button-response-mod","302","1653924","0.0-302.0","76061","","","","","","triplet","977.2000000029802","","","","1","stimuli/stim006_animate_bird_2.png","stimuli/tools_uppercase.png","stimuli/stim005_animate_bird_1.png","293"
"html-button-response-mod","303","1656192","0.0-303.0","76061","","","","","","triplet","1765.2999999970198","","","","2","stimuli/stim019_inanimate_tree_3.png","stimuli/bird_uppercase.png","stimuli/stim012_animate_face_4.png","294"
"html-button-response-mod","304","1658185","0.0-304.0","76061","","","","","","triplet","1491","","","","1","stimuli/stim022_inanimate_tools_2.png","stimuli/boats_lowercase.png","stimuli/stim024_inanimate_tools_4.png","295"
"html-button-response-mod","305","1660833","0.0-305.0","76061","","","","","","triplet","2143.9000000059605","","","","1","stimuli/stim021_inanimate_tools_1.png","stimuli/fish_uppercase.png","stimuli/stim022_inanimate_tools_2.png","296"
"html-button-response-mod","306","1663847","0.0-306.0","76061","","","","","","triplet","2511.2000000029802","","","","1","stimuli/stim023_inanimate_tools_3.png","stimuli/stim009_animate_face_1.png","stimuli/stim022_inanimate_tools_2.png","297"
"html-button-response-mod","307","1666705","0.0-307.0","76061","","","","","","triplet","2355.7999999970198","","","","1","stimuli/stim007_animate_bird_3.png","stimuli/tree_lowercase.png","stimuli/stim002_animate_fish_2.png","298"
"html-button-response-mod","308","1670407","0.0-308.0","76061","","","","","","triplet","3197.7999999970198","","","","2","stimuli/stim006_animate_bird_2.png","stimuli/stim018_inanimate_tree_2.png","stimuli/stim022_inanimate_tools_2.png","299"
"html-button-response","309","1672286","0.0-309.0","76061","","","","","","break","1377.4000000059605","<p>BREAK</p><p>Take a break for as long as you need</p><p>Click the button to continue</p>","0","","","","","",""
"html-button-response-mod","310","1673771","0.0-310.0","76061","","","","","","triplet","1482","","","","0","stimuli/stim023_inanimate_tools_3.png","stimuli/boats_uppercase.png","stimuli/stim013_inanimate_boats_1.png","300"
"html-button-response-mod","311","1677171","0.0-311.0","76061","","","","","","triplet","2895.8999999910593","","","","1","stimuli/tools_uppercase.png","stimuli/stim008_animate_bird_4.png","stimuli/boats_lowercase.png","301"
"html-button-response-mod","312","1679576","0.0-312.0","76061","","","","","","triplet","1902.7000000029802","","","","0","stimuli/stim022_inanimate_tools_2.png","stimuli/stim020_inanimate_tree_4.png","stimuli/bird_lowercase.png","302"
"html-button-response-mod","313","1681731","0.0-313.0","76061","","","","","","triplet","1652.5","","","","0","stimuli/fish_uppercase.png","stimuli/stim010_animate_face_2.png","stimuli/face_uppercase.png","303"
"html-button-response-mod","314","1684177","0.0-314.0","76061","","","","","","triplet","1942.7999999970198","","","","0","stimuli/stim001_animate_fish_1.png","stimuli/stim022_inanimate_tools_2.png","stimuli/tools_lowercase.png","304"
"html-button-response-mod","315","1686121","0.0-315.0","76061","","","","","","triplet","1441.2000000029802","","","","2","stimuli/stim007_animate_bird_3.png","stimuli/tree_uppercase.png","stimuli/stim011_animate_face_3.png","305"
"html-button-response-mod","316","1690317","0.0-316.0","76061","","","","","","triplet","3693.7999999970198","","","","1","stimuli/stim012_animate_face_4.png","stimuli/bird_uppercase.png","stimuli/face_lowercase.png","306"
"html-button-response-mod","317","1693695","0.0-317.0","76061","","","","","","triplet","2875","","","","0","stimuli/stim017_inanimate_tree_1.png","stimuli/tools_uppercase.png","stimuli/stim016_inanimate_boats_4.png","307"
"html-button-response-mod","318","1696337","0.0-318.0","76061","","","","","","triplet","2138.4000000059605","","","","1","stimuli/bird_uppercase.png","stimuli/boats_lowercase.png","stimuli/fish_lowercase.png","308"
"html-button-response-mod","319","1698702","0.0-319.0","76061","","","","","","triplet","1861.3999999910593","","","","0","stimuli/stim007_animate_bird_3.png","stimuli/stim015_inanimate_boats_3.png","stimuli/stim013_inanimate_boats_1.png","309"
"html-button-response-mod","320","1701700","0.0-320.0","76061","","","","","","triplet","2496.2000000029802","","","","2","stimuli/stim017_inanimate_tree_1.png","stimuli/stim005_animate_bird_1.png","stimuli/stim021_inanimate_tools_1.png","310"
"html-button-response-mod","321","1704138","0.0-321.0","76061","","","","","","triplet","1934","","","","0","stimuli/face_lowercase.png","stimuli/stim016_inanimate_boats_4.png","stimuli/fish_lowercase.png","311"
"html-button-response-mod","322","1706973","0.0-322.0","76061","","","","","","triplet","2331","","","","0","stimuli/tools_lowercase.png","stimuli/bird_lowercase.png","stimuli/stim020_inanimate_tree_4.png","312"
"html-button-response-mod","323","1710999","0.0-323.0","76061","","","","","","triplet","3522.7000000029802","","","","1","stimuli/boats_uppercase.png","stimuli/stim007_animate_bird_3.png","stimuli/stim021_inanimate_tools_1.png","313"
"html-button-response-mod","324","1713275","0.0-324.0","76061","","","","","","triplet","1772.7000000029802","","","","1","stimuli/stim002_animate_fish_2.png","stimuli/stim016_inanimate_boats_4.png","stimuli/fish_lowercase.png","314"
"html-button-response-mod","325","1716256","0.0-325.0","76061","","","","","","triplet","2478.5","","","","1","stimuli/stim018_inanimate_tree_2.png","stimuli/stim023_inanimate_tools_3.png","stimuli/stim001_animate_fish_1.png","315"
"html-button-response-mod","326","1718207","0.0-326.0","76061","","","","","","triplet","1449.2000000029802","","","","2","stimuli/stim013_inanimate_boats_1.png","stimuli/boats_uppercase.png","stimuli/tools_uppercase.png","316"
"html-button-response-mod","327","1720410","0.0-327.0","76061","","","","","","triplet","1700.2999999970198","","","","1","stimuli/bird_lowercase.png","stimuli/tools_uppercase.png","stimuli/bird_uppercase.png","317"
"html-button-response-mod","328","1722387","0.0-328.0","76061","","","","","","triplet","1474.7999999970198","","","","0","stimuli/stim013_inanimate_boats_1.png","stimuli/face_uppercase.png","stimuli/stim010_animate_face_2.png","318"
"html-button-response-mod","329","1727969","0.0-329.0","76061","","","","","","triplet","5079","","","","1","stimuli/bird_lowercase.png","stimuli/stim024_inanimate_tools_4.png","stimuli/bird_uppercase.png","319"
"html-button-response-mod","330","1729718","0.0-330.0","76061","","","","","","triplet","1245.7999999970198","","","","0","stimuli/stim011_animate_face_3.png","stimuli/face_uppercase.png","stimuli/face_lowercase.png","320"
"html-button-response-mod","331","1734344","0.0-331.0","76061","","","","","","triplet","4122.5999999940395","","","","2","stimuli/tree_lowercase.png","stimuli/stim003_animate_fish_3.png","stimuli/tools_uppercase.png","321"
"html-button-response-mod","332","1741790","0.0-332.0","76061","","","","","","triplet","6943.29999999702","","","","2","stimuli/stim015_inanimate_boats_3.png","stimuli/fish_lowercase.png","stimuli/tools_lowercase.png","322"
"html-button-response-mod","333","1751323","0.0-333.0","76061","","","","","","triplet","9029.90000000596","","","","0","stimuli/tools_lowercase.png","stimuli/stim001_animate_fish_1.png","stimuli/stim016_inanimate_boats_4.png","323"
"html-button-response-mod","334","1755259","0.0-334.0","76061","","","","","","triplet","3431.7999999970198","","","","0","stimuli/stim021_inanimate_tools_1.png","stimuli/fish_uppercase.png","stimuli/stim009_animate_face_1.png","324"
"html-button-response-mod","335","1757625","0.0-335.0","76061","","","","","","triplet","1863.6000000089407","","","","0","stimuli/stim002_animate_fish_2.png","stimuli/face_lowercase.png","stimuli/face_uppercase.png","325"
"html-button-response-mod","336","1759486","0.0-336.0","76061","","","","","","triplet","1357.6000000089407","","","","0","stimuli/stim022_inanimate_tools_2.png","stimuli/fish_uppercase.png","stimuli/stim007_animate_bird_3.png","326"
"html-button-response-mod","337","1761626","0.0-337.0","76061","","","","","","triplet","1636.1000000089407","","","","2","stimuli/stim024_inanimate_tools_4.png","stimuli/tools_lowercase.png","stimuli/stim018_inanimate_tree_2.png","327"
"html-button-response-mod","338","1763059","0.0-338.0","76061","","","","","","triplet","931.2000000029802","","","","1","stimuli/stim021_inanimate_tools_1.png","stimuli/stim001_animate_fish_1.png","stimuli/stim023_inanimate_tools_3.png","328"
"html-button-response-mod","339","1765828","0.0-339.0","76061","","","","","","triplet","2266","","","","0","stimuli/bird_lowercase.png","stimuli/stim015_inanimate_boats_3.png","stimuli/stim001_animate_fish_1.png","329"
"html-button-response-mod","340","1768128","0.0-340.0","76061","","","","","","triplet","1797.2999999970198","","","","1","stimuli/stim023_inanimate_tools_3.png","stimuli/face_lowercase.png","stimuli/stim015_inanimate_boats_3.png","330"
"html-button-response-mod","341","1770015","0.0-341.0","76061","","","","","","triplet","1383.5","","","","0","stimuli/stim019_inanimate_tree_3.png","stimuli/stim006_animate_bird_2.png","stimuli/stim003_animate_fish_3.png","331"
"html-button-response-mod","342","1771984","0.0-342.0","76061","","","","","","triplet","1466.0999999940395","","","","2","stimuli/tree_uppercase.png","stimuli/stim018_inanimate_tree_2.png","stimuli/stim002_animate_fish_2.png","332"
"html-button-response-mod","343","1774171","0.0-343.0","76061","","","","","","triplet","1683.0999999940395","","","","1","stimuli/tools_uppercase.png","stimuli/fish_uppercase.png","stimuli/stim016_inanimate_boats_4.png","333"
"html-button-response-mod","344","1775968","0.0-344.0","76061","","","","","","triplet","1293.0999999940395","","","","2","stimuli/boats_lowercase.png","stimuli/stim014_inanimate_boats_2.png","stimuli/tree_uppercase.png","334"
"html-button-response-mod","345","1779904","0.0-345.0","76061","","","","","","triplet","3432.9000000059605","","","","2","stimuli/fish_uppercase.png","stimuli/stim020_inanimate_tree_4.png","stimuli/face_lowercase.png","335"
"html-button-response-mod","346","1782982","0.0-346.0","76061","","","","","","triplet","2575.5","","","","1","stimuli/stim008_animate_bird_4.png","stimuli/stim017_inanimate_tree_1.png","stimuli/fish_lowercase.png","336"
"html-button-response-mod","347","1784610","0.0-347.0","76061","","","","","","triplet","1124.7999999970198","","","","2","stimuli/stim005_animate_bird_1.png","stimuli/stim001_animate_fish_1.png","stimuli/stim009_animate_face_1.png","337"
"html-button-response-mod","348","1786295","0.0-348.0","76061","","","","","","triplet","1181.8999999910593","","","","2","stimuli/stim001_animate_fish_1.png","stimuli/stim004_animate_fish_4.png","stimuli/stim017_inanimate_tree_1.png","338"
"html-button-response-mod","349","1788003","0.0-349.0","76061","","","","","","triplet","1205.4000000059605","","","","1","stimuli/bird_uppercase.png","stimuli/stim019_inanimate_tree_3.png","stimuli/bird_lowercase.png","339"
"html-button-response-mod","350","1789453","0.0-350.0","76061","","","","","","triplet","948.4000000059605","","","","1","stimuli/stim008_animate_bird_4.png","stimuli/bird_uppercase.png","stimuli/stim007_animate_bird_3.png","340"
"html-button-response-mod","351","1794968","0.0-351.0","76061","","","","","","triplet","5012.0999999940395","","","","0","stimuli/boats_uppercase.png","stimuli/bird_lowercase.png","stimuli/face_lowercase.png","341"
"html-button-response-mod","352","1838302","0.0-352.0","76061","","","","","","triplet","42831.39999999106","","","","1","stimuli/stim020_inanimate_tree_4.png","stimuli/tools_uppercase.png","stimuli/stim012_animate_face_4.png","342"
"html-button-response-mod","353","1841202","0.0-353.0","76061","","","","","","triplet","2395.4000000059605","","","","0","stimuli/tree_uppercase.png","stimuli/tools_lowercase.png","stimuli/stim009_animate_face_1.png","343"
"html-button-response-mod","354","1843702","0.0-354.0","76061","","","","","","triplet","1998","","","","0","stimuli/stim021_inanimate_tools_1.png","stimuli/fish_lowercase.png","stimuli/stim006_animate_bird_2.png","344"
"html-button-response-mod","355","1846337","0.0-355.0","76061","","","","","","triplet","2132.7000000029802","","","","0","stimuli/bird_uppercase.png","stimuli/stim022_inanimate_tools_2.png","stimuli/stim013_inanimate_boats_1.png","345"
"html-button-response-mod","356","1848311","0.0-356.0","76061","","","","","","triplet","1470.7999999970198","","","","0","stimuli/boats_uppercase.png","stimuli/tools_lowercase.png","stimuli/tools_uppercase.png","346"
"html-button-response-mod","357","1850167","0.0-357.0","76061","","","","","","triplet","1352.0999999940395","","","","0","stimuli/stim021_inanimate_tools_1.png","stimuli/tree_uppercase.png","stimuli/stim017_inanimate_tree_1.png","347"
"html-button-response-mod","358","1860633","0.0-358.0","76061","","","","","","triplet","9963.60000000894","","","","0","stimuli/stim014_inanimate_boats_2.png","stimuli/face_lowercase.png","stimuli/stim006_animate_bird_2.png","348"
"html-button-response-mod","359","1868532","0.0-359.0","76061","","","","","","triplet","7396.399999991059","","","","0","stimuli/stim024_inanimate_tools_4.png","stimuli/stim002_animate_fish_2.png","stimuli/tree_lowercase.png","349"
"html-button-response","360","1903233","0.0-360.0","76061","","","","","","break","34198.09999999404","<p>BREAK</p><p>Take a break for as long as you need</p><p>Click the button to continue</p>","0","","","","","",""
"html-button-response-mod","361","1906272","0.0-361.0","76061","","","","","","triplet","3037.8999999910593","","","","1","stimuli/stim018_inanimate_tree_2.png","stimuli/stim022_inanimate_tools_2.png","stimuli/stim001_animate_fish_1.png","350"
"html-button-response-mod","362","1908776","0.0-362.0","76061","","","","","","triplet","2001.2999999970198","","","","2","stimuli/stim020_inanimate_tree_4.png","stimuli/stim005_animate_bird_1.png","stimuli/tools_uppercase.png","351"
"html-button-response-mod","363","1913952","0.0-363.0","76061","","","","","","triplet","4672.79999999702","","","","2","stimuli/stim015_inanimate_boats_3.png","stimuli/stim012_animate_face_4.png","stimuli/stim005_animate_bird_1.png","352"
"html-button-response-mod","364","1915345","0.0-364.0","76061","","","","","","triplet","888.9000000059605","","","","2","stimuli/stim004_animate_fish_4.png","stimuli/stim001_animate_fish_1.png","stimuli/bird_uppercase.png","353"
"html-button-response-mod","365","1920643","0.0-365.0","76061","","","","","","triplet","4794.5999999940395","","","","2","stimuli/stim014_inanimate_boats_2.png","stimuli/tools_uppercase.png","stimuli/stim018_inanimate_tree_2.png","354"
"html-button-response-mod","366","1922588","0.0-366.0","76061","","","","","","triplet","1442.1000000089407","","","","1","stimuli/stim010_animate_face_2.png","stimuli/stim002_animate_fish_2.png","stimuli/stim015_inanimate_boats_3.png","355"
"html-button-response-mod","367","1925623","0.0-367.0","76061","","","","","","triplet","2531.9000000059605","","","","0","stimuli/bird_lowercase.png","stimuli/stim004_animate_fish_4.png","stimuli/boats_lowercase.png","356"
"html-button-response-mod","368","1927423","0.0-368.0","76061","","","","","","triplet","1296","","","","0","stimuli/tools_uppercase.png","stimuli/stim007_animate_bird_3.png","stimuli/stim006_animate_bird_2.png","357"
"html-button-response-mod","369","1930363","0.0-369.0","76061","","","","","","triplet","2435.6000000089407","","","","0","stimuli/tools_uppercase.png","stimuli/stim004_animate_fish_4.png","stimuli/bird_uppercase.png","358"
"html-button-response-mod","370","1931903","0.0-370.0","76061","","","","","","triplet","1036.6000000089407","","","","1","stimuli/stim021_inanimate_tools_1.png","stimuli/stim010_animate_face_2.png","stimuli/stim023_inanimate_tools_3.png","359"
"html-button-response-mod","371","1934316","0.0-371.0","76061","","","","","","triplet","1910.2000000029802","","","","2","stimuli/stim005_animate_bird_1.png","stimuli/fish_uppercase.png","stimuli/tree_uppercase.png","360"
"html-button-response-mod","372","1937046","0.0-372.0","76061","","","","","","triplet","2227.0999999940395","","","","2","stimuli/face_uppercase.png","stimuli/face_lowercase.png","stimuli/tools_lowercase.png","361"
"html-button-response-mod","373","1939078","0.0-373.0","76061","","","","","","triplet","1529.699999988079","","","","0","stimuli/stim021_inanimate_tools_1.png","stimuli/stim012_animate_face_4.png","stimuli/stim011_animate_face_3.png","362"
"html-button-response-mod","374","1941476","0.0-374.0","76061","","","","","","triplet","1893.9000000059605","","","","1","stimuli/stim006_animate_bird_2.png","stimuli/stim004_animate_fish_4.png","stimuli/stim008_animate_bird_4.png","363"
"html-button-response-mod","375","1946118","0.0-375.0","76061","","","","","","triplet","4138.70000000298","","","","2","stimuli/stim012_animate_face_4.png","stimuli/stim007_animate_bird_3.png","stimuli/stim023_inanimate_tools_3.png","364"
"html-button-response-mod","376","1948516","0.0-376.0","76061","","","","","","triplet","1895.2000000029802","","","","0","stimuli/face_uppercase.png","stimuli/stim015_inanimate_boats_3.png","stimuli/tools_uppercase.png","365"
"html-button-response-mod","377","1950355","0.0-377.0","76061","","","","","","triplet","1334.6000000089407","","","","1","stimuli/stim009_animate_face_1.png","stimuli/stim018_inanimate_tree_2.png","stimuli/stim021_inanimate_tools_1.png","366"
"html-button-response-mod","378","1951724","0.0-378.0","76061","","","","","","triplet","864.7000000029802","","","","2","stimuli/stim017_inanimate_tree_1.png","stimuli/stim019_inanimate_tree_3.png","stimuli/stim014_inanimate_boats_2.png","367"
"html-button-response-mod","379","1954608","0.0-379.0","76061","","","","","","triplet","2379.5999999940395","","","","1","stimuli/bird_lowercase.png","stimuli/stim021_inanimate_tools_1.png","stimuli/stim004_animate_fish_4.png","368"
"html-button-response-mod","380","1957864","0.0-380.0","76061","","","","","","triplet","2753.2000000029802","","","","1","stimuli/stim006_animate_bird_2.png","stimuli/stim015_inanimate_boats_3.png","stimuli/stim011_animate_face_3.png","369"
"html-button-response-mod","381","1960455","0.0-381.0","76061","","","","","","triplet","2088.0999999940395","","","","2","stimuli/face_lowercase.png","stimuli/stim023_inanimate_tools_3.png","stimuli/stim013_inanimate_boats_1.png","370"
"html-button-response-mod","382","1962771","0.0-382.0","76061","","","","","","triplet","1812.5","","","","1","stimuli/stim013_inanimate_boats_1.png","stimuli/stim018_inanimate_tree_2.png","stimuli/stim004_animate_fish_4.png","371"
"html-button-response-mod","383","1966531","0.0-383.0","76061","","","","","","triplet","3258","","","","2","stimuli/stim007_animate_bird_3.png","stimuli/stim009_animate_face_1.png","stimuli/boats_uppercase.png","372"
"html-button-response-mod","384","1970157","0.0-384.0","76061","","","","","","triplet","3123.5999999940395","","","","0","stimuli/stim017_inanimate_tree_1.png","stimuli/stim009_animate_face_1.png","stimuli/boats_uppercase.png","373"
"html-button-response-mod","385","1972903","0.0-385.0","76061","","","","","","triplet","2242.5","","","","1","stimuli/fish_uppercase.png","stimuli/tools_lowercase.png","stimuli/stim004_animate_fish_4.png","374"
"html-button-response-mod","386","1974564","0.0-386.0","76061","","","","","","triplet","1157.800000011921","","","","2","stimuli/stim009_animate_face_1.png","stimuli/stim012_animate_face_4.png","stimuli/stim019_inanimate_tree_3.png","375"
"html-button-response-mod","387","1978305","0.0-387.0","76061","","","","","","triplet","3238.5","","","","1","stimuli/face_lowercase.png","stimuli/stim022_inanimate_tools_2.png","stimuli/stim008_animate_bird_4.png","376"
"html-button-response-mod","388","1980541","0.0-388.0","76061","","","","","","triplet","1735","","","","2","stimuli/stim006_animate_bird_2.png","stimuli/stim003_animate_fish_3.png","stimuli/stim010_animate_face_2.png","377"
"html-button-response-mod","389","1982949","0.0-389.0","76061","","","","","","triplet","1905.3999999910593","","","","0","stimuli/boats_lowercase.png","stimuli/stim018_inanimate_tree_2.png","stimuli/stim001_animate_fish_1.png","378"
"html-button-response-mod","390","1990091","0.0-390.0","76061","","","","","","triplet","6635.5999999940395","","","","1","stimuli/stim014_inanimate_boats_2.png","stimuli/bird_lowercase.png","stimuli/stim024_inanimate_tools_4.png","379"
"html-button-response-mod","391","1991711","0.0-391.0","76061","","","","","","triplet","1116.5","","","","1","stimuli/tree_lowercase.png","stimuli/stim003_animate_fish_3.png","stimuli/stim018_inanimate_tree_2.png","380"
"html-button-response-mod","392","1998180","0.0-392.0","76061","","","","","","triplet","5965.79999999702","","","","2","stimuli/fish_lowercase.png","stimuli/tree_lowercase.png","stimuli/boats_uppercase.png","381"
"html-button-response-mod","393","1999711","0.0-393.0","76061","","","","","","triplet","1028.5","","","","0","stimuli/stim010_animate_face_2.png","stimuli/stim020_inanimate_tree_4.png","stimuli/stim017_inanimate_tree_1.png","382"
"html-button-response-mod","394","2002385","0.0-394.0","76061","","","","","","triplet","2172","","","","2","stimuli/bird_uppercase.png","stimuli/stim018_inanimate_tree_2.png","stimuli/boats_lowercase.png","383"
"html-button-response-mod","395","2014550","0.0-395.0","76061","","","","","","triplet","11658.70000000298","","","","0","stimuli/stim022_inanimate_tools_2.png","stimuli/bird_lowercase.png","stimuli/stim012_animate_face_4.png","384"
"html-button-response-mod","396","2016009","0.0-396.0","76061","","","","","","triplet","954.6000000089407","","","","2","stimuli/stim024_inanimate_tools_4.png","stimuli/stim021_inanimate_tools_1.png","stimuli/stim004_animate_fish_4.png","385"
"html-button-response-mod","397","2017604","0.0-397.0","76061","","","","","","triplet","1091.7000000029802","","","","2","stimuli/stim005_animate_bird_1.png","stimuli/stim006_animate_bird_2.png","stimuli/stim013_inanimate_boats_1.png","386"
"html-button-response-mod","398","2025356","0.0-398.0","76061","","","","","","triplet","7245.5","","","","2","stimuli/stim015_inanimate_boats_3.png","stimuli/fish_lowercase.png","stimuli/stim017_inanimate_tree_1.png","387"
"html-button-response-mod","399","2031812","0.0-399.0","76061","","","","","","triplet","5949.699999988079","","","","2","stimuli/stim003_animate_fish_3.png","stimuli/tree_lowercase.png","stimuli/face_uppercase.png","388"
"html-button-response-mod","400","2035870","0.0-400.0","76061","","","","","","triplet","3555.7000000029802","","","","2","stimuli/stim005_animate_bird_1.png","stimuli/tree_lowercase.png","stimuli/stim002_animate_fish_2.png","389"
"html-button-response-mod","401","2038397","0.0-401.0","76061","","","","","","triplet","2020.7000000029802","","","","1","stimuli/stim003_animate_fish_3.png","stimuli/stim016_inanimate_boats_4.png","stimuli/fish_uppercase.png","390"
"html-button-response-mod","402","2041767","0.0-402.0","76061","","","","","","triplet","2868.5999999940395","","","","2","stimuli/stim015_inanimate_boats_3.png","stimuli/stim014_inanimate_boats_2.png","stimuli/stim020_inanimate_tree_4.png","391"
"html-button-response-mod","403","2047023","0.0-403.0","76061","","","","","","triplet","4750","","","","0","stimuli/stim022_inanimate_tools_2.png","stimuli/fish_uppercase.png","stimuli/tree_uppercase.png","392"
"html-button-response-mod","404","2052336","0.0-404.0","76061","","","","","","triplet","4809.9000000059605","","","","2","stimuli/bird_uppercase.png","stimuli/stim017_inanimate_tree_1.png","stimuli/stim016_inanimate_boats_4.png","393"
"html-button-response-mod","405","2055285","0.0-405.0","76061","","","","","","triplet","2443.1000000089407","","","","1","stimuli/face_uppercase.png","stimuli/stim013_inanimate_boats_1.png","stimuli/stim012_animate_face_4.png","394"
"html-button-response-mod","406","2057497","0.0-406.0","76061","","","","","","triplet","1704.7000000029802","","","","2","stimuli/stim006_animate_bird_2.png","stimuli/stim018_inanimate_tree_2.png","stimuli/fish_uppercase.png","395"
"html-button-response-mod","407","2059125","0.0-407.0","76061","","","","","","triplet","1120.7000000029802","","","","2","stimuli/stim006_animate_bird_2.png","stimuli/stim007_animate_bird_3.png","stimuli/stim014_inanimate_boats_2.png","396"
"html-button-response-mod","408","2062398","0.0-408.0","76061","","","","","","triplet","2765.9000000059605","","","","1","stimuli/stim015_inanimate_boats_3.png","stimuli/tree_lowercase.png","stimuli/stim010_animate_face_2.png","397"
"html-button-response-mod","409","2138587","0.0-409.0","76061","","","","","","triplet","75681.59999999404","","","","1","stimuli/stim004_animate_fish_4.png","stimuli/stim019_inanimate_tree_3.png","stimuli/fish_uppercase.png","398"
"html-button-response-mod","410","2141496","0.0-410.0","76061","","","","","","triplet","2406","","","","0","stimuli/stim003_animate_fish_3.png","stimuli/stim024_inanimate_tools_4.png","stimuli/stim011_animate_face_3.png","399"
"html-button-response","411","2142938","0.0-411.0","76061","","","","","","break","935.9000000059605","<p>BREAK</p><p>Take a break for as long as you need</p><p>Click the button to continue</p>","0","","","","","",""
"survey-text","412","2217160","0.0-412.0","76061","","","","","","data_patterns","74199.90000000596","","{""Q0"":""Manmade vs nature\nThings that would normally be found together""}","","","","","",""
"survey-text","413","2219477","0.0-413.0","76061","","","","","","age_question","2315","","{""Age"":""19""}","","","","","",""
"html-button-response","414","2220692","0.0-414.0","76061","","","","","","gender_question","1213.7000000029802","How would you like your gender to be recorded?","1","","","","","",""
