"trial_type","trial_index","time_elapsed","internal_node_id","subject","success","timeout","failed_images","failed_audio","failed_video","test_part","rt","stimulus","response","end_time","button_pressed","stim0","stim1","stim2","trialnr"
"pavlovia","0","10","0.0-0.0","76450","","","","","","","","","","","","","","",""
"preload","1","748","0.0-1.0","76450","true","false","[]","[]","[]","preload","","","","","","","","",""
"html-button-response","2","48753","0.0-2.0","76450","","","","","","","48002.799999952316","<p>Welcome to the experiment. To begin, please read the following and press the button at the bottom of the screen.</p><p></p><p><strong>Project Name: A study on cognitive processes involved in visual perception</p></strong><p></p><p><strong>PARTICIPANT INFORMATION STATEMENT</strong></p><p></p><strong>(1) What is the study about?</strong><br>You are invited to participate in a study that investigates the cognitive processes involved in perceiving and recognizing visual stimuli.If you decide to participate, you will be asked to complete a task in which you will view pictures, letters, numbers, or words presented on a computer screen.<br><strong>(2) Who can participate?</strong><br>Anyone aged 18 years or over with access to a computer (not a phone/tablet)<br><strong>(3) Where is the study located?</strong><br>The study will be conducted in your browser<br><strong>(4) Who is carrying out the study?</strong><br>The study is being conducted by Sophia Shatek from the Computational Cognitive Neuroscience laboratory at the University of Sydney.<br><strong>(5) What does the study involve?</strong><br>In this study, you will be asked to perform tasks where you will see different stimuli appear on the computer screen.You will respond by pressing a key or using a computer mouse.<br><strong>(6) How much time will the study take?</strong><br>The study takes about 30 minutes<br><strong>(7)	Can I withdraw from the study?</strong><br>Being in this study is completely voluntary - you are not under any obligation to consent. You can withdraw at any time without having to give a reason and without penalty.<br><strong>(8) Will anyone else know the results?</strong><br>All aspects of the study, including results, will be strictly confidential and only the researchers will have access to information on participants.The results and data from the study may be submitted for publication or shared with other research labs, but individual participants will not be identifiable.<br><strong>(9) Will the study benefit me?</strong><br>You will be awarded 0.5 credits for your participation.<br><strong>(10) Can I tell other people about the study?</strong><br>Yes, please tell them to contact Dr Thomas Carlson by email at thomas.carlson@sydney.edu.au.<br><strong>(11) What if I require further information about the study or my involvement in it?</strong><br>When you have read this information, the investigator will discuss it with you further and answer any questions you may have.If you would like to know more at any stage, please feel free to contact Dr Thomas Carlson directly by email at thomas.carlson@sydney.edu.au.If you would like to be informed about the outcomes of the study, contact Dr Thomas Carlson directly by email at thomas.carlson@sydney.edu.au.<br><strong>(12) What if I have a complaint or any concerns?</strong><br>Any person with concerns or complaints about the conduct of a research study can contact The Manager,Human Ethics Administration, University of Sydney on +61 2 8627 8176 (Telephone); +61 2 8627 8177 (Facsimile) or ro.humanethics@sydney.edu.au (Email).</p><p></p><strong>By participating in this experiment, you consent to participate in this study and acknowledge that:</strong><br>1. The procedures required for the project and the times involved have been explained to me, and any questions I have about the project have been answered to my satisfaction.<br>2.	I have read the Above Information Statement and have been given the opportunity to discuss the information and my involvement in the project with the researcher/s.<br>3. I understand that allowing my data to be used in research reports is completely voluntary - I am not under any obligation to consent.<br>4. I understand that my involvement is strictly confidential. I understand that any research data gathered from the results of the study may be publishedhowever no information about me will be used in any way that is identifiable.</p><p></p>","0","","","","","",""
"html-button-response","3","68544","0.0-3.0","76450","","","","","","opening_instructions","19788.799999952316","<p>In this experiment, you will see three images appear on the screen.</p><p>You need to click the 'odd one out', or the image </p><p>that is MOST CONCEPTUALLY DIFFERENT to the other two. </p><p>(e.g., the word 'tree' and a picture of a tree are conceptually SIMILAR, </p><p> but the word 'tree' and the word 'boat' are conceptually DIFFERENT even though they look similar) </p><p>Just go with your intuition, don't spend too long thinking about each one.</p>","0","73702","","","","",""
"html-button-response-mod","4","70407","0.0-4.0","76450","","","","","","triplet","1860.8000001907349","","","","1","stimuli/stim023_inanimate_tools_3.png","stimuli/stim018_inanimate_tree_2.png","stimuli/stim024_inanimate_tools_4.png","0"
"html-button-response-mod","5","72512","0.0-5.0","76450","","","","","","triplet","1598.5999999046326","","","","2","stimuli/stim013_inanimate_boats_1.png","stimuli/stim002_animate_fish_2.png","stimuli/tools_lowercase.png","1"
"html-button-response-mod","6","74808","0.0-6.0","76450","","","","","","triplet","1786.8000001907349","","","","0","stimuli/boats_lowercase.png","stimuli/tools_lowercase.png","stimuli/tree_lowercase.png","2"
"html-button-response-mod","7","77280","0.0-7.0","76450","","","","","","triplet","1965.2000000476837","","","","0","stimuli/stim001_animate_fish_1.png","stimuli/tools_lowercase.png","stimuli/tree_uppercase.png","3"
"html-button-response-mod","8","79232","0.0-8.0","76450","","","","","","triplet","1432.9000000953674","","","","1","stimuli/stim019_inanimate_tree_3.png","stimuli/stim024_inanimate_tools_4.png","stimuli/stim005_animate_bird_1.png","4"
"html-button-response-mod","9","81800","0.0-9.0","76450","","","","","","triplet","2060.0999999046326","","","","1","stimuli/stim011_animate_face_3.png","stimuli/bird_uppercase.png","stimuli/stim010_animate_face_2.png","5"
"html-button-response-mod","10","83400","0.0-10.0","76450","","","","","","triplet","1087.7999999523163","","","","1","stimuli/stim001_animate_fish_1.png","stimuli/boats_lowercase.png","stimuli/stim019_inanimate_tree_3.png","6"
"html-button-response-mod","11","84896","0.0-11.0","76450","","","","","","triplet","989","","","","1","stimuli/tree_uppercase.png","stimuli/stim009_animate_face_1.png","stimuli/fish_lowercase.png","7"
"html-button-response-mod","12","86201","0.0-12.0","76450","","","","","","triplet","800.8999998569489","","","","0","stimuli/tree_lowercase.png","stimuli/stim024_inanimate_tools_4.png","stimuli/stim001_animate_fish_1.png","8"
"html-button-response-mod","13","87416","0.0-13.0","76450","","","","","","triplet","697","","","","2","stimuli/stim011_animate_face_3.png","stimuli/stim020_inanimate_tree_4.png","stimuli/stim024_inanimate_tools_4.png","9"
"html-button-response-mod","14","88633","0.0-14.0","76450","","","","","","triplet","709","","","","2","stimuli/stim005_animate_bird_1.png","stimuli/stim014_inanimate_boats_2.png","stimuli/fish_uppercase.png","10"
"html-button-response-mod","15","89792","0.0-15.0","76450","","","","","","triplet","655","","","","1","stimuli/stim001_animate_fish_1.png","stimuli/tools_lowercase.png","stimuli/stim008_animate_bird_4.png","11"
"html-button-response-mod","16","90985","0.0-16.0","76450","","","","","","triplet","678.1000001430511","","","","1","stimuli/stim003_animate_fish_3.png","stimuli/fish_uppercase.png","stimuli/stim006_animate_bird_2.png","12"
"html-button-response-mod","17","93656","0.0-17.0","76450","","","","","","triplet","2167.7999999523163","","","","1","stimuli/stim019_inanimate_tree_3.png","stimuli/face_uppercase.png","stimuli/tree_uppercase.png","13"
"html-button-response-mod","18","95336","0.0-18.0","76450","","","","","","triplet","1166.5999999046326","","","","0","stimuli/stim002_animate_fish_2.png","stimuli/stim005_animate_bird_1.png","stimuli/stim007_animate_bird_3.png","14"
"html-button-response-mod","19","97144","0.0-19.0","76450","","","","","","triplet","1305","","","","0","stimuli/stim010_animate_face_2.png","stimuli/stim014_inanimate_boats_2.png","stimuli/stim008_animate_bird_4.png","15"
"html-button-response-mod","20","100408","0.0-20.0","76450","","","","","","triplet","2760.7999999523163","","","","0","stimuli/stim022_inanimate_tools_2.png","stimuli/tools_uppercase.png","stimuli/stim014_inanimate_boats_2.png","16"
"html-button-response-mod","21","102040","0.0-21.0","76450","","","","","","triplet","1116.7000000476837","","","","1","stimuli/stim001_animate_fish_1.png","stimuli/stim018_inanimate_tree_2.png","stimuli/stim002_animate_fish_2.png","17"
"html-button-response-mod","22","103552","0.0-22.0","76450","","","","","","triplet","1007.5999999046326","","","","0","stimuli/stim012_animate_face_4.png","stimuli/stim001_animate_fish_1.png","stimuli/stim015_inanimate_boats_3.png","18"
"html-button-response-mod","23","104832","0.0-23.0","76450","","","","","","triplet","769.9000000953674","","","","1","stimuli/stim003_animate_fish_3.png","stimuli/fish_uppercase.png","stimuli/stim007_animate_bird_3.png","19"
"html-button-response-mod","24","106041","0.0-24.0","76450","","","","","","triplet","703.7999999523163","","","","2","stimuli/stim014_inanimate_boats_2.png","stimuli/stim021_inanimate_tools_1.png","stimuli/boats_uppercase.png","20"
"html-button-response-mod","25","107592","0.0-25.0","76450","","","","","","triplet","1034","","","","2","stimuli/stim023_inanimate_tools_3.png","stimuli/stim005_animate_bird_1.png","stimuli/stim010_animate_face_2.png","21"
"html-button-response-mod","26","108800","0.0-26.0","76450","","","","","","triplet","697.8999998569489","","","","0","stimuli/bird_lowercase.png","stimuli/stim023_inanimate_tools_3.png","stimuli/stim007_animate_bird_3.png","22"
"html-button-response-mod","27","110152","0.0-27.0","76450","","","","","","triplet","847.9000000953674","","","","1","stimuli/stim020_inanimate_tree_4.png","stimuli/stim004_animate_fish_4.png","stimuli/stim007_animate_bird_3.png","23"
"html-button-response-mod","28","111624","0.0-28.0","76450","","","","","","triplet","968.5","","","","1","stimuli/stim018_inanimate_tree_2.png","stimuli/fish_uppercase.png","stimuli/stim021_inanimate_tools_1.png","24"
"html-button-response-mod","29","113007","0.0-29.0","76450","","","","","","triplet","877.8999998569489","","","","0","stimuli/boats_lowercase.png","stimuli/stim002_animate_fish_2.png","stimuli/stim007_animate_bird_3.png","25"
"html-button-response-mod","30","114184","0.0-30.0","76450","","","","","","triplet","659.7999999523163","","","","2","stimuli/stim006_animate_bird_2.png","stimuli/stim005_animate_bird_1.png","stimuli/face_lowercase.png","26"
"html-button-response-mod","31","115295","0.0-31.0","76450","","","","","","triplet","597.1999998092651","","","","0","stimuli/face_lowercase.png","stimuli/stim024_inanimate_tools_4.png","stimuli/stim016_inanimate_boats_4.png","27"
"html-button-response-mod","32","116624","0.0-32.0","76450","","","","","","triplet","823.7999999523163","","","","1","stimuli/face_uppercase.png","stimuli/stim023_inanimate_tools_3.png","stimuli/fish_uppercase.png","28"
"html-button-response-mod","33","117976","0.0-33.0","76450","","","","","","triplet","849.6999998092651","","","","0","stimuli/stim021_inanimate_tools_1.png","stimuli/bird_lowercase.png","stimuli/tree_lowercase.png","29"
"html-button-response-mod","34","120160","0.0-34.0","76450","","","","","","triplet","1675.5","","","","0","stimuli/stim006_animate_bird_2.png","stimuli/face_lowercase.png","stimuli/stim012_animate_face_4.png","30"
"html-button-response-mod","35","121872","0.0-35.0","76450","","","","","","triplet","1201.5","","","","0","stimuli/stim009_animate_face_1.png","stimuli/fish_lowercase.png","stimuli/stim004_animate_fish_4.png","31"
"html-button-response-mod","36","124049","0.0-36.0","76450","","","","","","triplet","1669.2000000476837","","","","1","stimuli/stim005_animate_bird_1.png","stimuli/stim017_inanimate_tree_1.png","stimuli/bird_lowercase.png","32"
"html-button-response-mod","37","125703","0.0-37.0","76450","","","","","","triplet","1150.7999999523163","","","","1","stimuli/stim009_animate_face_1.png","stimuli/tree_uppercase.png","stimuli/stim019_inanimate_tree_3.png","33"
"html-button-response-mod","38","126967","0.0-38.0","76450","","","","","","triplet","751.3999998569489","","","","1","stimuli/stim007_animate_bird_3.png","stimuli/bird_uppercase.png","stimuli/stim002_animate_fish_2.png","34"
"html-button-response-mod","39","128807","0.0-39.0","76450","","","","","","triplet","1324.5","","","","1","stimuli/stim002_animate_fish_2.png","stimuli/stim011_animate_face_3.png","stimuli/stim008_animate_bird_4.png","35"
"html-button-response-mod","40","130199","0.0-40.0","76450","","","","","","triplet","877.3000001907349","","","","1","stimuli/stim001_animate_fish_1.png","stimuli/stim023_inanimate_tools_3.png","stimuli/stim002_animate_fish_2.png","36"
"html-button-response-mod","41","131399","0.0-41.0","76450","","","","","","triplet","690.5","","","","0","stimuli/stim007_animate_bird_3.png","stimuli/bird_uppercase.png","stimuli/bird_lowercase.png","37"
"html-button-response-mod","42","133983","0.0-42.0","76450","","","","","","triplet","2081.2000000476837","","","","2","stimuli/face_uppercase.png","stimuli/face_lowercase.png","stimuli/stim010_animate_face_2.png","38"
"html-button-response-mod","43","135263","0.0-43.0","76450","","","","","","triplet","778","","","","0","stimuli/tree_lowercase.png","stimuli/stim020_inanimate_tree_4.png","stimuli/stim003_animate_fish_3.png","39"
"html-button-response-mod","44","136857","0.0-44.0","76450","","","","","","triplet","1082.2999999523163","","","","2","stimuli/stim007_animate_bird_3.png","stimuli/stim017_inanimate_tree_1.png","stimuli/face_uppercase.png","40"
"html-button-response-mod","45","138177","0.0-45.0","76450","","","","","","triplet","817.5","","","","2","stimuli/stim013_inanimate_boats_1.png","stimuli/stim022_inanimate_tools_2.png","stimuli/boats_lowercase.png","41"
"html-button-response-mod","46","139447","0.0-46.0","76450","","","","","","triplet","767.5","","","","1","stimuli/stim003_animate_fish_3.png","stimuli/stim021_inanimate_tools_1.png","stimuli/stim016_inanimate_boats_4.png","42"
"html-button-response-mod","47","141663","0.0-47.0","76450","","","","","","triplet","1711.8999998569489","","","","0","stimuli/tools_uppercase.png","stimuli/boats_lowercase.png","stimuli/stim013_inanimate_boats_1.png","43"
"html-button-response-mod","48","143656","0.0-48.0","76450","","","","","","triplet","1480.7000000476837","","","","0","stimuli/bird_lowercase.png","stimuli/stim002_animate_fish_2.png","stimuli/stim015_inanimate_boats_3.png","44"
"html-button-response-mod","49","145193","0.0-49.0","76450","","","","","","triplet","1023.5","","","","2","stimuli/tree_uppercase.png","stimuli/tree_lowercase.png","stimuli/stim005_animate_bird_1.png","45"
"html-button-response-mod","50","146759","0.0-50.0","76450","","","","","","triplet","1063.1000001430511","","","","0","stimuli/tree_lowercase.png","stimuli/stim010_animate_face_2.png","stimuli/stim023_inanimate_tools_3.png","46"
"html-button-response-mod","51","148663","0.0-51.0","76450","","","","","","triplet","1401.0999999046326","","","","1","stimuli/tools_uppercase.png","stimuli/stim017_inanimate_tree_1.png","stimuli/face_lowercase.png","47"
"html-button-response-mod","52","150175","0.0-52.0","76450","","","","","","triplet","1009.8999998569489","","","","1","stimuli/tools_lowercase.png","stimuli/stim020_inanimate_tree_4.png","stimuli/boats_uppercase.png","48"
"html-button-response-mod","53","153135","0.0-53.0","76450","","","","","","triplet","2452.100000143051","","","","1","stimuli/boats_uppercase.png","stimuli/stim006_animate_bird_2.png","stimuli/stim013_inanimate_boats_1.png","49"
"html-button-response","54","155816","0.0-54.0","76450","","","","","","break","2166","<p>BREAK</p><p>Take a break for as long as you need</p><p>Click the button to continue</p>","0","","","","","",""
"html-button-response-mod","55","157623","0.0-55.0","76450","","","","","","triplet","1805.9000000953674","","","","2","stimuli/stim013_inanimate_boats_1.png","stimuli/stim016_inanimate_boats_4.png","stimuli/boats_lowercase.png","50"
"html-button-response-mod","56","159551","0.0-56.0","76450","","","","","","triplet","1421.3999998569489","","","","0","stimuli/stim024_inanimate_tools_4.png","stimuli/stim010_animate_face_2.png","stimuli/stim005_animate_bird_1.png","51"
"html-button-response-mod","57","160912","0.0-57.0","76450","","","","","","triplet","856.2999999523163","","","","2","stimuli/stim004_animate_fish_4.png","stimuli/bird_uppercase.png","stimuli/tools_lowercase.png","52"
"html-button-response-mod","58","161880","0.0-58.0","76450","","","","","","triplet","465.2999999523163","","","","0","stimuli/stim023_inanimate_tools_3.png","stimuli/stim003_animate_fish_3.png","stimuli/stim020_inanimate_tree_4.png","53"
"html-button-response-mod","59","162663","0.0-59.0","76450","","","","","","triplet","281.7000000476837","","","","2","stimuli/stim003_animate_fish_3.png","stimuli/fish_uppercase.png","stimuli/stim008_animate_bird_4.png","54"
"html-button-response-mod","60","163367","0.0-60.0","76450","","","","","","triplet","201.40000009536743","","","","1","stimuli/boats_uppercase.png","stimuli/stim005_animate_bird_1.png","stimuli/stim022_inanimate_tools_2.png","55"
"html-button-response-mod","61","164128","0.0-61.0","76450","","","","","","triplet","258.7999999523163","","","","1","stimuli/stim017_inanimate_tree_1.png","stimuli/stim019_inanimate_tree_3.png","stimuli/tree_lowercase.png","56"
"html-button-response-mod","62","164823","0.0-62.0","76450","","","","","","triplet","192.59999990463257","","","","0","stimuli/stim020_inanimate_tree_4.png","stimuli/fish_uppercase.png","stimuli/stim018_inanimate_tree_2.png","57"
"html-button-response-mod","63","165928","0.0-63.0","76450","","","","","","triplet","602.3000001907349","","","","2","stimuli/stim021_inanimate_tools_1.png","stimuli/stim008_animate_bird_4.png","stimuli/stim006_animate_bird_2.png","58"
"html-button-response-mod","64","166551","0.0-64.0","76450","","","","","","triplet","120","","","","0","stimuli/tools_uppercase.png","stimuli/boats_uppercase.png","stimuli/tree_lowercase.png","59"
"html-button-response-mod","65","167553","0.0-65.0","76450","","","","","","triplet","498.2000000476837","","","","2","stimuli/boats_lowercase.png","stimuli/stim013_inanimate_boats_1.png","stimuli/stim010_animate_face_2.png","60"
"html-button-response-mod","66","168487","0.0-66.0","76450","","","","","","triplet","430.60000014305115","","","","0","stimuli/boats_lowercase.png","stimuli/stim023_inanimate_tools_3.png","stimuli/stim015_inanimate_boats_3.png","61"
"html-button-response-mod","67","169183","0.0-67.0","76450","","","","","","triplet","193.39999985694885","","","","2","stimuli/tools_lowercase.png","stimuli/tools_uppercase.png","stimuli/tree_uppercase.png","62"
"html-button-response-mod","68","169831","0.0-68.0","76450","","","","","","triplet","146","","","","1","stimuli/stim024_inanimate_tools_4.png","stimuli/tools_uppercase.png","stimuli/stim013_inanimate_boats_1.png","63"
"html-button-response-mod","69","170447","0.0-69.0","76450","","","","","","triplet","112","","","","2","stimuli/stim017_inanimate_tree_1.png","stimuli/bird_uppercase.png","stimuli/tools_lowercase.png","64"
"html-button-response-mod","70","171111","0.0-70.0","76450","","","","","","triplet","161.40000009536743","","","","1","stimuli/stim009_animate_face_1.png","stimuli/fish_lowercase.png","stimuli/stim006_animate_bird_2.png","65"
"html-button-response-mod","71","171703","0.0-71.0","76450","","","","","","triplet","88.80000019073486","","","","2","stimuli/bird_uppercase.png","stimuli/stim019_inanimate_tree_3.png","stimuli/stim021_inanimate_tools_1.png","66"
"html-button-response-mod","72","172335","0.0-72.0","76450","","","","","","triplet","128.69999980926514","","","","1","stimuli/tree_lowercase.png","stimuli/fish_uppercase.png","stimuli/stim013_inanimate_boats_1.png","67"
"html-button-response-mod","73","172951","0.0-73.0","76450","","","","","","triplet","114.20000004768372","","","","2","stimuli/stim001_animate_fish_1.png","stimuli/boats_uppercase.png","stimuli/bird_uppercase.png","68"
"html-button-response-mod","74","173567","0.0-74.0","76450","","","","","","triplet","113.20000004768372","","","","1","stimuli/stim023_inanimate_tools_3.png","stimuli/stim001_animate_fish_1.png","stimuli/stim019_inanimate_tree_3.png","69"
"html-button-response-mod","75","174199","0.0-75.0","76450","","","","","","triplet","129.89999985694885","","","","1","stimuli/stim021_inanimate_tools_1.png","stimuli/tree_uppercase.png","stimuli/stim008_animate_bird_4.png","70"
"html-button-response-mod","76","174823","0.0-76.0","76450","","","","","","triplet","121.69999980926514","","","","1","stimuli/stim012_animate_face_4.png","stimuli/tree_uppercase.png","stimuli/stim015_inanimate_boats_3.png","71"
"html-button-response-mod","77","175431","0.0-77.0","76450","","","","","","triplet","104.69999980926514","","","","2","stimuli/boats_lowercase.png","stimuli/stim003_animate_fish_3.png","stimuli/stim017_inanimate_tree_1.png","72"
"html-button-response-mod","78","175999","0.0-78.0","76450","","","","","","triplet","64.30000019073486","","","","0","stimuli/stim023_inanimate_tools_3.png","stimuli/tools_uppercase.png","stimuli/stim024_inanimate_tools_4.png","73"
"html-button-response-mod","79","176623","0.0-79.0","76450","","","","","","triplet","122.29999995231628","","","","1","stimuli/boats_lowercase.png","stimuli/stim018_inanimate_tree_2.png","stimuli/bird_lowercase.png","74"
"html-button-response-mod","80","177231","0.0-80.0","76450","","","","","","triplet","106.10000014305115","","","","0","stimuli/stim022_inanimate_tools_2.png","stimuli/face_lowercase.png","stimuli/boats_uppercase.png","75"
"html-button-response-mod","81","177839","0.0-81.0","76450","","","","","","triplet","104.69999980926514","","","","2","stimuli/tools_lowercase.png","stimuli/stim021_inanimate_tools_1.png","stimuli/stim007_animate_bird_3.png","76"
"html-button-response-mod","82","178447","0.0-82.0","76450","","","","","","triplet","105.29999995231628","","","","0","stimuli/stim014_inanimate_boats_2.png","stimuli/stim015_inanimate_boats_3.png","stimuli/stim008_animate_bird_4.png","77"
"html-button-response-mod","83","179071","0.0-83.0","76450","","","","","","triplet","120.60000014305115","","","","2","stimuli/stim008_animate_bird_4.png","stimuli/stim013_inanimate_boats_1.png","stimuli/stim007_animate_bird_3.png","78"
"html-button-response-mod","84","179703","0.0-84.0","76450","","","","","","triplet","129","","","","1","stimuli/fish_lowercase.png","stimuli/stim010_animate_face_2.png","stimuli/boats_lowercase.png","79"
"html-button-response-mod","85","180687","0.0-85.0","76450","","","","","","triplet","476.60000014305115","","","","2","stimuli/stim006_animate_bird_2.png","stimuli/bird_lowercase.png","stimuli/stim002_animate_fish_2.png","80"
"html-button-response-mod","86","181311","0.0-86.0","76450","","","","","","triplet","119.29999995231628","","","","0","stimuli/tools_uppercase.png","stimuli/stim003_animate_fish_3.png","stimuli/stim017_inanimate_tree_1.png","81"
"html-button-response-mod","87","181936","0.0-87.0","76450","","","","","","triplet","122.5","","","","1","stimuli/bird_lowercase.png","stimuli/stim011_animate_face_3.png","stimuli/fish_lowercase.png","82"
"html-button-response-mod","88","182551","0.0-88.0","76450","","","","","","triplet","111.90000009536743","","","","1","stimuli/stim018_inanimate_tree_2.png","stimuli/tools_lowercase.png","stimuli/boats_lowercase.png","83"
"html-button-response-mod","89","183208","0.0-89.0","76450","","","","","","triplet","154","","","","2","stimuli/stim015_inanimate_boats_3.png","stimuli/fish_uppercase.png","stimuli/boats_lowercase.png","84"
"html-button-response-mod","90","183832","0.0-90.0","76450","","","","","","triplet","120.79999995231628","","","","0","stimuli/stim008_animate_bird_4.png","stimuli/stim015_inanimate_boats_3.png","stimuli/stim002_animate_fish_2.png","85"
"html-button-response-mod","91","184447","0.0-91.0","76450","","","","","","triplet","110.79999995231628","","","","2","stimuli/stim017_inanimate_tree_1.png","stimuli/bird_lowercase.png","stimuli/stim019_inanimate_tree_3.png","86"
"html-button-response-mod","92","185192","0.0-92.0","76450","","","","","","triplet","242.60000014305115","","","","0","stimuli/stim021_inanimate_tools_1.png","stimuli/fish_lowercase.png","stimuli/tree_uppercase.png","87"
"html-button-response-mod","93","185784","0.0-93.0","76450","","","","","","triplet","87.09999990463257","","","","2","stimuli/tree_lowercase.png","stimuli/stim023_inanimate_tools_3.png","stimuli/stim016_inanimate_boats_4.png","88"
"html-button-response-mod","94","186407","0.0-94.0","76450","","","","","","triplet","120.89999985694885","","","","1","stimuli/stim020_inanimate_tree_4.png","stimuli/stim002_animate_fish_2.png","stimuli/stim005_animate_bird_1.png","89"
"html-button-response-mod","95","187031","0.0-95.0","76450","","","","","","triplet","119.90000009536743","","","","2","stimuli/stim005_animate_bird_1.png","stimuli/stim002_animate_fish_2.png","stimuli/stim006_animate_bird_2.png","90"
"html-button-response-mod","96","187663","0.0-96.0","76450","","","","","","triplet","130.09999990463257","","","","0","stimuli/fish_uppercase.png","stimuli/stim018_inanimate_tree_2.png","stimuli/bird_lowercase.png","91"
"html-button-response-mod","97","188703","0.0-97.0","76450","","","","","","triplet","537.9000000953674","","","","2","stimuli/boats_uppercase.png","stimuli/bird_uppercase.png","stimuli/face_uppercase.png","92"
"html-button-response-mod","98","189352","0.0-98.0","76450","","","","","","triplet","140.5","","","","0","stimuli/stim022_inanimate_tools_2.png","stimuli/stim023_inanimate_tools_3.png","stimuli/stim011_animate_face_3.png","93"
"html-button-response-mod","99","190015","0.0-99.0","76450","","","","","","triplet","159.90000009536743","","","","2","stimuli/stim024_inanimate_tools_4.png","stimuli/face_lowercase.png","stimuli/stim008_animate_bird_4.png","94"
"html-button-response-mod","100","190608","0.0-100.0","76450","","","","","","triplet","90.19999980926514","","","","0","stimuli/stim022_inanimate_tools_2.png","stimuli/bird_uppercase.png","stimuli/fish_uppercase.png","95"
"html-button-response-mod","101","191215","0.0-101.0","76450","","","","","","triplet","104.70000004768372","","","","2","stimuli/stim015_inanimate_boats_3.png","stimuli/stim014_inanimate_boats_2.png","stimuli/boats_uppercase.png","96"
"html-button-response-mod","102","191824","0.0-102.0","76450","","","","","","triplet","105.29999995231628","","","","1","stimuli/stim005_animate_bird_1.png","stimuli/stim011_animate_face_3.png","stimuli/stim007_animate_bird_3.png","97"
"html-button-response-mod","103","193015","0.0-103.0","76450","","","","","","triplet","682.4000000953674","","","","2","stimuli/stim012_animate_face_4.png","stimuli/stim021_inanimate_tools_1.png","stimuli/bird_lowercase.png","98"
"html-button-response-mod","104","193616","0.0-104.0","76450","","","","","","triplet","98.90000009536743","","","","0","stimuli/stim015_inanimate_boats_3.png","stimuli/stim001_animate_fish_1.png","stimuli/fish_lowercase.png","99"
"html-button-response","105","194207","0.0-105.0","76450","","","","","","break","89.5","<p>BREAK</p><p>Take a break for as long as you need</p><p>Click the button to continue</p>","0","","","","","",""
"html-button-response-mod","106","195103","0.0-106.0","76450","","","","","","triplet","893.5999999046326","","","","2","stimuli/tools_lowercase.png","stimuli/stim002_animate_fish_2.png","stimuli/face_uppercase.png","100"
"html-button-response-mod","107","195663","0.0-107.0","76450","","","","","","triplet","56.799999952316284","","","","0","stimuli/stim004_animate_fish_4.png","stimuli/stim015_inanimate_boats_3.png","stimuli/stim006_animate_bird_2.png","101"
"html-button-response-mod","108","196655","0.0-108.0","76450","","","","","","triplet","489.7999999523163","","","","2","stimuli/stim013_inanimate_boats_1.png","stimuli/stim012_animate_face_4.png","stimuli/stim021_inanimate_tools_1.png","102"
"html-button-response-mod","109","197263","0.0-109.0","76450","","","","","","triplet","105.5","","","","1","stimuli/bird_uppercase.png","stimuli/tools_lowercase.png","stimuli/tree_uppercase.png","103"
"html-button-response-mod","110","198048","0.0-110.0","76450","","","","","","triplet","281.5","","","","2","stimuli/stim007_animate_bird_3.png","stimuli/face_lowercase.png","stimuli/stim022_inanimate_tools_2.png","104"
"html-button-response-mod","111","198679","0.0-111.0","76450","","","","","","triplet","128.69999980926514","","","","1","stimuli/fish_lowercase.png","stimuli/stim019_inanimate_tree_3.png","stimuli/stim007_animate_bird_3.png","105"
"html-button-response-mod","112","199319","0.0-112.0","76450","","","","","","triplet","137.09999990463257","","","","2","stimuli/stim010_animate_face_2.png","stimuli/bird_uppercase.png","stimuli/tools_lowercase.png","106"
"html-button-response-mod","113","199936","0.0-113.0","76450","","","","","","triplet","112.90000009536743","","","","0","stimuli/tools_lowercase.png","stimuli/bird_lowercase.png","stimuli/stim007_animate_bird_3.png","107"
"html-button-response-mod","114","200535","0.0-114.0","76450","","","","","","triplet","95","","","","2","stimuli/stim003_animate_fish_3.png","stimuli/stim002_animate_fish_2.png","stimuli/tree_uppercase.png","108"
"html-button-response-mod","115","201144","0.0-115.0","76450","","","","","","triplet","106.5","","","","1","stimuli/stim013_inanimate_boats_1.png","stimuli/stim006_animate_bird_2.png","stimuli/stim010_animate_face_2.png","109"
"html-button-response-mod","116","202280","0.0-116.0","76450","","","","","","triplet","632","","","","1","stimuli/stim007_animate_bird_3.png","stimuli/stim004_animate_fish_4.png","stimuli/stim011_animate_face_3.png","110"
"html-button-response-mod","117","202935","0.0-117.0","76450","","","","","","triplet","137.19999980926514","","","","0","stimuli/fish_uppercase.png","stimuli/stim013_inanimate_boats_1.png","stimuli/stim002_animate_fish_2.png","111"
"html-button-response-mod","118","203535","0.0-118.0","76450","","","","","","triplet","98.40000009536743","","","","2","stimuli/stim013_inanimate_boats_1.png","stimuli/tree_uppercase.png","stimuli/stim015_inanimate_boats_3.png","112"
"html-button-response-mod","119","204127","0.0-119.0","76450","","","","","","triplet","90","","","","0","stimuli/stim010_animate_face_2.png","stimuli/face_lowercase.png","stimuli/fish_uppercase.png","113"
"html-button-response-mod","120","204728","0.0-120.0","76450","","","","","","triplet","97","","","","2","stimuli/stim024_inanimate_tools_4.png","stimuli/boats_lowercase.png","stimuli/stim008_animate_bird_4.png","114"
"html-button-response-mod","121","205335","0.0-121.0","76450","","","","","","triplet","102.5","","","","0","stimuli/tools_lowercase.png","stimuli/stim021_inanimate_tools_1.png","stimuli/stim006_animate_bird_2.png","115"
"html-button-response-mod","122","205943","0.0-122.0","76450","","","","","","triplet","103.89999985694885","","","","2","stimuli/stim003_animate_fish_3.png","stimuli/stim014_inanimate_boats_2.png","stimuli/stim021_inanimate_tools_1.png","116"
"html-button-response-mod","123","206535","0.0-123.0","76450","","","","","","triplet","89.79999995231628","","","","0","stimuli/stim005_animate_bird_1.png","stimuli/stim020_inanimate_tree_4.png","stimuli/bird_uppercase.png","117"
"html-button-response-mod","124","207127","0.0-124.0","76450","","","","","","triplet","89","","","","2","stimuli/stim023_inanimate_tools_3.png","stimuli/stim018_inanimate_tree_2.png","stimuli/stim012_animate_face_4.png","118"
"html-button-response-mod","125","207752","0.0-125.0","76450","","","","","","triplet","120.09999990463257","","","","1","stimuli/stim005_animate_bird_1.png","stimuli/stim023_inanimate_tools_3.png","stimuli/fish_uppercase.png","119"
"html-button-response-mod","126","208336","0.0-126.0","76450","","","","","","triplet","81.09999990463257","","","","1","stimuli/tree_lowercase.png","stimuli/face_uppercase.png","stimuli/fish_lowercase.png","120"
"html-button-response-mod","127","208920","0.0-127.0","76450","","","","","","triplet","81.70000004768372","","","","1","stimuli/tree_uppercase.png","stimuli/stim014_inanimate_boats_2.png","stimuli/stim004_animate_fish_4.png","121"
"html-button-response-mod","128","209519","0.0-128.0","76450","","","","","","triplet","96","","","","2","stimuli/stim019_inanimate_tree_3.png","stimuli/stim015_inanimate_boats_3.png","stimuli/face_lowercase.png","122"
"html-button-response-mod","129","210111","0.0-129.0","76450","","","","","","triplet","88.90000009536743","","","","0","stimuli/stim022_inanimate_tools_2.png","stimuli/stim008_animate_bird_4.png","stimuli/face_lowercase.png","123"
"html-button-response-mod","130","210673","0.0-130.0","76450","","","","","","triplet","57.200000047683716","","","","2","stimuli/bird_uppercase.png","stimuli/stim013_inanimate_boats_1.png","stimuli/stim022_inanimate_tools_2.png","124"
"html-button-response-mod","131","211248","0.0-131.0","76450","","","","","","triplet","71.60000014305115","","","","1","stimuli/stim017_inanimate_tree_1.png","stimuli/stim013_inanimate_boats_1.png","stimuli/face_lowercase.png","125"
"html-button-response-mod","132","211872","0.0-132.0","76450","","","","","","triplet","122.20000004768372","","","","2","stimuli/stim012_animate_face_4.png","stimuli/stim010_animate_face_2.png","stimuli/stim011_animate_face_3.png","126"
"html-button-response-mod","133","212440","0.0-133.0","76450","","","","","","triplet","63.39999985694885","","","","0","stimuli/tools_uppercase.png","stimuli/face_lowercase.png","stimuli/bird_uppercase.png","127"
"html-button-response-mod","134","213041","0.0-134.0","76450","","","","","","triplet","98.90000009536743","","","","2","stimuli/stim018_inanimate_tree_2.png","stimuli/stim005_animate_bird_1.png","stimuli/stim001_animate_fish_1.png","128"
"html-button-response-mod","135","213680","0.0-135.0","76450","","","","","","triplet","134.5","","","","0","stimuli/stim021_inanimate_tools_1.png","stimuli/stim017_inanimate_tree_1.png","stimuli/stim005_animate_bird_1.png","129"
"html-button-response-mod","136","214248","0.0-136.0","76450","","","","","","triplet","64.60000014305115","","","","2","stimuli/boats_uppercase.png","stimuli/stim023_inanimate_tools_3.png","stimuli/stim018_inanimate_tree_2.png","130"
"html-button-response-mod","137","214855","0.0-137.0","76450","","","","","","triplet","104.70000004768372","","","","1","stimuli/tools_lowercase.png","stimuli/tree_uppercase.png","stimuli/stim004_animate_fish_4.png","131"
"html-button-response-mod","138","215432","0.0-138.0","76450","","","","","","triplet","72","","","","1","stimuli/stim012_animate_face_4.png","stimuli/stim010_animate_face_2.png","stimuli/face_uppercase.png","132"
"html-button-response-mod","139","216056","0.0-139.0","76450","","","","","","triplet","119.40000009536743","","","","0","stimuli/tree_uppercase.png","stimuli/stim012_animate_face_4.png","stimuli/face_lowercase.png","133"
"html-button-response-mod","140","216671","0.0-140.0","76450","","","","","","triplet","111.29999995231628","","","","2","stimuli/stim018_inanimate_tree_2.png","stimuli/stim005_animate_bird_1.png","stimuli/stim021_inanimate_tools_1.png","134"
"html-button-response-mod","141","217295","0.0-141.0","76450","","","","","","triplet","121.60000014305115","","","","1","stimuli/stim023_inanimate_tools_3.png","stimuli/stim016_inanimate_boats_4.png","stimuli/stim022_inanimate_tools_2.png","135"
"html-button-response-mod","142","217871","0.0-142.0","76450","","","","","","triplet","73.09999990463257","","","","2","stimuli/face_lowercase.png","stimuli/boats_lowercase.png","stimuli/stim002_animate_fish_2.png","136"
"html-button-response-mod","143","218519","0.0-143.0","76450","","","","","","triplet","145.19999980926514","","","","1","stimuli/bird_uppercase.png","stimuli/fish_lowercase.png","stimuli/stim007_animate_bird_3.png","137"
"html-button-response-mod","144","219136","0.0-144.0","76450","","","","","","triplet","113.90000009536743","","","","2","stimuli/stim022_inanimate_tools_2.png","stimuli/stim019_inanimate_tree_3.png","stimuli/boats_uppercase.png","138"
"html-button-response-mod","145","219776","0.0-145.0","76450","","","","","","triplet","135.5","","","","0","stimuli/stim003_animate_fish_3.png","stimuli/stim010_animate_face_2.png","stimuli/stim015_inanimate_boats_3.png","139"
"html-button-response-mod","146","220384","0.0-146.0","76450","","","","","","triplet","104.20000004768372","","","","2","stimuli/stim001_animate_fish_1.png","stimuli/bird_uppercase.png","stimuli/tree_uppercase.png","140"
"html-button-response-mod","147","220983","0.0-147.0","76450","","","","","","triplet","97.39999985694885","","","","1","stimuli/stim013_inanimate_boats_1.png","stimuli/stim007_animate_bird_3.png","stimuli/stim011_animate_face_3.png","141"
"html-button-response-mod","148","221608","0.0-148.0","76450","","","","","","triplet","121.70000004768372","","","","2","stimuli/stim012_animate_face_4.png","stimuli/stim010_animate_face_2.png","stimuli/tree_uppercase.png","142"
"html-button-response-mod","149","222280","0.0-149.0","76450","","","","","","triplet","168.30000019073486","","","","0","stimuli/stim021_inanimate_tools_1.png","stimuli/stim017_inanimate_tree_1.png","stimuli/bird_uppercase.png","143"
"html-button-response-mod","150","222856","0.0-150.0","76450","","","","","","triplet","71.30000019073486","","","","2","stimuli/boats_uppercase.png","stimuli/stim018_inanimate_tree_2.png","stimuli/face_uppercase.png","144"
"html-button-response-mod","151","223479","0.0-151.0","76450","","","","","","triplet","121","","","","1","stimuli/stim003_animate_fish_3.png","stimuli/face_lowercase.png","stimuli/stim007_animate_bird_3.png","145"
"html-button-response-mod","152","224064","0.0-152.0","76450","","","","","","triplet","80.59999990463257","","","","2","stimuli/stim017_inanimate_tree_1.png","stimuli/tree_lowercase.png","stimuli/stim007_animate_bird_3.png","146"
"html-button-response-mod","153","224655","0.0-153.0","76450","","","","","","triplet","88.59999990463257","","","","1","stimuli/stim017_inanimate_tree_1.png","stimuli/stim013_inanimate_boats_1.png","stimuli/tools_lowercase.png","147"
"html-button-response-mod","154","225224","0.0-154.0","76450","","","","","","triplet","63.89999985694885","","","","2","stimuli/tree_uppercase.png","stimuli/tools_lowercase.png","stimuli/stim002_animate_fish_2.png","148"
"html-button-response-mod","155","225831","0.0-155.0","76450","","","","","","triplet","104.09999990463257","","","","0","stimuli/stim005_animate_bird_1.png","stimuli/stim011_animate_face_3.png","stimuli/stim017_inanimate_tree_1.png","149"
"html-button-response","156","226432","0.0-156.0","76450","","","","","","break","97.60000014305115","<p>BREAK</p><p>Take a break for as long as you need</p><p>Click the button to continue</p>","0","","","","","",""
"html-button-response-mod","157","227256","0.0-157.0","76450","","","","","","triplet","822.2000000476837","","","","1","stimuli/stim003_animate_fish_3.png","stimuli/face_uppercase.png","stimuli/stim019_inanimate_tree_3.png","150"
"html-button-response-mod","158","228327","0.0-158.0","76450","","","","","","triplet","566.8999998569489","","","","2","stimuli/stim022_inanimate_tools_2.png","stimuli/stim010_animate_face_2.png","stimuli/stim009_animate_face_1.png","151"
"html-button-response-mod","159","229383","0.0-159.0","76450","","","","","","triplet","540.2000000476837","","","","0","stimuli/face_lowercase.png","stimuli/stim006_animate_bird_2.png","stimuli/face_uppercase.png","152"
"html-button-response-mod","160","230400","0.0-160.0","76450","","","","","","triplet","507.60000014305115","","","","0","stimuli/stim002_animate_fish_2.png","stimuli/stim005_animate_bird_1.png","stimuli/stim023_inanimate_tools_3.png","153"
"html-button-response-mod","161","230991","0.0-161.0","76450","","","","","","triplet","88.09999990463257","","","","0","stimuli/tree_lowercase.png","stimuli/stim007_animate_bird_3.png","stimuli/stim023_inanimate_tools_3.png","154"
"html-button-response-mod","162","231599","0.0-162.0","76450","","","","","","triplet","104","","","","2","stimuli/tools_uppercase.png","stimuli/stim010_animate_face_2.png","stimuli/stim007_animate_bird_3.png","155"
"html-button-response-mod","163","237306","0.0-163.0","76450","","","","","","triplet","5194.5","","","","2","stimuli/stim013_inanimate_boats_1.png","stimuli/boats_uppercase.png","stimuli/stim002_animate_fish_2.png","156"
"html-button-response-mod","164","237920","0.0-164.0","76450","","","","","","triplet","110.29999995231628","","","","0","stimuli/boats_lowercase.png","stimuli/stim011_animate_face_3.png","stimuli/stim006_animate_bird_2.png","157"
"html-button-response-mod","165","238496","0.0-165.0","76450","","","","","","triplet","73.20000004768372","","","","2","stimuli/stim011_animate_face_3.png","stimuli/fish_uppercase.png","stimuli/stim020_inanimate_tree_4.png","158"
"html-button-response-mod","166","239063","0.0-166.0","76450","","","","","","triplet","55.80000019073486","","","","1","stimuli/tree_lowercase.png","stimuli/stim009_animate_face_1.png","stimuli/stim019_inanimate_tree_3.png","159"
"html-button-response-mod","167","240191","0.0-167.0","76450","","","","","","triplet","621.2999999523163","","","","2","stimuli/stim010_animate_face_2.png","stimuli/stim019_inanimate_tree_3.png","stimuli/tree_uppercase.png","160"
"html-button-response-mod","168","241143","0.0-168.0","76450","","","","","","triplet","444.2000000476837","","","","0","stimuli/stim021_inanimate_tools_1.png","stimuli/tree_uppercase.png","stimuli/tools_lowercase.png","161"
"html-button-response-mod","169","241855","0.0-169.0","76450","","","","","","triplet","207.89999985694885","","","","2","stimuli/tree_uppercase.png","stimuli/stim007_animate_bird_3.png","stimuli/tree_lowercase.png","162"
"html-button-response-mod","170","242768","0.0-170.0","76450","","","","","","triplet","402.2999999523163","","","","1","stimuli/stim015_inanimate_boats_3.png","stimuli/fish_lowercase.png","stimuli/stim004_animate_fish_4.png","163"
"html-button-response-mod","171","243352","0.0-171.0","76450","","","","","","triplet","80.90000009536743","","","","1","stimuli/stim013_inanimate_boats_1.png","stimuli/face_lowercase.png","stimuli/stim015_inanimate_boats_3.png","164"
"html-button-response-mod","172","243960","0.0-172.0","76450","","","","","","triplet","104.89999985694885","","","","0","stimuli/stim008_animate_bird_4.png","stimuli/stim003_animate_fish_3.png","stimuli/stim017_inanimate_tree_1.png","165"
"html-button-response-mod","173","244551","0.0-173.0","76450","","","","","","triplet","89.59999990463257","","","","2","stimuli/boats_lowercase.png","stimuli/tree_lowercase.png","stimuli/stim014_inanimate_boats_2.png","166"
"html-button-response-mod","174","245160","0.0-174.0","76450","","","","","","triplet","105.29999995231628","","","","1","stimuli/stim024_inanimate_tools_4.png","stimuli/tools_uppercase.png","stimuli/stim021_inanimate_tools_1.png","167"
"html-button-response-mod","175","245760","0.0-175.0","76450","","","","","","triplet","96.29999995231628","","","","2","stimuli/stim002_animate_fish_2.png","stimuli/tree_uppercase.png","stimuli/tree_lowercase.png","168"
"html-button-response-mod","176","246368","0.0-176.0","76450","","","","","","triplet","105.69999980926514","","","","1","stimuli/face_lowercase.png","stimuli/stim020_inanimate_tree_4.png","stimuli/stim023_inanimate_tools_3.png","169"
"html-button-response-mod","177","246968","0.0-177.0","76450","","","","","","triplet","97.29999995231628","","","","2","stimuli/stim008_animate_bird_4.png","stimuli/boats_lowercase.png","stimuli/stim006_animate_bird_2.png","170"
"html-button-response-mod","178","247551","0.0-178.0","76450","","","","","","triplet","79.59999990463257","","","","0","stimuli/stim009_animate_face_1.png","stimuli/tools_lowercase.png","stimuli/stim019_inanimate_tree_3.png","171"
"html-button-response-mod","179","248192","0.0-179.0","76450","","","","","","triplet","137.69999980926514","","","","2","stimuli/stim011_animate_face_3.png","stimuli/stim005_animate_bird_1.png","stimuli/stim001_animate_fish_1.png","172"
"html-button-response-mod","180","249105","0.0-180.0","76450","","","","","","triplet","403.19999980926514","","","","1","stimuli/stim014_inanimate_boats_2.png","stimuli/stim015_inanimate_boats_3.png","stimuli/stim022_inanimate_tools_2.png","173"
"html-button-response-mod","181","249783","0.0-181.0","76450","","","","","","triplet","174.70000004768372","","","","2","stimuli/tree_uppercase.png","stimuli/stim008_animate_bird_4.png","stimuli/stim015_inanimate_boats_3.png","174"
"html-button-response-mod","182","250400","0.0-182.0","76450","","","","","","triplet","112.90000009536743","","","","1","stimuli/stim023_inanimate_tools_3.png","stimuli/stim003_animate_fish_3.png","stimuli/tools_lowercase.png","175"
"html-button-response-mod","183","251056","0.0-183.0","76450","","","","","","triplet","154.10000014305115","","","","2","stimuli/stim011_animate_face_3.png","stimuli/stim018_inanimate_tree_2.png","stimuli/stim020_inanimate_tree_4.png","176"
"html-button-response-mod","184","251648","0.0-184.0","76450","","","","","","triplet","87.60000014305115","","","","0","stimuli/stim016_inanimate_boats_4.png","stimuli/tree_lowercase.png","stimuli/face_uppercase.png","177"
"html-button-response-mod","185","252273","0.0-185.0","76450","","","","","","triplet","121.19999980926514","","","","2","stimuli/stim001_animate_fish_1.png","stimuli/stim006_animate_bird_2.png","stimuli/tools_lowercase.png","178"
"html-button-response-mod","186","252887","0.0-186.0","76450","","","","","","triplet","110.5","","","","1","stimuli/tree_lowercase.png","stimuli/stim009_animate_face_1.png","stimuli/stim024_inanimate_tools_4.png","179"
"html-button-response-mod","187","253543","0.0-187.0","76450","","","","","","triplet","153.29999995231628","","","","2","stimuli/tree_lowercase.png","stimuli/stim002_animate_fish_2.png","stimuli/face_uppercase.png","180"
"html-button-response-mod","188","254184","0.0-188.0","76450","","","","","","triplet","138.60000014305115","","","","0","stimuli/stim019_inanimate_tree_3.png","stimuli/stim022_inanimate_tools_2.png","stimuli/stim018_inanimate_tree_2.png","181"
"html-button-response-mod","189","254808","0.0-189.0","76450","","","","","","triplet","120.20000004768372","","","","2","stimuli/stim006_animate_bird_2.png","stimuli/stim015_inanimate_boats_3.png","stimuli/stim002_animate_fish_2.png","182"
"html-button-response-mod","190","255440","0.0-190.0","76450","","","","","","triplet","126.89999985694885","","","","0","stimuli/face_lowercase.png","stimuli/tools_lowercase.png","stimuli/bird_lowercase.png","183"
"html-button-response-mod","191","256024","0.0-191.0","76450","","","","","","triplet","81.69999980926514","","","","2","stimuli/stim022_inanimate_tools_2.png","stimuli/stim021_inanimate_tools_1.png","stimuli/face_lowercase.png","184"
"html-button-response-mod","192","256616","0.0-192.0","76450","","","","","","triplet","88.20000004768372","","","","0","stimuli/stim021_inanimate_tools_1.png","stimuli/stim012_animate_face_4.png","stimuli/stim003_animate_fish_3.png","185"
"html-button-response-mod","193","257223","0.0-193.0","76450","","","","","","triplet","104.70000004768372","","","","2","stimuli/stim002_animate_fish_2.png","stimuli/stim020_inanimate_tree_4.png","stimuli/stim021_inanimate_tools_1.png","186"
"html-button-response-mod","194","257912","0.0-194.0","76450","","","","","","triplet","186.60000014305115","","","","0","stimuli/bird_uppercase.png","stimuli/fish_uppercase.png","stimuli/stim014_inanimate_boats_2.png","187"
"html-button-response-mod","195","258512","0.0-195.0","76450","","","","","","triplet","98.39999985694885","","","","2","stimuli/stim009_animate_face_1.png","stimuli/stim008_animate_bird_4.png","stimuli/tools_lowercase.png","188"
"html-button-response-mod","196","259151","0.0-196.0","76450","","","","","","triplet","138.29999995231628","","","","0","stimuli/tools_lowercase.png","stimuli/tree_lowercase.png","stimuli/stim019_inanimate_tree_3.png","189"
"html-button-response-mod","197","259768","0.0-197.0","76450","","","","","","triplet","113.40000009536743","","","","2","stimuli/stim022_inanimate_tools_2.png","stimuli/stim001_animate_fish_1.png","stimuli/fish_lowercase.png","190"
"html-button-response-mod","198","260407","0.0-198.0","76450","","","","","","triplet","135.29999995231628","","","","0","stimuli/face_uppercase.png","stimuli/tree_uppercase.png","stimuli/tools_lowercase.png","191"
"html-button-response-mod","199","261488","0.0-199.0","76450","","","","","","triplet","566.6999998092651","","","","1","stimuli/stim012_animate_face_4.png","stimuli/stim008_animate_bird_4.png","stimuli/stim011_animate_face_3.png","192"
"html-button-response-mod","200","262079","0.0-200.0","76450","","","","","","triplet","87.40000009536743","","","","0","stimuli/stim024_inanimate_tools_4.png","stimuli/fish_lowercase.png","stimuli/stim019_inanimate_tree_3.png","193"
"html-button-response-mod","201","262735","0.0-201.0","76450","","","","","","triplet","154.79999995231628","","","","2","stimuli/stim008_animate_bird_4.png","stimuli/face_uppercase.png","stimuli/stim017_inanimate_tree_1.png","194"
"html-button-response-mod","202","263383","0.0-202.0","76450","","","","","","triplet","146.5","","","","0","stimuli/stim021_inanimate_tools_1.png","stimuli/tools_lowercase.png","stimuli/stim019_inanimate_tree_3.png","195"
"html-button-response-mod","203","263999","0.0-203.0","76450","","","","","","triplet","113.19999980926514","","","","2","stimuli/stim014_inanimate_boats_2.png","stimuli/stim003_animate_fish_3.png","stimuli/bird_uppercase.png","196"
"html-button-response-mod","204","264655","0.0-204.0","76450","","","","","","triplet","153.70000004768372","","","","1","stimuli/stim011_animate_face_3.png","stimuli/stim012_animate_face_4.png","stimuli/stim002_animate_fish_2.png","197"
"html-button-response-mod","205","265304","0.0-205.0","76450","","","","","","triplet","145.69999980926514","","","","2","stimuli/tree_lowercase.png","stimuli/bird_uppercase.png","stimuli/tree_uppercase.png","198"
"html-button-response-mod","206","265936","0.0-206.0","76450","","","","","","triplet","119.59999990463257","","","","1","stimuli/fish_uppercase.png","stimuli/face_uppercase.png","stimuli/stim022_inanimate_tools_2.png","199"
"html-button-response","207","286471","0.0-207.0","76450","","","","","","break","20023.900000095367","<p>BREAK</p><p>Take a break for as long as you need</p><p>Click the button to continue</p>","0","","","","","",""
"html-button-response-mod","208","287064","0.0-208.0","76450","","","","","","triplet","591.0999999046326","","","","2","stimuli/face_uppercase.png","stimuli/stim011_animate_face_3.png","stimuli/stim018_inanimate_tree_2.png","200"
"html-button-response-mod","209","287857","0.0-209.0","76450","","","","","","triplet","290.40000009536743","","","","1","stimuli/tree_uppercase.png","stimuli/stim019_inanimate_tree_3.png","stimuli/stim022_inanimate_tools_2.png","201"
"html-button-response-mod","210","288832","0.0-210.0","76450","","","","","","triplet","469.7999999523163","","","","1","stimuli/stim002_animate_fish_2.png","stimuli/stim009_animate_face_1.png","stimuli/stim005_animate_bird_1.png","202"
"html-button-response-mod","211","289751","0.0-211.0","76450","","","","","","triplet","407.2000000476837","","","","0","stimuli/stim006_animate_bird_2.png","stimuli/boats_lowercase.png","stimuli/stim007_animate_bird_3.png","203"
"html-button-response-mod","212","290368","0.0-212.0","76450","","","","","","triplet","113.89999985694885","","","","2","stimuli/stim023_inanimate_tools_3.png","stimuli/face_lowercase.png","stimuli/stim003_animate_fish_3.png","204"
"html-button-response-mod","213","290968","0.0-213.0","76450","","","","","","triplet","97.20000004768372","","","","0","stimuli/stim003_animate_fish_3.png","stimuli/tools_lowercase.png","stimuli/stim011_animate_face_3.png","205"
"html-button-response-mod","214","291568","0.0-214.0","76450","","","","","","triplet","96.70000004768372","","","","1","stimuli/stim023_inanimate_tools_3.png","stimuli/stim015_inanimate_boats_3.png","stimuli/stim010_animate_face_2.png","206"
"html-button-response-mod","215","292456","0.0-215.0","76450","","","","","","triplet","368.7999999523163","","","","1","stimuli/tree_lowercase.png","stimuli/stim015_inanimate_boats_3.png","stimuli/stim004_animate_fish_4.png","207"
"html-button-response-mod","216","293040","0.0-216.0","76450","","","","","","triplet","81.90000009536743","","","","2","stimuli/stim013_inanimate_boats_1.png","stimuli/stim004_animate_fish_4.png","stimuli/stim014_inanimate_boats_2.png","208"
"html-button-response-mod","217","293624","0.0-217.0","76450","","","","","","triplet","82.19999980926514","","","","1","stimuli/stim014_inanimate_boats_2.png","stimuli/face_uppercase.png","stimuli/stim019_inanimate_tree_3.png","209"
"html-button-response-mod","218","294215","0.0-218.0","76450","","","","","","triplet","89.90000009536743","","","","2","stimuli/stim008_animate_bird_4.png","stimuli/stim010_animate_face_2.png","stimuli/tools_uppercase.png","210"
"html-button-response-mod","219","294816","0.0-219.0","76450","","","","","","triplet","97.70000004768372","","","","1","stimuli/stim001_animate_fish_1.png","stimuli/stim012_animate_face_4.png","stimuli/tree_lowercase.png","211"
"html-button-response-mod","220","295959","0.0-220.0","76450","","","","","","triplet","639.3000001907349","","","","2","stimuli/stim004_animate_fish_4.png","stimuli/stim005_animate_bird_1.png","stimuli/tools_lowercase.png","212"
"html-button-response-mod","221","296903","0.0-221.0","76450","","","","","","triplet","432.7000000476837","","","","1","stimuli/stim023_inanimate_tools_3.png","stimuli/boats_uppercase.png","stimuli/stim020_inanimate_tree_4.png","213"
"html-button-response-mod","222","297799","0.0-222.0","76450","","","","","","triplet","389.09999990463257","","","","2","stimuli/tools_lowercase.png","stimuli/tree_uppercase.png","stimuli/fish_uppercase.png","214"
"html-button-response-mod","223","298583","0.0-223.0","76450","","","","","","triplet","280.5","","","","0","stimuli/stim024_inanimate_tools_4.png","stimuli/boats_lowercase.png","stimuli/stim011_animate_face_3.png","215"
"html-button-response-mod","224","299465","0.0-224.0","76450","","","","","","triplet","368.89999985694885","","","","2","stimuli/tools_lowercase.png","stimuli/stim022_inanimate_tools_2.png","stimuli/stim017_inanimate_tree_1.png","216"
"html-button-response-mod","225","300112","0.0-225.0","76450","","","","","","triplet","134.60000014305115","","","","0","stimuli/bird_lowercase.png","stimuli/boats_lowercase.png","stimuli/stim010_animate_face_2.png","217"
"html-button-response-mod","226","300823","0.0-226.0","76450","","","","","","triplet","208.10000014305115","","","","2","stimuli/stim001_animate_fish_1.png","stimuli/stim012_animate_face_4.png","stimuli/tree_uppercase.png","218"
"html-button-response-mod","227","301559","0.0-227.0","76450","","","","","","triplet","219.79999995231628","","","","0","stimuli/fish_lowercase.png","stimuli/stim016_inanimate_boats_4.png","stimuli/stim013_inanimate_boats_1.png","219"
"html-button-response-mod","228","302183","0.0-228.0","76450","","","","","","triplet","113.90000009536743","","","","2","stimuli/stim022_inanimate_tools_2.png","stimuli/stim014_inanimate_boats_2.png","stimuli/stim017_inanimate_tree_1.png","220"
"html-button-response-mod","229","303767","0.0-229.0","76450","","","","","","triplet","1081.2999999523163","","","","0","stimuli/stim019_inanimate_tree_3.png","stimuli/stim017_inanimate_tree_1.png","stimuli/fish_uppercase.png","221"
"html-button-response-mod","230","304343","0.0-230.0","76450","","","","","","triplet","72.69999980926514","","","","2","stimuli/fish_lowercase.png","stimuli/tree_lowercase.png","stimuli/bird_uppercase.png","222"
"html-button-response-mod","231","304959","0.0-231.0","76450","","","","","","triplet","111.20000004768372","","","","1","stimuli/bird_lowercase.png","stimuli/boats_uppercase.png","stimuli/boats_lowercase.png","223"
"html-button-response-mod","232","305551","0.0-232.0","76450","","","","","","triplet","89.39999985694885","","","","2","stimuli/bird_uppercase.png","stimuli/stim014_inanimate_boats_2.png","stimuli/stim006_animate_bird_2.png","224"
"html-button-response-mod","233","306127","0.0-233.0","76450","","","","","","triplet","72.79999995231628","","","","1","stimuli/stim007_animate_bird_3.png","stimuli/boats_uppercase.png","stimuli/stim001_animate_fish_1.png","225"
"html-button-response-mod","234","306711","0.0-234.0","76450","","","","","","triplet","81.89999985694885","","","","2","stimuli/stim019_inanimate_tree_3.png","stimuli/stim011_animate_face_3.png","stimuli/stim017_inanimate_tree_1.png","226"
"html-button-response-mod","235","307263","0.0-235.0","76450","","","","","","triplet","49.5","","","","1","stimuli/face_uppercase.png","stimuli/stim013_inanimate_boats_1.png","stimuli/tools_lowercase.png","227"
"html-button-response-mod","236","307840","0.0-236.0","76450","","","","","","triplet","73.5","","","","2","stimuli/stim021_inanimate_tools_1.png","stimuli/stim003_animate_fish_3.png","stimuli/bird_uppercase.png","228"
"html-button-response-mod","237","308992","0.0-237.0","76450","","","","","","triplet","649.0999999046326","","","","0","stimuli/fish_uppercase.png","stimuli/stim005_animate_bird_1.png","stimuli/stim021_inanimate_tools_1.png","229"
"html-button-response-mod","238","309560","0.0-238.0","76450","","","","","","triplet","59.69999980926514","","","","2","stimuli/stim015_inanimate_boats_3.png","stimuli/bird_lowercase.png","stimuli/boats_uppercase.png","230"
"html-button-response-mod","239","310263","0.0-239.0","76450","","","","","","triplet","201.39999985694885","","","","1","stimuli/tools_uppercase.png","stimuli/stim024_inanimate_tools_4.png","stimuli/stim014_inanimate_boats_2.png","231"
"html-button-response-mod","240","310847","0.0-240.0","76450","","","","","","triplet","81","","","","2","stimuli/stim023_inanimate_tools_3.png","stimuli/stim016_inanimate_boats_4.png","stimuli/boats_uppercase.png","232"
"html-button-response-mod","241","311511","0.0-241.0","76450","","","","","","triplet","161.69999980926514","","","","1","stimuli/stim002_animate_fish_2.png","stimuli/stim015_inanimate_boats_3.png","stimuli/stim023_inanimate_tools_3.png","233"
"html-button-response-mod","242","312111","0.0-242.0","76450","","","","","","triplet","96.89999985694885","","","","2","stimuli/stim018_inanimate_tree_2.png","stimuli/stim020_inanimate_tree_4.png","stimuli/tools_uppercase.png","234"
"html-button-response-mod","243","313184","0.0-243.0","76450","","","","","","triplet","570.5","","","","0","stimuli/stim016_inanimate_boats_4.png","stimuli/face_uppercase.png","stimuli/stim006_animate_bird_2.png","235"
"html-button-response-mod","244","313759","0.0-244.0","76450","","","","","","triplet","71.90000009536743","","","","2","stimuli/stim010_animate_face_2.png","stimuli/face_lowercase.png","stimuli/stim016_inanimate_boats_4.png","236"
"html-button-response-mod","245","314343","0.0-245.0","76450","","","","","","triplet","80.69999980926514","","","","1","stimuli/stim024_inanimate_tools_4.png","stimuli/stim001_animate_fish_1.png","stimuli/stim012_animate_face_4.png","237"
"html-button-response-mod","246","315367","0.0-246.0","76450","","","","","","triplet","510.10000014305115","","","","2","stimuli/stim015_inanimate_boats_3.png","stimuli/stim010_animate_face_2.png","stimuli/stim021_inanimate_tools_1.png","238"
"html-button-response-mod","247","316799","0.0-247.0","76450","","","","","","triplet","925.5","","","","0","stimuli/stim001_animate_fish_1.png","stimuli/tree_lowercase.png","stimuli/stim003_animate_fish_3.png","239"
"html-button-response-mod","248","317511","0.0-248.0","76450","","","","","","triplet","207.70000004768372","","","","2","stimuli/stim002_animate_fish_2.png","stimuli/stim018_inanimate_tree_2.png","stimuli/boats_lowercase.png","240"
"html-button-response-mod","249","318159","0.0-249.0","76450","","","","","","triplet","145.5","","","","1","stimuli/stim004_animate_fish_4.png","stimuli/stim007_animate_bird_3.png","stimuli/stim003_animate_fish_3.png","241"
"html-button-response-mod","250","318759","0.0-250.0","76450","","","","","","triplet","97.29999995231628","","","","2","stimuli/stim002_animate_fish_2.png","stimuli/stim014_inanimate_boats_2.png","stimuli/stim017_inanimate_tree_1.png","242"
"html-button-response-mod","251","319415","0.0-251.0","76450","","","","","","triplet","153.5","","","","1","stimuli/stim005_animate_bird_1.png","stimuli/stim010_animate_face_2.png","stimuli/stim021_inanimate_tools_1.png","243"
"html-button-response-mod","252","320008","0.0-252.0","76450","","","","","","triplet","86.60000014305115","","","","2","stimuli/stim018_inanimate_tree_2.png","stimuli/face_lowercase.png","stimuli/stim010_animate_face_2.png","244"
"html-button-response-mod","253","320638","0.0-253.0","76450","","","","","","triplet","126.70000004768372","","","","0","stimuli/stim017_inanimate_tree_1.png","stimuli/stim012_animate_face_4.png","stimuli/stim018_inanimate_tree_2.png","245"
"html-button-response-mod","254","321279","0.0-254.0","76450","","","","","","triplet","138.40000009536743","","","","2","stimuli/stim021_inanimate_tools_1.png","stimuli/stim016_inanimate_boats_4.png","stimuli/stim004_animate_fish_4.png","246"
"html-button-response-mod","255","321895","0.0-255.0","76450","","","","","","triplet","112.59999990463257","","","","0","stimuli/stim018_inanimate_tree_2.png","stimuli/stim023_inanimate_tools_3.png","stimuli/stim003_animate_fish_3.png","247"
"html-button-response-mod","256","322519","0.0-256.0","76450","","","","","","triplet","121.39999985694885","","","","1","stimuli/stim008_animate_bird_4.png","stimuli/stim011_animate_face_3.png","stimuli/bird_lowercase.png","248"
"html-button-response-mod","257","323191","0.0-257.0","76450","","","","","","triplet","164.19999980926514","","","","1","stimuli/stim003_animate_fish_3.png","stimuli/fish_uppercase.png","stimuli/face_uppercase.png","249"
"html-button-response","258","324471","0.0-258.0","76450","","","","","","break","777.7999999523163","<p>BREAK</p><p>Take a break for as long as you need</p><p>Click the button to continue</p>","0","","","","","",""
"html-button-response-mod","259","324839","0.0-259.0","76450","","","","","","triplet","366.10000014305115","","","","0","stimuli/stim005_animate_bird_1.png","stimuli/bird_lowercase.png","stimuli/tools_lowercase.png","250"
"html-button-response-mod","260","325415","0.0-260.0","76450","","","","","","triplet","69.29999995231628","","","","2","stimuli/boats_lowercase.png","stimuli/stim017_inanimate_tree_1.png","stimuli/stim022_inanimate_tools_2.png","251"
"html-button-response-mod","261","326071","0.0-261.0","76450","","","","","","triplet","142.59999990463257","","","","1","stimuli/stim008_animate_bird_4.png","stimuli/stim009_animate_face_1.png","stimuli/tools_uppercase.png","252"
"html-button-response-mod","262","326663","0.0-262.0","76450","","","","","","triplet","87.5","","","","2","stimuli/stim012_animate_face_4.png","stimuli/stim005_animate_bird_1.png","stimuli/stim004_animate_fish_4.png","253"
"html-button-response-mod","263","327279","0.0-263.0","76450","","","","","","triplet","114","","","","0","stimuli/stim001_animate_fish_1.png","stimuli/boats_lowercase.png","stimuli/tools_uppercase.png","254"
"html-button-response-mod","264","327871","0.0-264.0","76450","","","","","","triplet","89.59999990463257","","","","2","stimuli/stim021_inanimate_tools_1.png","stimuli/stim010_animate_face_2.png","stimuli/stim013_inanimate_boats_1.png","255"
"html-button-response-mod","265","328504","0.0-265.0","76450","","","","","","triplet","129.10000014305115","","","","0","stimuli/stim001_animate_fish_1.png","stimuli/stim012_animate_face_4.png","stimuli/stim008_animate_bird_4.png","256"
"html-button-response-mod","266","329087","0.0-266.0","76450","","","","","","triplet","80.20000004768372","","","","2","stimuli/stim003_animate_fish_3.png","stimuli/stim018_inanimate_tree_2.png","stimuli/stim016_inanimate_boats_4.png","257"
"html-button-response-mod","267","329727","0.0-267.0","76450","","","","","","triplet","136.89999985694885","","","","1","stimuli/tools_uppercase.png","stimuli/stim019_inanimate_tree_3.png","stimuli/stim016_inanimate_boats_4.png","258"
"html-button-response-mod","268","330319","0.0-268.0","76450","","","","","","triplet","88","","","","2","stimuli/stim001_animate_fish_1.png","stimuli/stim005_animate_bird_1.png","stimuli/stim020_inanimate_tree_4.png","259"
"html-button-response-mod","269","330944","0.0-269.0","76450","","","","","","triplet","122.30000019073486","","","","0","stimuli/bird_lowercase.png","stimuli/stim003_animate_fish_3.png","stimuli/stim022_inanimate_tools_2.png","260"
"html-button-response-mod","270","331607","0.0-270.0","76450","","","","","","triplet","160.39999985694885","","","","2","stimuli/stim007_animate_bird_3.png","stimuli/stim006_animate_bird_2.png","stimuli/bird_lowercase.png","261"
"html-button-response-mod","271","332192","0.0-271.0","76450","","","","","","triplet","81.20000004768372","","","","1","stimuli/stim010_animate_face_2.png","stimuli/stim004_animate_fish_4.png","stimuli/tree_uppercase.png","262"
"html-button-response-mod","272","332847","0.0-272.0","76450","","","","","","triplet","152.5","","","","2","stimuli/stim018_inanimate_tree_2.png","stimuli/stim023_inanimate_tools_3.png","stimuli/stim022_inanimate_tools_2.png","263"
"html-button-response-mod","273","333919","0.0-273.0","76450","","","","","","triplet","569.6999998092651","","","","1","stimuli/stim005_animate_bird_1.png","stimuli/face_lowercase.png","stimuli/stim018_inanimate_tree_2.png","264"
"html-button-response-mod","274","334551","0.0-274.0","76450","","","","","","triplet","127.20000004768372","","","","2","stimuli/face_uppercase.png","stimuli/stim012_animate_face_4.png","stimuli/stim020_inanimate_tree_4.png","265"
"html-button-response-mod","275","335151","0.0-275.0","76450","","","","","","triplet","96.79999995231628","","","","0","stimuli/stim013_inanimate_boats_1.png","stimuli/face_uppercase.png","stimuli/stim007_animate_bird_3.png","266"
"html-button-response-mod","276","335791","0.0-276.0","76450","","","","","","triplet","137.5","","","","2","stimuli/stim015_inanimate_boats_3.png","stimuli/stim018_inanimate_tree_2.png","stimuli/tree_uppercase.png","267"
"html-button-response-mod","277","336375","0.0-277.0","76450","","","","","","triplet","81.69999980926514","","","","0","stimuli/stim003_animate_fish_3.png","stimuli/fish_uppercase.png","stimuli/stim014_inanimate_boats_2.png","268"
"html-button-response-mod","278","337015","0.0-278.0","76450","","","","","","triplet","137.19999980926514","","","","2","stimuli/face_lowercase.png","stimuli/stim022_inanimate_tools_2.png","stimuli/stim020_inanimate_tree_4.png","269"
"html-button-response-mod","279","337711","0.0-279.0","76450","","","","","","triplet","191","","","","0","stimuli/stim003_animate_fish_3.png","stimuli/stim024_inanimate_tools_4.png","stimuli/tools_lowercase.png","270"
"html-button-response-mod","280","338295","0.0-280.0","76450","","","","","","triplet","81.90000009536743","","","","2","stimuli/stim009_animate_face_1.png","stimuli/tools_uppercase.png","stimuli/stim003_animate_fish_3.png","271"
"html-button-response-mod","281","339279","0.0-281.0","76450","","","","","","triplet","482","","","","0","stimuli/stim010_animate_face_2.png","stimuli/tools_lowercase.png","stimuli/stim002_animate_fish_2.png","272"
"html-button-response-mod","282","340960","0.0-282.0","76450","","","","","","triplet","1177.4000000953674","","","","2","stimuli/stim006_animate_bird_2.png","stimuli/stim001_animate_fish_1.png","stimuli/stim005_animate_bird_1.png","273"
"html-button-response-mod","283","341584","0.0-283.0","76450","","","","","","triplet","120.79999995231628","","","","0","stimuli/boats_lowercase.png","stimuli/stim020_inanimate_tree_4.png","stimuli/tools_uppercase.png","274"
"html-button-response-mod","284","342278","0.0-284.0","76450","","","","","","triplet","191.5","","","","2","stimuli/fish_lowercase.png","stimuli/stim005_animate_bird_1.png","stimuli/stim016_inanimate_boats_4.png","275"
"html-button-response-mod","285","342919","0.0-285.0","76450","","","","","","triplet","138.5","","","","0","stimuli/stim011_animate_face_3.png","stimuli/stim010_animate_face_2.png","stimuli/stim016_inanimate_boats_4.png","276"
"html-button-response-mod","286","343880","0.0-286.0","76450","","","","","","triplet","457.7000000476837","","","","2","stimuli/stim010_animate_face_2.png","stimuli/stim022_inanimate_tools_2.png","stimuli/bird_lowercase.png","277"
"html-button-response-mod","287","344472","0.0-287.0","76450","","","","","","triplet","89.09999990463257","","","","1","stimuli/stim012_animate_face_4.png","stimuli/face_lowercase.png","stimuli/stim004_animate_fish_4.png","278"
"html-button-response-mod","288","345127","0.0-288.0","76450","","","","","","triplet","153.20000004768372","","","","2","stimuli/stim022_inanimate_tools_2.png","stimuli/stim021_inanimate_tools_1.png","stimuli/stim006_animate_bird_2.png","279"
"html-button-response-mod","289","345768","0.0-289.0","76450","","","","","","triplet","137.39999985694885","","","","1","stimuli/stim006_animate_bird_2.png","stimuli/stim019_inanimate_tree_3.png","stimuli/stim003_animate_fish_3.png","280"
"html-button-response-mod","290","346431","0.0-290.0","76450","","","","","","triplet","159.09999990463257","","","","2","stimuli/stim005_animate_bird_1.png","stimuli/stim022_inanimate_tools_2.png","stimuli/stim002_animate_fish_2.png","281"
"html-button-response-mod","291","347095","0.0-291.0","76450","","","","","","triplet","159.90000009536743","","","","0","stimuli/stim003_animate_fish_3.png","stimuli/tree_uppercase.png","stimuli/stim012_animate_face_4.png","282"
"html-button-response-mod","292","347687","0.0-292.0","76450","","","","","","triplet","89.09999990463257","","","","2","stimuli/stim020_inanimate_tree_4.png","stimuli/stim021_inanimate_tools_1.png","stimuli/stim022_inanimate_tools_2.png","283"
"html-button-response-mod","293","348391","0.0-293.0","76450","","","","","","triplet","201.59999990463257","","","","1","stimuli/tools_lowercase.png","stimuli/bird_lowercase.png","stimuli/stim001_animate_fish_1.png","284"
"html-button-response-mod","294","349039","0.0-294.0","76450","","","","","","triplet","143.39999985694885","","","","2","stimuli/stim003_animate_fish_3.png","stimuli/bird_lowercase.png","stimuli/tools_uppercase.png","285"
"html-button-response-mod","295","349719","0.0-295.0","76450","","","","","","triplet","176.39999985694885","","","","1","stimuli/stim007_animate_bird_3.png","stimuli/stim013_inanimate_boats_1.png","stimuli/stim018_inanimate_tree_2.png","286"
"html-button-response-mod","296","350327","0.0-296.0","76450","","","","","","triplet","105.20000004768372","","","","2","stimuli/fish_lowercase.png","stimuli/stim006_animate_bird_2.png","stimuli/tools_lowercase.png","287"
"html-button-response-mod","297","350991","0.0-297.0","76450","","","","","","triplet","160.40000009536743","","","","1","stimuli/stim014_inanimate_boats_2.png","stimuli/stim007_animate_bird_3.png","stimuli/tree_uppercase.png","288"
"html-button-response-mod","298","351655","0.0-298.0","76450","","","","","","triplet","160.5","","","","2","stimuli/stim004_animate_fish_4.png","stimuli/stim012_animate_face_4.png","stimuli/fish_lowercase.png","289"
"html-button-response-mod","299","352287","0.0-299.0","76450","","","","","","triplet","128.40000009536743","","","","1","stimuli/stim012_animate_face_4.png","stimuli/stim004_animate_fish_4.png","stimuli/stim002_animate_fish_2.png","290"
"html-button-response-mod","300","352895","0.0-300.0","76450","","","","","","triplet","104.09999990463257","","","","2","stimuli/stim001_animate_fish_1.png","stimuli/stim009_animate_face_1.png","stimuli/stim020_inanimate_tree_4.png","291"
"html-button-response-mod","301","353535","0.0-301.0","76450","","","","","","triplet","138.20000004768372","","","","1","stimuli/stim007_animate_bird_3.png","stimuli/stim008_animate_bird_4.png","stimuli/stim001_animate_fish_1.png","292"
"html-button-response-mod","302","354151","0.0-302.0","76450","","","","","","triplet","112.70000004768372","","","","2","stimuli/bird_lowercase.png","stimuli/stim006_animate_bird_2.png","stimuli/stim009_animate_face_1.png","293"
"html-button-response-mod","303","354831","0.0-303.0","76450","","","","","","triplet","177.59999990463257","","","","1","stimuli/boats_uppercase.png","stimuli/bird_lowercase.png","stimuli/tools_lowercase.png","294"
"html-button-response-mod","304","355423","0.0-304.0","76450","","","","","","triplet","89","","","","2","stimuli/stim015_inanimate_boats_3.png","stimuli/stim010_animate_face_2.png","stimuli/tree_uppercase.png","295"
"html-button-response-mod","305","356567","0.0-305.0","76450","","","","","","triplet","642.5","","","","0","stimuli/stim022_inanimate_tools_2.png","stimuli/tree_lowercase.png","stimuli/tree_uppercase.png","296"
"html-button-response-mod","306","357151","0.0-306.0","76450","","","","","","triplet","80.89999985694885","","","","2","stimuli/stim011_animate_face_3.png","stimuli/tools_lowercase.png","stimuli/stim023_inanimate_tools_3.png","297"
"html-button-response-mod","307","357751","0.0-307.0","76450","","","","","","triplet","96.90000009536743","","","","1","stimuli/stim020_inanimate_tree_4.png","stimuli/stim006_animate_bird_2.png","stimuli/stim003_animate_fish_3.png","298"
"html-button-response-mod","308","358352","0.0-308.0","76450","","","","","","triplet","96.10000014305115","","","","2","stimuli/tree_lowercase.png","stimuli/tree_uppercase.png","stimuli/bird_lowercase.png","299"
"html-button-response","309","359647","0.0-309.0","76450","","","","","","break","792.7999999523163","<p>BREAK</p><p>Take a break for as long as you need</p><p>Click the button to continue</p>","0","","","","","",""
"html-button-response-mod","310","359975","0.0-310.0","76450","","","","","","triplet","326.60000014305115","","","","0","stimuli/stim006_animate_bird_2.png","stimuli/stim013_inanimate_boats_1.png","stimuli/stim005_animate_bird_1.png","300"
"html-button-response-mod","311","361247","0.0-311.0","76450","","","","","","triplet","756.5","","","","2","stimuli/tools_uppercase.png","stimuli/bird_lowercase.png","stimuli/stim024_inanimate_tools_4.png","301"
"html-button-response-mod","312","362119","0.0-312.0","76450","","","","","","triplet","359.2999999523163","","","","0","stimuli/stim002_animate_fish_2.png","stimuli/stim014_inanimate_boats_2.png","stimuli/stim009_animate_face_1.png","302"
"html-button-response-mod","313","362727","0.0-313.0","76450","","","","","","triplet","104.5","","","","2","stimuli/stim002_animate_fish_2.png","stimuli/stim017_inanimate_tree_1.png","stimuli/stim005_animate_bird_1.png","303"
"html-button-response-mod","314","363303","0.0-314.0","76450","","","","","","triplet","72.59999990463257","","","","0","stimuli/face_lowercase.png","stimuli/stim010_animate_face_2.png","stimuli/stim008_animate_bird_4.png","304"
"html-button-response-mod","315","363919","0.0-315.0","76450","","","","","","triplet","112.70000004768372","","","","2","stimuli/stim023_inanimate_tools_3.png","stimuli/boats_lowercase.png","stimuli/stim014_inanimate_boats_2.png","305"
"html-button-response-mod","316","364520","0.0-316.0","76450","","","","","","triplet","97.29999995231628","","","","1","stimuli/tree_uppercase.png","stimuli/stim013_inanimate_boats_1.png","stimuli/fish_uppercase.png","306"
"html-button-response-mod","317","365095","0.0-317.0","76450","","","","","","triplet","72.5","","","","2","stimuli/stim023_inanimate_tools_3.png","stimuli/face_uppercase.png","stimuli/tools_lowercase.png","307"
"html-button-response-mod","318","365695","0.0-318.0","76450","","","","","","triplet","97.60000014305115","","","","1","stimuli/stim006_animate_bird_2.png","stimuli/stim024_inanimate_tools_4.png","stimuli/stim010_animate_face_2.png","308"
"html-button-response-mod","319","366871","0.0-319.0","76450","","","","","","triplet","672.7000000476837","","","","2","stimuli/face_uppercase.png","stimuli/stim003_animate_fish_3.png","stimuli/stim008_animate_bird_4.png","309"
"html-button-response-mod","320","367463","0.0-320.0","76450","","","","","","triplet","89.70000004768372","","","","0","stimuli/stim018_inanimate_tree_2.png","stimuli/fish_uppercase.png","stimuli/stim004_animate_fish_4.png","310"
"html-button-response-mod","321","368064","0.0-321.0","76450","","","","","","triplet","97.70000004768372","","","","2","stimuli/bird_uppercase.png","stimuli/face_uppercase.png","stimuli/stim001_animate_fish_1.png","311"
"html-button-response-mod","322","368664","0.0-322.0","76450","","","","","","triplet","97","","","","0","stimuli/bird_lowercase.png","stimuli/stim021_inanimate_tools_1.png","stimuli/fish_uppercase.png","312"
"html-button-response-mod","323","369280","0.0-323.0","76450","","","","","","triplet","114","","","","2","stimuli/face_uppercase.png","stimuli/stim018_inanimate_tree_2.png","stimuli/stim013_inanimate_boats_1.png","313"
"html-button-response-mod","324","369848","0.0-324.0","76450","","","","","","triplet","62.200000047683716","","","","0","stimuli/tools_lowercase.png","stimuli/stim012_animate_face_4.png","stimuli/stim023_inanimate_tools_3.png","314"
"html-button-response-mod","325","371112","0.0-325.0","76450","","","","","","triplet","750.5","","","","2","stimuli/boats_lowercase.png","stimuli/stim016_inanimate_boats_4.png","stimuli/boats_uppercase.png","315"
"html-button-response-mod","326","372232","0.0-326.0","76450","","","","","","triplet","616.1999998092651","","","","0","stimuli/stim021_inanimate_tools_1.png","stimuli/stim016_inanimate_boats_4.png","stimuli/face_lowercase.png","316"
"html-button-response-mod","327","372816","0.0-327.0","76450","","","","","","triplet","78.79999995231628","","","","2","stimuli/boats_uppercase.png","stimuli/stim022_inanimate_tools_2.png","stimuli/stim015_inanimate_boats_3.png","317"
"html-button-response-mod","328","373856","0.0-328.0","76450","","","","","","triplet","537.7999999523163","","","","0","stimuli/stim018_inanimate_tree_2.png","stimuli/stim010_animate_face_2.png","stimuli/stim024_inanimate_tools_4.png","318"
"html-button-response-mod","329","374480","0.0-329.0","76450","","","","","","triplet","108.59999990463257","","","","2","stimuli/bird_uppercase.png","stimuli/stim009_animate_face_1.png","stimuli/stim016_inanimate_boats_4.png","319"
"html-button-response-mod","330","375600","0.0-330.0","76450","","","","","","triplet","615.6000001430511","","","","0","stimuli/stim002_animate_fish_2.png","stimuli/stim007_animate_bird_3.png","stimuli/stim012_animate_face_4.png","320"
"html-button-response-mod","331","376591","0.0-331.0","76450","","","","","","triplet","488.7000000476837","","","","2","stimuli/stim015_inanimate_boats_3.png","stimuli/stim022_inanimate_tools_2.png","stimuli/stim020_inanimate_tree_4.png","321"
"html-button-response-mod","332","377608","0.0-332.0","76450","","","","","","triplet","511.7000000476837","","","","0","stimuli/stim002_animate_fish_2.png","stimuli/stim016_inanimate_boats_4.png","stimuli/fish_lowercase.png","322"
"html-button-response-mod","333","378288","0.0-333.0","76450","","","","","","triplet","177.20000004768372","","","","2","stimuli/stim009_animate_face_1.png","stimuli/face_lowercase.png","stimuli/stim010_animate_face_2.png","323"
"html-button-response-mod","334","378927","0.0-334.0","76450","","","","","","triplet","136.70000004768372","","","","1","stimuli/stim016_inanimate_boats_4.png","stimuli/stim018_inanimate_tree_2.png","stimuli/stim015_inanimate_boats_3.png","324"
"html-button-response-mod","335","379528","0.0-335.0","76450","","","","","","triplet","97.19999980926514","","","","2","stimuli/stim001_animate_fish_1.png","stimuli/stim006_animate_bird_2.png","stimuli/bird_lowercase.png","325"
"html-button-response-mod","336","380120","0.0-336.0","76450","","","","","","triplet","89.20000004768372","","","","1","stimuli/stim016_inanimate_boats_4.png","stimuli/tree_uppercase.png","stimuli/stim003_animate_fish_3.png","326"
"html-button-response-mod","337","380711","0.0-337.0","76450","","","","","","triplet","88.79999995231628","","","","2","stimuli/stim022_inanimate_tools_2.png","stimuli/stim021_inanimate_tools_1.png","stimuli/stim019_inanimate_tree_3.png","327"
"html-button-response-mod","338","381304","0.0-338.0","76450","","","","","","triplet","89.70000004768372","","","","1","stimuli/stim011_animate_face_3.png","stimuli/stim006_animate_bird_2.png","stimuli/tree_uppercase.png","328"
"html-button-response-mod","339","381888","0.0-339.0","76450","","","","","","triplet","81.40000009536743","","","","2","stimuli/stim004_animate_fish_4.png","stimuli/stim005_animate_bird_1.png","stimuli/stim008_animate_bird_4.png","329"
"html-button-response-mod","340","382528","0.0-340.0","76450","","","","","","triplet","138.39999985694885","","","","1","stimuli/fish_uppercase.png","stimuli/stim021_inanimate_tools_1.png","stimuli/stim008_animate_bird_4.png","330"
"html-button-response-mod","341","383600","0.0-341.0","76450","","","","","","triplet","568.9000000953674","","","","2","stimuli/stim001_animate_fish_1.png","stimuli/stim021_inanimate_tools_1.png","stimuli/stim016_inanimate_boats_4.png","331"
"html-button-response-mod","342","384216","0.0-342.0","76450","","","","","","triplet","113.70000004768372","","","","1","stimuli/stim013_inanimate_boats_1.png","stimuli/stim020_inanimate_tree_4.png","stimuli/stim024_inanimate_tools_4.png","332"
"html-button-response-mod","343","384951","0.0-343.0","76450","","","","","","triplet","232.79999995231628","","","","2","stimuli/stim002_animate_fish_2.png","stimuli/stim014_inanimate_boats_2.png","stimuli/boats_lowercase.png","333"
"html-button-response-mod","344","385576","0.0-344.0","76450","","","","","","triplet","121.19999980926514","","","","0","stimuli/fish_uppercase.png","stimuli/stim007_animate_bird_3.png","stimuli/tree_lowercase.png","334"
"html-button-response-mod","345","386232","0.0-345.0","76450","","","","","","triplet","153.79999995231628","","","","2","stimuli/stim015_inanimate_boats_3.png","stimuli/stim014_inanimate_boats_2.png","stimuli/tree_uppercase.png","335"
"html-button-response-mod","346","386872","0.0-346.0","76450","","","","","","triplet","138.09999990463257","","","","1","stimuli/face_lowercase.png","stimuli/stim017_inanimate_tree_1.png","stimuli/stim023_inanimate_tools_3.png","336"
"html-button-response-mod","347","387543","0.0-347.0","76450","","","","","","triplet","168.79999995231628","","","","2","stimuli/stim011_animate_face_3.png","stimuli/stim014_inanimate_boats_2.png","stimuli/bird_lowercase.png","337"
"html-button-response-mod","348","388176","0.0-348.0","76450","","","","","","triplet","130","","","","1","stimuli/stim014_inanimate_boats_2.png","stimuli/stim012_animate_face_4.png","stimuli/stim005_animate_bird_1.png","338"
"html-button-response-mod","349","388760","0.0-349.0","76450","","","","","","triplet","81","","","","2","stimuli/boats_uppercase.png","stimuli/tree_uppercase.png","stimuli/stim020_inanimate_tree_4.png","339"
"html-button-response-mod","350","389360","0.0-350.0","76450","","","","","","triplet","96.60000014305115","","","","1","stimuli/stim014_inanimate_boats_2.png","stimuli/stim016_inanimate_boats_4.png","stimuli/stim017_inanimate_tree_1.png","340"
"html-button-response-mod","351","389928","0.0-351.0","76450","","","","","","triplet","65.20000004768372","","","","2","stimuli/tree_uppercase.png","stimuli/boats_uppercase.png","stimuli/stim013_inanimate_boats_1.png","341"
"html-button-response-mod","352","390536","0.0-352.0","76450","","","","","","triplet","106","","","","1","stimuli/stim011_animate_face_3.png","stimuli/boats_lowercase.png","stimuli/face_uppercase.png","342"
"html-button-response-mod","353","391144","0.0-353.0","76450","","","","","","triplet","103.90000009536743","","","","2","stimuli/stim001_animate_fish_1.png","stimuli/boats_uppercase.png","stimuli/stim008_animate_bird_4.png","343"
"html-button-response-mod","354","391736","0.0-354.0","76450","","","","","","triplet","90.40000009536743","","","","1","stimuli/stim011_animate_face_3.png","stimuli/stim013_inanimate_boats_1.png","stimuli/stim017_inanimate_tree_1.png","344"
"html-button-response-mod","355","392880","0.0-355.0","76450","","","","","","triplet","626","","","","2","stimuli/stim014_inanimate_boats_2.png","stimuli/stim017_inanimate_tree_1.png","stimuli/stim018_inanimate_tree_2.png","345"
"html-button-response-mod","356","394184","0.0-356.0","76450","","","","","","triplet","787.7999999523163","","","","1","stimuli/stim019_inanimate_tree_3.png","stimuli/stim006_animate_bird_2.png","stimuli/tree_lowercase.png","346"
"html-button-response-mod","357","394784","0.0-357.0","76450","","","","","","triplet","96.20000004768372","","","","2","stimuli/stim002_animate_fish_2.png","stimuli/stim021_inanimate_tools_1.png","stimuli/stim022_inanimate_tools_2.png","347"
"html-button-response-mod","358","395352","0.0-358.0","76450","","","","","","triplet","65.5","","","","1","stimuli/stim005_animate_bird_1.png","stimuli/stim002_animate_fish_2.png","stimuli/face_uppercase.png","348"
"html-button-response-mod","359","395992","0.0-359.0","76450","","","","","","triplet","137.29999995231628","","","","2","stimuli/stim001_animate_fish_1.png","stimuli/tree_lowercase.png","stimuli/stim022_inanimate_tools_2.png","349"
"html-button-response","360","397649","0.0-360.0","76450","","","","","","break","1155.4000000953674","<p>BREAK</p><p>Take a break for as long as you need</p><p>Click the button to continue</p>","0","","","","","",""
"html-button-response-mod","361","398016","0.0-361.0","76450","","","","","","triplet","365.2999999523163","","","","0","stimuli/stim010_animate_face_2.png","stimuli/bird_lowercase.png","stimuli/tools_uppercase.png","350"
"html-button-response-mod","362","398671","0.0-362.0","76450","","","","","","triplet","151.5","","","","2","stimuli/tools_lowercase.png","stimuli/stim009_animate_face_1.png","stimuli/stim003_animate_fish_3.png","351"
"html-button-response-mod","363","399256","0.0-363.0","76450","","","","","","triplet","81.90000009536743","","","","0","stimuli/stim008_animate_bird_4.png","stimuli/face_uppercase.png","stimuli/fish_lowercase.png","352"
"html-button-response-mod","364","399896","0.0-364.0","76450","","","","","","triplet","136.89999985694885","","","","2","stimuli/stim020_inanimate_tree_4.png","stimuli/stim008_animate_bird_4.png","stimuli/stim005_animate_bird_1.png","353"
"html-button-response-mod","365","400504","0.0-365.0","76450","","","","","","triplet","105.29999995231628","","","","1","stimuli/stim008_animate_bird_4.png","stimuli/boats_uppercase.png","stimuli/stim004_animate_fish_4.png","354"
"html-button-response-mod","366","401120","0.0-366.0","76450","","","","","","triplet","113.30000019073486","","","","2","stimuli/stim008_animate_bird_4.png","stimuli/stim021_inanimate_tools_1.png","stimuli/stim003_animate_fish_3.png","355"
"html-button-response-mod","367","401663","0.0-367.0","76450","","","","","","triplet","38.30000019073486","","","","1","stimuli/bird_uppercase.png","stimuli/stim019_inanimate_tree_3.png","stimuli/fish_lowercase.png","356"
"html-button-response-mod","368","402232","0.0-368.0","76450","","","","","","triplet","66.39999985694885","","","","2","stimuli/stim015_inanimate_boats_3.png","stimuli/tools_uppercase.png","stimuli/stim021_inanimate_tools_1.png","357"
"html-button-response-mod","369","402872","0.0-369.0","76450","","","","","","triplet","135.90000009536743","","","","0","stimuli/stim013_inanimate_boats_1.png","stimuli/face_uppercase.png","stimuli/stim022_inanimate_tools_2.png","358"
"html-button-response-mod","370","403456","0.0-370.0","76450","","","","","","triplet","78.79999995231628","","","","2","stimuli/stim023_inanimate_tools_3.png","stimuli/boats_lowercase.png","stimuli/stim021_inanimate_tools_1.png","359"
"html-button-response-mod","371","404064","0.0-371.0","76450","","","","","","triplet","106.59999990463257","","","","1","stimuli/bird_lowercase.png","stimuli/bird_uppercase.png","stimuli/stim022_inanimate_tools_2.png","360"
"html-button-response-mod","372","404640","0.0-372.0","76450","","","","","","triplet","70.79999995231628","","","","2","stimuli/fish_lowercase.png","stimuli/bird_lowercase.png","stimuli/stim008_animate_bird_4.png","361"
"html-button-response-mod","373","405272","0.0-373.0","76450","","","","","","triplet","128.39999985694885","","","","0","stimuli/stim011_animate_face_3.png","stimuli/stim005_animate_bird_1.png","stimuli/stim015_inanimate_boats_3.png","362"
"html-button-response-mod","374","405848","0.0-374.0","76450","","","","","","triplet","72.70000004768372","","","","2","stimuli/stim020_inanimate_tree_4.png","stimuli/fish_uppercase.png","stimuli/stim007_animate_bird_3.png","363"
"html-button-response-mod","375","406448","0.0-375.0","76450","","","","","","triplet","97.09999990463257","","","","0","stimuli/stim020_inanimate_tree_4.png","stimuli/stim006_animate_bird_2.png","stimuli/tree_uppercase.png","364"
"html-button-response-mod","376","407609","0.0-376.0","76450","","","","","","triplet","658.4000000953674","","","","2","stimuli/face_uppercase.png","stimuli/stim017_inanimate_tree_1.png","stimuli/bird_lowercase.png","365"
"html-button-response-mod","377","408192","0.0-377.0","76450","","","","","","triplet","80.40000009536743","","","","1","stimuli/boats_lowercase.png","stimuli/stim024_inanimate_tools_4.png","stimuli/stim010_animate_face_2.png","366"
"html-button-response-mod","378","408800","0.0-378.0","76450","","","","","","triplet","105.5","","","","2","stimuli/bird_lowercase.png","stimuli/fish_lowercase.png","stimuli/tools_lowercase.png","367"
"html-button-response-mod","379","409391","0.0-379.0","76450","","","","","","triplet","89.10000014305115","","","","1","stimuli/stim011_animate_face_3.png","stimuli/stim016_inanimate_boats_4.png","stimuli/tools_uppercase.png","368"
"html-button-response-mod","380","409993","0.0-380.0","76450","","","","","","triplet","99.40000009536743","","","","2","stimuli/face_uppercase.png","stimuli/bird_lowercase.png","stimuli/stim018_inanimate_tree_2.png","369"
"html-button-response-mod","381","410584","0.0-381.0","76450","","","","","","triplet","87.29999995231628","","","","1","stimuli/stim022_inanimate_tools_2.png","stimuli/fish_lowercase.png","stimuli/bird_uppercase.png","370"
"html-button-response-mod","382","411208","0.0-382.0","76450","","","","","","triplet","121.20000004768372","","","","2","stimuli/stim003_animate_fish_3.png","stimuli/bird_uppercase.png","stimuli/boats_lowercase.png","371"
"html-button-response-mod","383","411808","0.0-383.0","76450","","","","","","triplet","96.60000014305115","","","","0","stimuli/stim009_animate_face_1.png","stimuli/stim022_inanimate_tools_2.png","stimuli/tools_uppercase.png","372"
"html-button-response-mod","384","412410","0.0-384.0","76450","","","","","","triplet","99.60000014305115","","","","2","stimuli/boats_uppercase.png","stimuli/stim022_inanimate_tools_2.png","stimuli/boats_lowercase.png","373"
"html-button-response-mod","385","412976","0.0-385.0","76450","","","","","","triplet","62.60000014305115","","","","0","stimuli/stim004_animate_fish_4.png","stimuli/stim018_inanimate_tree_2.png","stimuli/fish_lowercase.png","374"
"html-button-response-mod","386","414007","0.0-386.0","76450","","","","","","triplet","528.7999999523163","","","","2","stimuli/tools_lowercase.png","stimuli/stim017_inanimate_tree_1.png","stimuli/face_lowercase.png","375"
"html-button-response-mod","387","414616","0.0-387.0","76450","","","","","","triplet","102.79999995231628","","","","0","stimuli/tools_lowercase.png","stimuli/boats_lowercase.png","stimuli/stim006_animate_bird_2.png","376"
"html-button-response-mod","388","415608","0.0-388.0","76450","","","","","","triplet","490.5","","","","2","stimuli/tools_lowercase.png","stimuli/stim011_animate_face_3.png","stimuli/stim014_inanimate_boats_2.png","377"
"html-button-response-mod","389","416199","0.0-389.0","76450","","","","","","triplet","88.40000009536743","","","","0","stimuli/stim009_animate_face_1.png","stimuli/bird_lowercase.png","stimuli/boats_lowercase.png","378"
"html-button-response-mod","390","416864","0.0-390.0","76450","","","","","","triplet","161.59999990463257","","","","2","stimuli/stim003_animate_fish_3.png","stimuli/tools_lowercase.png","stimuli/stim014_inanimate_boats_2.png","379"
"html-button-response-mod","391","417448","0.0-391.0","76450","","","","","","triplet","80.59999990463257","","","","0","stimuli/stim006_animate_bird_2.png","stimuli/stim014_inanimate_boats_2.png","stimuli/stim002_animate_fish_2.png","380"
"html-button-response-mod","392","418088","0.0-392.0","76450","","","","","","triplet","137.79999995231628","","","","2","stimuli/stim013_inanimate_boats_1.png","stimuli/stim022_inanimate_tools_2.png","stimuli/stim024_inanimate_tools_4.png","381"
"html-button-response-mod","393","418719","0.0-393.0","76450","","","","","","triplet","128.70000004768372","","","","1","stimuli/stim022_inanimate_tools_2.png","stimuli/stim010_animate_face_2.png","stimuli/stim019_inanimate_tree_3.png","382"
"html-button-response-mod","394","419303","0.0-394.0","76450","","","","","","triplet","79.90000009536743","","","","2","stimuli/stim019_inanimate_tree_3.png","stimuli/stim001_animate_fish_1.png","stimuli/stim006_animate_bird_2.png","383"
"html-button-response-mod","395","419903","0.0-395.0","76450","","","","","","triplet","97.90000009536743","","","","0","stimuli/stim011_animate_face_3.png","stimuli/tree_uppercase.png","stimuli/stim017_inanimate_tree_1.png","384"
"html-button-response-mod","396","420520","0.0-396.0","76450","","","","","","triplet","114.60000014305115","","","","2","stimuli/bird_uppercase.png","stimuli/stim003_animate_fish_3.png","stimuli/face_uppercase.png","385"
"html-button-response-mod","397","421168","0.0-397.0","76450","","","","","","triplet","137.70000004768372","","","","1","stimuli/stim023_inanimate_tools_3.png","stimuli/stim013_inanimate_boats_1.png","stimuli/stim015_inanimate_boats_3.png","386"
"html-button-response-mod","398","421776","0.0-398.0","76450","","","","","","triplet","100.89999985694885","","","","2","stimuli/stim022_inanimate_tools_2.png","stimuli/stim017_inanimate_tree_1.png","stimuli/stim019_inanimate_tree_3.png","387"
"html-button-response-mod","399","422665","0.0-399.0","76450","","","","","","triplet","385.5","","","","0","stimuli/stim011_animate_face_3.png","stimuli/stim001_animate_fish_1.png","stimuli/tree_lowercase.png","388"
"html-button-response-mod","400","423664","0.0-400.0","76450","","","","","","triplet","495.40000009536743","","","","2","stimuli/face_uppercase.png","stimuli/stim006_animate_bird_2.png","stimuli/stim015_inanimate_boats_3.png","389"
"html-button-response-mod","401","424255","0.0-401.0","76450","","","","","","triplet","88.5","","","","0","stimuli/fish_uppercase.png","stimuli/bird_lowercase.png","stimuli/stim005_animate_bird_1.png","390"
"html-button-response-mod","402","424871","0.0-402.0","76450","","","","","","triplet","112.70000004768372","","","","2","stimuli/face_lowercase.png","stimuli/stim002_animate_fish_2.png","stimuli/stim001_animate_fish_1.png","391"
"html-button-response-mod","403","425479","0.0-403.0","76450","","","","","","triplet","104.40000009536743","","","","1","stimuli/stim011_animate_face_3.png","stimuli/stim002_animate_fish_2.png","stimuli/stim015_inanimate_boats_3.png","392"
"html-button-response-mod","404","426127","0.0-404.0","76450","","","","","","triplet","146.5","","","","2","stimuli/stim014_inanimate_boats_2.png","stimuli/fish_lowercase.png","stimuli/stim017_inanimate_tree_1.png","393"
"html-button-response-mod","405","426752","0.0-405.0","76450","","","","","","triplet","122","","","","1","stimuli/face_uppercase.png","stimuli/stim006_animate_bird_2.png","stimuli/stim009_animate_face_1.png","394"
"html-button-response-mod","406","427335","0.0-406.0","76450","","","","","","triplet","80.59999990463257","","","","2","stimuli/tree_lowercase.png","stimuli/stim015_inanimate_boats_3.png","stimuli/face_lowercase.png","395"
"html-button-response-mod","407","427936","0.0-407.0","76450","","","","","","triplet","98.90000009536743","","","","0","stimuli/boats_lowercase.png","stimuli/face_uppercase.png","stimuli/tools_lowercase.png","396"
"html-button-response-mod","408","428544","0.0-408.0","76450","","","","","","triplet","103","","","","2","stimuli/stim003_animate_fish_3.png","stimuli/stim002_animate_fish_2.png","stimuli/stim019_inanimate_tree_3.png","397"
"html-button-response-mod","409","429255","0.0-409.0","76450","","","","","","triplet","210","","","","0","stimuli/stim002_animate_fish_2.png","stimuli/stim001_animate_fish_1.png","stimuli/face_uppercase.png","398"
"html-button-response-mod","410","429863","0.0-410.0","76450","","","","","","triplet","103.70000004768372","","","","2","stimuli/tools_lowercase.png","stimuli/stim012_animate_face_4.png","stimuli/stim019_inanimate_tree_3.png","399"
"html-button-response","411","431368","0.0-411.0","76450","","","","","","break","996.0999999046326","<p>BREAK</p><p>Take a break for as long as you need</p><p>Click the button to continue</p>","0","","","","","",""
"survey-text","412","451967","0.0-412.0","76450","","","","","","data_patterns","20565.900000095367","","{""Q0"":""If there were two images and one text, I would choose text as an odd image. ""}","","","","","",""
"survey-text","413","456672","0.0-413.0","76450","","","","","","age_question","4693.900000095367","","{""Age"":""20""}","","","","","",""
"html-button-response","414","458585","0.0-414.0","76450","","","","","","gender_question","1910.7000000476837","How would you like your gender to be recorded?","0","","","","","",""
"html-button-response","415","461264","0.0-415.0","76450","","","","","","debrief","2677.800000190735","<p> Thank you for participating in this experiment! </p><p> We are investigating the dimensions along which you perceive the world </p><p>The images were all sorted according to whether they are animate or not, and </p><p> whether they are text or images. We are comparing this to some neuroimaging data to see </p> how your conscious classification relates to how your brain classifies the objects automatically. </p>","0","466422.19999980927","","","","",""
