"trial_type","trial_index","time_elapsed","internal_node_id","subject","success","timeout","failed_images","failed_audio","failed_video","test_part","rt","stimulus","response","end_time","button_pressed","stim0","stim1","stim2","trialnr"
"pavlovia","0","12","0.0-0.0","73622","","","","","","","","","","","","","","",""
"preload","1","683","0.0-1.0","73622","true","false","[]","[]","[]","preload","","","","","","","","",""
"html-button-response","2","8670","0.0-2.0","73622","","","","","","","7985.000000000002","<p>Welcome to the experiment. To begin, please read the following and press the button at the bottom of the screen.</p><p></p><p><strong>Project Name: A study on cognitive processes involved in visual perception</p></strong><p></p><p><strong>PARTICIPANT INFORMATION STATEMENT</strong></p><p></p><strong>(1) What is the study about?</strong><br>You are invited to participate in a study that investigates the cognitive processes involved in perceiving and recognizing visual stimuli.If you decide to participate, you will be asked to complete a task in which you will view pictures, letters, numbers, or words presented on a computer screen.<br><strong>(2) Who can participate?</strong><br>Anyone aged 18 years or over with access to a computer (not a phone/tablet)<br><strong>(3) Where is the study located?</strong><br>The study will be conducted in your browser<br><strong>(4) Who is carrying out the study?</strong><br>The study is being conducted by Sophia Shatek from the Computational Cognitive Neuroscience laboratory at the University of Sydney.<br><strong>(5) What does the study involve?</strong><br>In this study, you will be asked to perform tasks where you will see different stimuli appear on the computer screen.You will respond by pressing a key or using a computer mouse.<br><strong>(6) How much time will the study take?</strong><br>The study takes about 30 minutes<br><strong>(7)	Can I withdraw from the study?</strong><br>Being in this study is completely voluntary - you are not under any obligation to consent. You can withdraw at any time without having to give a reason and without penalty.<br><strong>(8) Will anyone else know the results?</strong><br>All aspects of the study, including results, will be strictly confidential and only the researchers will have access to information on participants.The results and data from the study may be submitted for publication or shared with other research labs, but individual participants will not be identifiable.<br><strong>(9) Will the study benefit me?</strong><br>You will be awarded 0.5 credits for your participation.<br><strong>(10) Can I tell other people about the study?</strong><br>Yes, please tell them to contact Dr Thomas Carlson by email at thomas.carlson@sydney.edu.au.<br><strong>(11) What if I require further information about the study or my involvement in it?</strong><br>When you have read this information, the investigator will discuss it with you further and answer any questions you may have.If you would like to know more at any stage, please feel free to contact Dr Thomas Carlson directly by email at thomas.carlson@sydney.edu.au.If you would like to be informed about the outcomes of the study, contact Dr Thomas Carlson directly by email at thomas.carlson@sydney.edu.au.<br><strong>(12) What if I have a complaint or any concerns?</strong><br>Any person with concerns or complaints about the conduct of a research study can contact The Manager,Human Ethics Administration, University of Sydney on +61 2 8627 8176 (Telephone); +61 2 8627 8177 (Facsimile) or ro.humanethics@sydney.edu.au (Email).</p><p></p><strong>By participating in this experiment, you consent to participate in this study and acknowledge that:</strong><br>1. The procedures required for the project and the times involved have been explained to me, and any questions I have about the project have been answered to my satisfaction.<br>2.	I have read the Above Information Statement and have been given the opportunity to discuss the information and my involvement in the project with the researcher/s.<br>3. I understand that allowing my data to be used in research reports is completely voluntary - I am not under any obligation to consent.<br>4. I understand that my involvement is strictly confidential. I understand that any research data gathered from the results of the study may be publishedhowever no information about me will be used in any way that is identifiable.</p><p></p>","0","","","","","",""
"html-button-response","3","35717","0.0-3.0","73622","","","","","","opening_instructions","27045.000000000007","<p>In this experiment, you will see three images appear on the screen.</p><p>You need to click the 'odd one out', or the image </p><p>that is MOST CONCEPTUALLY DIFFERENT to the other two. </p><p>(e.g., the word 'tree' and a picture of a tree are conceptually SIMILAR, </p><p> but the word 'tree' and the word 'boat' are conceptually DIFFERENT even though they look similar) </p><p>Just go with your intuition, don't spend too long thinking about each one.</p>","0","38728","","","","",""
"html-button-response-mod","4","37512","0.0-4.0","73622","","","","","","triplet","1791","","","","1","stimuli/stim005_animate_bird_1.png","stimuli/tree_lowercase.png","stimuli/stim007_animate_bird_3.png","0"
"html-button-response-mod","5","39529","0.0-5.0","73622","","","","","","triplet","1515","","","","1","stimuli/stim016_inanimate_boats_4.png","stimuli/face_lowercase.png","stimuli/stim015_inanimate_boats_3.png","1"
"html-button-response-mod","6","43071","0.0-6.0","73622","","","","","","triplet","3040","","","","0","stimuli/stim024_inanimate_tools_4.png","stimuli/stim016_inanimate_boats_4.png","stimuli/stim013_inanimate_boats_1.png","2"
"html-button-response-mod","7","47550","0.0-7.0","73622","","","","","","triplet","3976","","","","1","stimuli/stim007_animate_bird_3.png","stimuli/face_uppercase.png","stimuli/boats_lowercase.png","3"
"html-button-response-mod","8","50004","0.0-8.0","73622","","","","","","triplet","1951","","","","0","stimuli/face_lowercase.png","stimuli/stim013_inanimate_boats_1.png","stimuli/stim001_animate_fish_1.png","4"
"html-button-response-mod","9","52072","0.0-9.0","73622","","","","","","triplet","1567","","","","1","stimuli/stim020_inanimate_tree_4.png","stimuli/stim009_animate_face_1.png","stimuli/tree_lowercase.png","5"
"html-button-response-mod","10","58177","0.0-10.0","73622","","","","","","triplet","5602","","","","2","stimuli/stim010_animate_face_2.png","stimuli/tree_lowercase.png","stimuli/tools_lowercase.png","6"
"html-button-response-mod","11","60300","0.0-11.0","73622","","","","","","triplet","1619","","","","2","stimuli/face_uppercase.png","stimuli/stim012_animate_face_4.png","stimuli/tree_lowercase.png","7"
"html-button-response-mod","12","65656","0.0-12.0","73622","","","","","","triplet","4853","","","","1","stimuli/stim001_animate_fish_1.png","stimuli/tools_uppercase.png","stimuli/stim009_animate_face_1.png","8"
"html-button-response-mod","13","68001","0.0-13.0","73622","","","","","","triplet","1842","","","","1","stimuli/tools_lowercase.png","stimuli/stim011_animate_face_3.png","stimuli/stim016_inanimate_boats_4.png","9"
"html-button-response-mod","14","73099","0.0-14.0","73622","","","","","","triplet","4595","","","","0","stimuli/stim015_inanimate_boats_3.png","stimuli/stim012_animate_face_4.png","stimuli/bird_uppercase.png","10"
"html-button-response-mod","15","75044","0.0-15.0","73622","","","","","","triplet","1442","","","","1","stimuli/stim002_animate_fish_2.png","stimuli/boats_uppercase.png","stimuli/stim009_animate_face_1.png","11"
"html-button-response-mod","16","81615","0.0-16.0","73622","","","","","","triplet","6069","","","","0","stimuli/fish_uppercase.png","stimuli/stim022_inanimate_tools_2.png","stimuli/stim016_inanimate_boats_4.png","12"
"html-button-response-mod","17","83391","0.0-17.0","73622","","","","","","triplet","1274","","","","0","stimuli/face_uppercase.png","stimuli/tree_uppercase.png","stimuli/stim018_inanimate_tree_2.png","13"
"html-button-response-mod","18","86148","0.0-18.0","73622","","","","","","triplet","2255","","","","2","stimuli/stim005_animate_bird_1.png","stimuli/stim002_animate_fish_2.png","stimuli/face_lowercase.png","14"
"html-button-response-mod","19","88801","0.0-19.0","73622","","","","","","triplet","2151","","","","2","stimuli/stim012_animate_face_4.png","stimuli/fish_lowercase.png","stimuli/stim018_inanimate_tree_2.png","15"
"html-button-response-mod","20","90981","0.0-20.0","73622","","","","","","triplet","1678","","","","1","stimuli/stim016_inanimate_boats_4.png","stimuli/stim006_animate_bird_2.png","stimuli/stim024_inanimate_tools_4.png","16"
"html-button-response-mod","21","95798","0.0-21.0","73622","","","","","","triplet","4314","","","","0","stimuli/tools_lowercase.png","stimuli/stim021_inanimate_tools_1.png","stimuli/stim022_inanimate_tools_2.png","17"
"html-button-response-mod","22","98478","0.0-22.0","73622","","","","","","triplet","2177","","","","0","stimuli/stim011_animate_face_3.png","stimuli/stim022_inanimate_tools_2.png","stimuli/stim013_inanimate_boats_1.png","18"
"html-button-response-mod","23","103839","0.0-23.0","73622","","","","","","triplet","4858","","","","2","stimuli/stim007_animate_bird_3.png","stimuli/stim001_animate_fish_1.png","stimuli/stim015_inanimate_boats_3.png","19"
"html-button-response-mod","24","105633","0.0-24.0","73622","","","","","","triplet","1291","","","","2","stimuli/stim015_inanimate_boats_3.png","stimuli/stim001_animate_fish_1.png","stimuli/stim011_animate_face_3.png","20"
"html-button-response-mod","25","107739","0.0-25.0","73622","","","","","","triplet","1602","","","","2","stimuli/stim022_inanimate_tools_2.png","stimuli/stim023_inanimate_tools_3.png","stimuli/boats_uppercase.png","21"
"html-button-response-mod","26","110345","0.0-26.0","73622","","","","","","triplet","2104","","","","2","stimuli/stim019_inanimate_tree_3.png","stimuli/face_uppercase.png","stimuli/tools_uppercase.png","22"
"html-button-response-mod","27","112717","0.0-27.0","73622","","","","","","triplet","1869","","","","2","stimuli/bird_lowercase.png","stimuli/stim011_animate_face_3.png","stimuli/stim023_inanimate_tools_3.png","23"
"html-button-response-mod","28","115017","0.0-28.0","73622","","","","","","triplet","1796","","","","2","stimuli/stim002_animate_fish_2.png","stimuli/stim021_inanimate_tools_1.png","stimuli/face_lowercase.png","24"
"html-button-response-mod","29","123414","0.0-29.0","73622","","","","","","triplet","7894","","","","1","stimuli/stim016_inanimate_boats_4.png","stimuli/stim009_animate_face_1.png","stimuli/stim022_inanimate_tools_2.png","25"
"html-button-response-mod","30","126134","0.0-30.0","73622","","","","","","triplet","2216","","","","1","stimuli/stim008_animate_bird_4.png","stimuli/stim009_animate_face_1.png","stimuli/tree_lowercase.png","26"
"html-button-response-mod","31","128546","0.0-31.0","73622","","","","","","triplet","1908.9999999999854","","","","2","stimuli/tree_uppercase.png","stimuli/stim004_animate_fish_4.png","stimuli/face_lowercase.png","27"
"html-button-response-mod","32","133525","0.0-32.0","73622","","","","","","triplet","4475","","","","0","stimuli/stim023_inanimate_tools_3.png","stimuli/stim008_animate_bird_4.png","stimuli/stim017_inanimate_tree_1.png","28"
"html-button-response-mod","33","137712","0.0-33.0","73622","","","","","","triplet","3685","","","","1","stimuli/fish_uppercase.png","stimuli/stim009_animate_face_1.png","stimuli/bird_lowercase.png","29"
"html-button-response-mod","34","141285","0.0-34.0","73622","","","","","","triplet","3069","","","","2","stimuli/stim014_inanimate_boats_2.png","stimuli/tools_lowercase.png","stimuli/stim019_inanimate_tree_3.png","30"
"html-button-response-mod","35","144492","0.0-35.0","73622","","","","","","triplet","2704","","","","2","stimuli/stim007_animate_bird_3.png","stimuli/stim019_inanimate_tree_3.png","stimuli/stim015_inanimate_boats_3.png","31"
"html-button-response-mod","36","147219","0.0-36.0","73622","","","","","","triplet","2224","","","","0","stimuli/stim012_animate_face_4.png","stimuli/boats_uppercase.png","stimuli/tools_uppercase.png","32"
"html-button-response-mod","37","151264","0.0-37.0","73622","","","","","","triplet","3541","","","","0","stimuli/stim015_inanimate_boats_3.png","stimuli/tree_lowercase.png","stimuli/stim010_animate_face_2.png","33"
"html-button-response-mod","38","152912","0.0-38.0","73622","","","","","","triplet","1145","","","","1","stimuli/stim021_inanimate_tools_1.png","stimuli/fish_uppercase.png","stimuli/stim023_inanimate_tools_3.png","34"
"html-button-response-mod","39","154653","0.0-39.0","73622","","","","","","triplet","1238","","","","1","stimuli/fish_lowercase.png","stimuli/tree_lowercase.png","stimuli/stim004_animate_fish_4.png","35"
"html-button-response-mod","40","156269","0.0-40.0","73622","","","","","","triplet","1113","","","","1","stimuli/stim007_animate_bird_3.png","stimuli/stim018_inanimate_tree_2.png","stimuli/stim005_animate_bird_1.png","36"
"html-button-response-mod","41","157777","0.0-41.0","73622","","","","","","triplet","1005","","","","2","stimuli/stim003_animate_fish_3.png","stimuli/stim007_animate_bird_3.png","stimuli/boats_lowercase.png","37"
"html-button-response-mod","42","159375","0.0-42.0","73622","","","","","","triplet","1094.999999999971","","","","1","stimuli/stim011_animate_face_3.png","stimuli/bird_uppercase.png","stimuli/stim017_inanimate_tree_1.png","38"
"html-button-response-mod","43","162457","0.0-43.0","73622","","","","","","triplet","2579","","","","1","stimuli/tools_lowercase.png","stimuli/stim010_animate_face_2.png","stimuli/stim016_inanimate_boats_4.png","39"
"html-button-response-mod","44","165061","0.0-44.0","73622","","","","","","triplet","2101","","","","2","stimuli/stim015_inanimate_boats_3.png","stimuli/boats_lowercase.png","stimuli/bird_uppercase.png","40"
"html-button-response-mod","45","171611","0.0-45.0","73622","","","","","","triplet","6048","","","","0","stimuli/stim011_animate_face_3.png","stimuli/boats_lowercase.png","stimuli/tools_lowercase.png","41"
"html-button-response-mod","46","174076","0.0-46.0","73622","","","","","","triplet","1963","","","","2","stimuli/stim017_inanimate_tree_1.png","stimuli/stim010_animate_face_2.png","stimuli/tools_lowercase.png","42"
"html-button-response-mod","47","176335","0.0-47.0","73622","","","","","","triplet","1755.000000000029","","","","1","stimuli/tree_lowercase.png","stimuli/stim009_animate_face_1.png","stimuli/stim001_animate_fish_1.png","43"
"html-button-response-mod","48","179394","0.0-48.0","73622","","","","","","triplet","2556.000000000029","","","","0","stimuli/stim016_inanimate_boats_4.png","stimuli/stim012_animate_face_4.png","stimuli/stim017_inanimate_tree_1.png","44"
"html-button-response-mod","49","184931","0.0-49.0","73622","","","","","","triplet","5034","","","","2","stimuli/stim012_animate_face_4.png","stimuli/tree_lowercase.png","stimuli/stim016_inanimate_boats_4.png","45"
"html-button-response-mod","50","186641","0.0-50.0","73622","","","","","","triplet","1207","","","","2","stimuli/stim003_animate_fish_3.png","stimuli/stim006_animate_bird_2.png","stimuli/stim020_inanimate_tree_4.png","46"
"html-button-response-mod","51","190353","0.0-51.0","73622","","","","","","triplet","3208.999999999971","","","","2","stimuli/fish_lowercase.png","stimuli/face_uppercase.png","stimuli/stim022_inanimate_tools_2.png","47"
"html-button-response-mod","52","192176","0.0-52.0","73622","","","","","","triplet","1321","","","","2","stimuli/face_uppercase.png","stimuli/stim005_animate_bird_1.png","stimuli/stim021_inanimate_tools_1.png","48"
"html-button-response-mod","53","195708","0.0-53.0","73622","","","","","","triplet","3030","","","","2","stimuli/stim004_animate_fish_4.png","stimuli/bird_uppercase.png","stimuli/stim014_inanimate_boats_2.png","49"
"html-button-response","54","197569","0.0-54.0","73622","","","","","","break","1359","<p>BREAK</p><p>Take a break for as long as you need</p><p>Click the button to continue</p>","0","","","","","",""
"html-button-response-mod","55","200068","0.0-55.0","73622","","","","","","triplet","2497","","","","0","stimuli/stim009_animate_face_1.png","stimuli/tree_uppercase.png","stimuli/stim020_inanimate_tree_4.png","50"
"html-button-response-mod","56","208397","0.0-56.0","73622","","","","","","triplet","7825","","","","1","stimuli/stim014_inanimate_boats_2.png","stimuli/stim019_inanimate_tree_3.png","stimuli/fish_uppercase.png","51"
"html-button-response-mod","57","213367","0.0-57.0","73622","","","","","","triplet","4468","","","","2","stimuli/stim007_animate_bird_3.png","stimuli/stim011_animate_face_3.png","stimuli/stim015_inanimate_boats_3.png","52"
"html-button-response-mod","58","215608","0.0-58.0","73622","","","","","","triplet","1738","","","","2","stimuli/stim016_inanimate_boats_4.png","stimuli/stim024_inanimate_tools_4.png","stimuli/stim017_inanimate_tree_1.png","53"
"html-button-response-mod","59","217987","0.0-59.0","73622","","","","","","triplet","1876","","","","0","stimuli/stim023_inanimate_tools_3.png","stimuli/tree_uppercase.png","stimuli/face_lowercase.png","54"
"html-button-response-mod","60","219613","0.0-60.0","73622","","","","","","triplet","1123","","","","2","stimuli/face_lowercase.png","stimuli/face_uppercase.png","stimuli/stim023_inanimate_tools_3.png","55"
"html-button-response-mod","61","221412","0.0-61.0","73622","","","","","","triplet","1296.000000000029","","","","1","stimuli/stim007_animate_bird_3.png","stimuli/stim011_animate_face_3.png","stimuli/stim004_animate_fish_4.png","56"
"html-button-response-mod","62","223720","0.0-62.0","73622","","","","","","triplet","1804","","","","0","stimuli/stim007_animate_bird_3.png","stimuli/stim013_inanimate_boats_1.png","stimuli/tools_lowercase.png","57"
"html-button-response-mod","63","225415","0.0-63.0","73622","","","","","","triplet","1192","","","","2","stimuli/stim018_inanimate_tree_2.png","stimuli/stim011_animate_face_3.png","stimuli/stim006_animate_bird_2.png","58"
"html-button-response-mod","64","228976","0.0-64.0","73622","","","","","","triplet","3057.999999999971","","","","1","stimuli/face_lowercase.png","stimuli/tools_lowercase.png","stimuli/stim006_animate_bird_2.png","59"
"html-button-response-mod","65","230773","0.0-65.0","73622","","","","","","triplet","1294","","","","0","stimuli/stim016_inanimate_boats_4.png","stimuli/bird_lowercase.png","stimuli/stim001_animate_fish_1.png","60"
"html-button-response-mod","66","232436","0.0-66.0","73622","","","","","","triplet","1160.000000000029","","","","2","stimuli/stim019_inanimate_tree_3.png","stimuli/stim020_inanimate_tree_4.png","stimuli/stim011_animate_face_3.png","61"
"html-button-response-mod","67","234517","0.0-67.0","73622","","","","","","triplet","1578","","","","2","stimuli/tools_lowercase.png","stimuli/stim024_inanimate_tools_4.png","stimuli/stim012_animate_face_4.png","62"
"html-button-response-mod","68","236607","0.0-68.0","73622","","","","","","triplet","1587.999999999971","","","","2","stimuli/stim013_inanimate_boats_1.png","stimuli/tools_lowercase.png","stimuli/stim010_animate_face_2.png","63"
"html-button-response-mod","69","242424","0.0-69.0","73622","","","","","","triplet","5314.000000000029","","","","2","stimuli/stim004_animate_fish_4.png","stimuli/stim015_inanimate_boats_3.png","stimuli/stim024_inanimate_tools_4.png","64"
"html-button-response-mod","70","243901","0.0-70.0","73622","","","","","","triplet","975","","","","2","stimuli/stim017_inanimate_tree_1.png","stimuli/stim019_inanimate_tree_3.png","stimuli/bird_uppercase.png","65"
"html-button-response-mod","71","245831","0.0-71.0","73622","","","","","","triplet","1427","","","","2","stimuli/tools_lowercase.png","stimuli/stim024_inanimate_tools_4.png","stimuli/stim015_inanimate_boats_3.png","66"
"html-button-response-mod","72","247542","0.0-72.0","73622","","","","","","triplet","1208","","","","1","stimuli/stim001_animate_fish_1.png","stimuli/stim018_inanimate_tree_2.png","stimuli/stim005_animate_bird_1.png","67"
"html-button-response-mod","73","250155","0.0-73.0","73622","","","","","","triplet","2110","","","","2","stimuli/stim002_animate_fish_2.png","stimuli/stim015_inanimate_boats_3.png","stimuli/tree_lowercase.png","68"
"html-button-response-mod","74","252034","0.0-74.0","73622","","","","","","triplet","1377","","","","0","stimuli/stim012_animate_face_4.png","stimuli/boats_lowercase.png","stimuli/fish_uppercase.png","69"
"html-button-response-mod","75","253980","0.0-75.0","73622","","","","","","triplet","1442.999999999971","","","","2","stimuli/tools_uppercase.png","stimuli/stim023_inanimate_tools_3.png","stimuli/stim010_animate_face_2.png","70"
"html-button-response-mod","76","256668","0.0-76.0","73622","","","","","","triplet","2186","","","","2","stimuli/boats_uppercase.png","stimuli/stim013_inanimate_boats_1.png","stimuli/stim024_inanimate_tools_4.png","71"
"html-button-response-mod","77","259265","0.0-77.0","73622","","","","","","triplet","2095","","","","0","stimuli/stim020_inanimate_tree_4.png","stimuli/stim023_inanimate_tools_3.png","stimuli/stim021_inanimate_tools_1.png","72"
"html-button-response-mod","78","297017","0.0-78.0","73622","","","","","","triplet","37249","","","","2","stimuli/fish_lowercase.png","stimuli/tree_lowercase.png","stimuli/stim009_animate_face_1.png","73"
"html-button-response-mod","79","298910","0.0-79.0","73622","","","","","","triplet","1391","","","","0","stimuli/stim010_animate_face_2.png","stimuli/stim013_inanimate_boats_1.png","stimuli/stim004_animate_fish_4.png","74"
"html-button-response-mod","80","332210","0.0-80.0","73622","","","","","","triplet","32796","","","","2","stimuli/stim011_animate_face_3.png","stimuli/tree_lowercase.png","stimuli/stim022_inanimate_tools_2.png","75"
"html-button-response-mod","81","334653","0.0-81.0","73622","","","","","","triplet","1941","","","","2","stimuli/boats_lowercase.png","stimuli/fish_uppercase.png","stimuli/stim011_animate_face_3.png","76"
"html-button-response-mod","82","336979","0.0-82.0","73622","","","","","","triplet","1823.9999999999418","","","","1","stimuli/boats_uppercase.png","stimuli/face_lowercase.png","stimuli/stim003_animate_fish_3.png","77"
"html-button-response-mod","83","338891","0.0-83.0","73622","","","","","","triplet","1408.9999999999418","","","","2","stimuli/stim003_animate_fish_3.png","stimuli/stim018_inanimate_tree_2.png","stimuli/face_uppercase.png","78"
"html-button-response-mod","84","340884","0.0-84.0","73622","","","","","","triplet","1490","","","","0","stimuli/stim010_animate_face_2.png","stimuli/fish_lowercase.png","stimuli/stim001_animate_fish_1.png","79"
"html-button-response-mod","85","342929","0.0-85.0","73622","","","","","","triplet","1542.0000000000582","","","","2","stimuli/stim008_animate_bird_4.png","stimuli/stim017_inanimate_tree_1.png","stimuli/face_lowercase.png","80"
"html-button-response-mod","86","345291","0.0-86.0","73622","","","","","","triplet","1859","","","","2","stimuli/boats_uppercase.png","stimuli/stim014_inanimate_boats_2.png","stimuli/fish_uppercase.png","81"
"html-button-response-mod","87","348173","0.0-87.0","73622","","","","","","triplet","2378.000000000058","","","","2","stimuli/tree_lowercase.png","stimuli/stim017_inanimate_tree_1.png","stimuli/stim014_inanimate_boats_2.png","82"
"html-button-response-mod","88","350330","0.0-88.0","73622","","","","","","triplet","1655","","","","0","stimuli/stim010_animate_face_2.png","stimuli/stim014_inanimate_boats_2.png","stimuli/stim004_animate_fish_4.png","83"
"html-button-response-mod","89","352092","0.0-89.0","73622","","","","","","triplet","1259","","","","1","stimuli/stim015_inanimate_boats_3.png","stimuli/tools_lowercase.png","stimuli/stim016_inanimate_boats_4.png","84"
"html-button-response-mod","90","353998","0.0-90.0","73622","","","","","","triplet","1403","","","","1","stimuli/stim002_animate_fish_2.png","stimuli/stim008_animate_bird_4.png","stimuli/stim014_inanimate_boats_2.png","85"
"html-button-response-mod","91","355928","0.0-91.0","73622","","","","","","triplet","1428","","","","0","stimuli/stim008_animate_bird_4.png","stimuli/stim022_inanimate_tools_2.png","stimuli/stim021_inanimate_tools_1.png","86"
"html-button-response-mod","92","357437","0.0-92.0","73622","","","","","","triplet","1005","","","","1","stimuli/stim004_animate_fish_4.png","stimuli/tools_uppercase.png","stimuli/stim002_animate_fish_2.png","87"
"html-button-response-mod","93","358954","0.0-93.0","73622","","","","","","triplet","1014","","","","1","stimuli/stim005_animate_bird_1.png","stimuli/stim019_inanimate_tree_3.png","stimuli/stim007_animate_bird_3.png","88"
"html-button-response-mod","94","360666","0.0-94.0","73622","","","","","","triplet","1209","","","","1","stimuli/stim001_animate_fish_1.png","stimuli/face_uppercase.png","stimuli/stim019_inanimate_tree_3.png","89"
"html-button-response-mod","95","365102","0.0-95.0","73622","","","","","","triplet","3933","","","","1","stimuli/stim019_inanimate_tree_3.png","stimuli/fish_uppercase.png","stimuli/stim008_animate_bird_4.png","90"
"html-button-response-mod","96","370019","0.0-96.0","73622","","","","","","triplet","4415.000000000058","","","","0","stimuli/bird_lowercase.png","stimuli/stim017_inanimate_tree_1.png","stimuli/stim014_inanimate_boats_2.png","91"
"html-button-response-mod","97","372107","0.0-97.0","73622","","","","","","triplet","1586","","","","0","stimuli/boats_lowercase.png","stimuli/stim006_animate_bird_2.png","stimuli/stim007_animate_bird_3.png","92"
"html-button-response-mod","98","374501","0.0-98.0","73622","","","","","","triplet","1891","","","","1","stimuli/stim003_animate_fish_3.png","stimuli/boats_uppercase.png","stimuli/bird_lowercase.png","93"
"html-button-response-mod","99","376387","0.0-99.0","73622","","","","","","triplet","1383","","","","0","stimuli/stim005_animate_bird_1.png","stimuli/face_lowercase.png","stimuli/face_uppercase.png","94"
"html-button-response-mod","100","377880","0.0-100.0","73622","","","","","","triplet","990","","","","1","stimuli/stim004_animate_fish_4.png","stimuli/stim015_inanimate_boats_3.png","stimuli/stim001_animate_fish_1.png","95"
"html-button-response-mod","101","379274","0.0-101.0","73622","","","","","","triplet","892.9999999999418","","","","1","stimuli/stim020_inanimate_tree_4.png","stimuli/stim005_animate_bird_1.png","stimuli/stim018_inanimate_tree_2.png","96"
"html-button-response-mod","102","381391","0.0-102.0","73622","","","","","","triplet","1614","","","","0","stimuli/stim022_inanimate_tools_2.png","stimuli/fish_uppercase.png","stimuli/stim004_animate_fish_4.png","97"
"html-button-response-mod","103","389655","0.0-103.0","73622","","","","","","triplet","7761","","","","0","stimuli/stim008_animate_bird_4.png","stimuli/tree_uppercase.png","stimuli/boats_uppercase.png","98"
"html-button-response-mod","104","392760","0.0-104.0","73622","","","","","","triplet","2602","","","","1","stimuli/stim006_animate_bird_2.png","stimuli/tree_uppercase.png","stimuli/stim014_inanimate_boats_2.png","99"
"html-button-response","105","394214","0.0-105.0","73622","","","","","","break","952","<p>BREAK</p><p>Take a break for as long as you need</p><p>Click the button to continue</p>","0","","","","","",""
"html-button-response-mod","106","396763","0.0-106.0","73622","","","","","","triplet","2547","","","","1","stimuli/stim013_inanimate_boats_1.png","stimuli/stim005_animate_bird_1.png","stimuli/tools_lowercase.png","100"
"html-button-response-mod","107","400517","0.0-107.0","73622","","","","","","triplet","3251","","","","2","stimuli/face_uppercase.png","stimuli/bird_uppercase.png","stimuli/tools_uppercase.png","101"
"html-button-response-mod","108","403011","0.0-108.0","73622","","","","","","triplet","1991.9999999999418","","","","1","stimuli/stim005_animate_bird_1.png","stimuli/tools_lowercase.png","stimuli/face_lowercase.png","102"
"html-button-response-mod","109","405520","0.0-109.0","73622","","","","","","triplet","2006.0000000000582","","","","1","stimuli/stim007_animate_bird_3.png","stimuli/tools_uppercase.png","stimuli/face_lowercase.png","103"
"html-button-response-mod","110","407582","0.0-110.0","73622","","","","","","triplet","1560","","","","0","stimuli/tools_lowercase.png","stimuli/stim001_animate_fish_1.png","stimuli/face_uppercase.png","104"
"html-button-response-mod","111","409579","0.0-111.0","73622","","","","","","triplet","1495","","","","1","stimuli/fish_lowercase.png","stimuli/stim012_animate_face_4.png","stimuli/stim006_animate_bird_2.png","105"
"html-button-response-mod","112","411869","0.0-112.0","73622","","","","","","triplet","1787","","","","2","stimuli/stim019_inanimate_tree_3.png","stimuli/tree_lowercase.png","stimuli/tools_uppercase.png","106"
"html-button-response-mod","113","414300","0.0-113.0","73622","","","","","","triplet","1929","","","","2","stimuli/stim012_animate_face_4.png","stimuli/stim020_inanimate_tree_4.png","stimuli/fish_lowercase.png","107"
"html-button-response-mod","114","416359","0.0-114.0","73622","","","","","","triplet","1555.0000000000582","","","","0","stimuli/stim019_inanimate_tree_3.png","stimuli/stim002_animate_fish_2.png","stimuli/stim005_animate_bird_1.png","108"
"html-button-response-mod","115","417940","0.0-115.0","73622","","","","","","triplet","1079","","","","2","stimuli/stim007_animate_bird_3.png","stimuli/stim006_animate_bird_2.png","stimuli/stim019_inanimate_tree_3.png","109"
"html-button-response-mod","116","421248","0.0-116.0","73622","","","","","","triplet","2805","","","","0","stimuli/fish_lowercase.png","stimuli/boats_uppercase.png","stimuli/stim021_inanimate_tools_1.png","110"
"html-button-response-mod","117","423662","0.0-117.0","73622","","","","","","triplet","1911","","","","2","stimuli/stim009_animate_face_1.png","stimuli/stim005_animate_bird_1.png","stimuli/stim015_inanimate_boats_3.png","111"
"html-button-response-mod","118","425688","0.0-118.0","73622","","","","","","triplet","1523","","","","1","stimuli/tools_uppercase.png","stimuli/stim019_inanimate_tree_3.png","stimuli/stim022_inanimate_tools_2.png","112"
"html-button-response-mod","119","429020","0.0-119.0","73622","","","","","","triplet","2829.000000000058","","","","1","stimuli/stim005_animate_bird_1.png","stimuli/face_lowercase.png","stimuli/stim018_inanimate_tree_2.png","113"
"html-button-response-mod","120","432708","0.0-120.0","73622","","","","","","triplet","3186","","","","0","stimuli/boats_lowercase.png","stimuli/stim001_animate_fish_1.png","stimuli/stim012_animate_face_4.png","114"
"html-button-response-mod","121","446842","0.0-121.0","73622","","","","","","triplet","13630.000000000058","","","","0","stimuli/stim018_inanimate_tree_2.png","stimuli/stim009_animate_face_1.png","stimuli/face_lowercase.png","115"
"html-button-response-mod","122","448794","0.0-122.0","73622","","","","","","triplet","1450.0000000000582","","","","0","stimuli/stim015_inanimate_boats_3.png","stimuli/bird_lowercase.png","stimuli/stim006_animate_bird_2.png","116"
"html-button-response-mod","123","450760","0.0-123.0","73622","","","","","","triplet","1463","","","","0","stimuli/bird_lowercase.png","stimuli/stim011_animate_face_3.png","stimuli/face_uppercase.png","117"
"html-button-response-mod","124","452633","0.0-124.0","73622","","","","","","triplet","1370.0000000000582","","","","0","stimuli/face_lowercase.png","stimuli/tree_lowercase.png","stimuli/tree_uppercase.png","118"
"html-button-response-mod","125","454650","0.0-125.0","73622","","","","","","triplet","1514.0000000000582","","","","0","stimuli/tree_uppercase.png","stimuli/stim003_animate_fish_3.png","stimuli/stim016_inanimate_boats_4.png","119"
"html-button-response-mod","126","456426","0.0-126.0","73622","","","","","","triplet","1272","","","","2","stimuli/bird_uppercase.png","stimuli/stim007_animate_bird_3.png","stimuli/boats_uppercase.png","120"
"html-button-response-mod","127","458416","0.0-127.0","73622","","","","","","triplet","1487","","","","1","stimuli/stim017_inanimate_tree_1.png","stimuli/stim022_inanimate_tools_2.png","stimuli/stim007_animate_bird_3.png","121"
"html-button-response-mod","128","461414","0.0-128.0","73622","","","","","","triplet","2494.999999999942","","","","0","stimuli/tree_uppercase.png","stimuli/stim015_inanimate_boats_3.png","stimuli/stim024_inanimate_tools_4.png","122"
"html-button-response-mod","129","462963","0.0-129.0","73622","","","","","","triplet","1046","","","","0","stimuli/boats_uppercase.png","stimuli/stim005_animate_bird_1.png","stimuli/stim008_animate_bird_4.png","123"
"html-button-response-mod","130","465132","0.0-130.0","73622","","","","","","triplet","1666","","","","1","stimuli/stim007_animate_bird_3.png","stimuli/tools_uppercase.png","stimuli/stim004_animate_fish_4.png","124"
"html-button-response-mod","131","466771","0.0-131.0","73622","","","","","","triplet","1136","","","","0","stimuli/tools_uppercase.png","stimuli/stim011_animate_face_3.png","stimuli/stim012_animate_face_4.png","125"
"html-button-response-mod","132","471714","0.0-132.0","73622","","","","","","triplet","4440","","","","1","stimuli/tree_lowercase.png","stimuli/stim022_inanimate_tools_2.png","stimuli/stim007_animate_bird_3.png","126"
"html-button-response-mod","133","506647","0.0-133.0","73622","","","","","","triplet","34428.99999999994","","","","0","stimuli/tree_lowercase.png","stimuli/stim002_animate_fish_2.png","stimuli/stim016_inanimate_boats_4.png","127"
"html-button-response-mod","134","508509","0.0-134.0","73622","","","","","","triplet","1360","","","","1","stimuli/fish_uppercase.png","stimuli/stim023_inanimate_tools_3.png","stimuli/stim006_animate_bird_2.png","128"
"html-button-response-mod","135","509881","0.0-135.0","73622","","","","","","triplet","869.0000000000582","","","","1","stimuli/stim020_inanimate_tree_4.png","stimuli/bird_uppercase.png","stimuli/stim018_inanimate_tree_2.png","129"
"html-button-response-mod","136","511793","0.0-136.0","73622","","","","","","triplet","1408.9999999999418","","","","1","stimuli/stim008_animate_bird_4.png","stimuli/face_uppercase.png","stimuli/stim017_inanimate_tree_1.png","130"
"html-button-response-mod","137","513254","0.0-137.0","73622","","","","","","triplet","959.0000000000582","","","","2","stimuli/stim017_inanimate_tree_1.png","stimuli/stim018_inanimate_tree_2.png","stimuli/stim006_animate_bird_2.png","131"
"html-button-response-mod","138","515363","0.0-138.0","73622","","","","","","triplet","1604.9999999998836","","","","2","stimuli/tools_uppercase.png","stimuli/stim014_inanimate_boats_2.png","stimuli/stim011_animate_face_3.png","132"
"html-button-response-mod","139","518266","0.0-139.0","73622","","","","","","triplet","2400","","","","1","stimuli/stim004_animate_fish_4.png","stimuli/stim021_inanimate_tools_1.png","stimuli/face_lowercase.png","133"
"html-button-response-mod","140","520089","0.0-140.0","73622","","","","","","triplet","1322","","","","0","stimuli/stim012_animate_face_4.png","stimuli/bird_lowercase.png","stimuli/stim006_animate_bird_2.png","134"
"html-button-response-mod","141","522080","0.0-141.0","73622","","","","","","triplet","1487","","","","0","stimuli/stim010_animate_face_2.png","stimuli/fish_lowercase.png","stimuli/stim003_animate_fish_3.png","135"
"html-button-response-mod","142","524659","0.0-142.0","73622","","","","","","triplet","2075","","","","2","stimuli/stim021_inanimate_tools_1.png","stimuli/boats_uppercase.png","stimuli/stim005_animate_bird_1.png","136"
"html-button-response-mod","143","527557","0.0-143.0","73622","","","","","","triplet","2393","","","","0","stimuli/stim019_inanimate_tree_3.png","stimuli/stim023_inanimate_tools_3.png","stimuli/boats_uppercase.png","137"
"html-button-response-mod","144","530375","0.0-144.0","73622","","","","","","triplet","2316","","","","0","stimuli/fish_uppercase.png","stimuli/stim021_inanimate_tools_1.png","stimuli/stim014_inanimate_boats_2.png","138"
"html-button-response-mod","145","532885","0.0-145.0","73622","","","","","","triplet","2006.9999999998836","","","","0","stimuli/stim006_animate_bird_2.png","stimuli/stim015_inanimate_boats_3.png","stimuli/stim023_inanimate_tools_3.png","139"
"html-button-response-mod","146","535240","0.0-146.0","73622","","","","","","triplet","1851","","","","1","stimuli/bird_lowercase.png","stimuli/fish_lowercase.png","stimuli/stim006_animate_bird_2.png","140"
"html-button-response-mod","147","537074","0.0-147.0","73622","","","","","","triplet","1331","","","","0","stimuli/stim011_animate_face_3.png","stimuli/stim004_animate_fish_4.png","stimuli/stim003_animate_fish_3.png","141"
"html-button-response-mod","148","539014","0.0-148.0","73622","","","","","","triplet","1437","","","","0","stimuli/stim023_inanimate_tools_3.png","stimuli/fish_lowercase.png","stimuli/stim011_animate_face_3.png","142"
"html-button-response-mod","149","540683","0.0-149.0","73622","","","","","","triplet","1165.0000000001164","","","","2","stimuli/bird_lowercase.png","stimuli/stim005_animate_bird_1.png","stimuli/stim011_animate_face_3.png","143"
"html-button-response-mod","150","542096","0.0-150.0","73622","","","","","","triplet","909","","","","2","stimuli/stim010_animate_face_2.png","stimuli/stim011_animate_face_3.png","stimuli/stim001_animate_fish_1.png","144"
"html-button-response-mod","151","543758","0.0-151.0","73622","","","","","","triplet","1160","","","","0","stimuli/stim018_inanimate_tree_2.png","stimuli/stim022_inanimate_tools_2.png","stimuli/stim023_inanimate_tools_3.png","145"
"html-button-response-mod","152","545711","0.0-152.0","73622","","","","","","triplet","1449.9999999998836","","","","1","stimuli/bird_lowercase.png","stimuli/stim022_inanimate_tools_2.png","stimuli/stim018_inanimate_tree_2.png","146"
"html-button-response-mod","153","547729","0.0-153.0","73622","","","","","","triplet","1515","","","","0","stimuli/stim021_inanimate_tools_1.png","stimuli/stim008_animate_bird_4.png","stimuli/fish_lowercase.png","147"
"html-button-response-mod","154","550119","0.0-154.0","73622","","","","","","triplet","1885.9999999998836","","","","2","stimuli/stim003_animate_fish_3.png","stimuli/stim007_animate_bird_3.png","stimuli/face_lowercase.png","148"
"html-button-response-mod","155","554565","0.0-155.0","73622","","","","","","triplet","3944.0000000001164","","","","1","stimuli/stim006_animate_bird_2.png","stimuli/stim018_inanimate_tree_2.png","stimuli/stim010_animate_face_2.png","149"
"html-button-response","156","972749","0.0-156.0","73622","","","","","","break","417675","<p>BREAK</p><p>Take a break for as long as you need</p><p>Click the button to continue</p>","0","","","","","",""
"html-button-response-mod","157","974421","0.0-157.0","73622","","","","","","triplet","1670","","","","2","stimuli/face_uppercase.png","stimuli/stim005_animate_bird_1.png","stimuli/stim023_inanimate_tools_3.png","150"
"html-button-response-mod","158","975885","0.0-158.0","73622","","","","","","triplet","962","","","","1","stimuli/stim017_inanimate_tree_1.png","stimuli/stim014_inanimate_boats_2.png","stimuli/stim005_animate_bird_1.png","151"
"html-button-response-mod","159","977428","0.0-159.0","73622","","","","","","triplet","1038.9999999998836","","","","2","stimuli/stim008_animate_bird_4.png","stimuli/stim017_inanimate_tree_1.png","stimuli/stim021_inanimate_tools_1.png","152"
"html-button-response-mod","160","979583","0.0-160.0","73622","","","","","","triplet","1652","","","","2","stimuli/stim014_inanimate_boats_2.png","stimuli/stim024_inanimate_tools_4.png","stimuli/stim008_animate_bird_4.png","153"
"html-button-response-mod","161","981976","0.0-161.0","73622","","","","","","triplet","1890.9999999998836","","","","0","stimuli/stim024_inanimate_tools_4.png","stimuli/face_lowercase.png","stimuli/stim007_animate_bird_3.png","154"
"html-button-response-mod","162","984189","0.0-162.0","73622","","","","","","triplet","1708.9999999998836","","","","1","stimuli/tools_uppercase.png","stimuli/face_lowercase.png","stimuli/stim015_inanimate_boats_3.png","155"
"html-button-response-mod","163","986059","0.0-163.0","73622","","","","","","triplet","1369","","","","1","stimuli/stim017_inanimate_tree_1.png","stimuli/face_lowercase.png","stimuli/stim006_animate_bird_2.png","156"
"html-button-response-mod","164","988680","0.0-164.0","73622","","","","","","triplet","2117","","","","2","stimuli/tools_uppercase.png","stimuli/stim021_inanimate_tools_1.png","stimuli/stim005_animate_bird_1.png","157"
"html-button-response-mod","165","990420","0.0-165.0","73622","","","","","","triplet","1238","","","","0","stimuli/stim015_inanimate_boats_3.png","stimuli/fish_uppercase.png","stimuli/stim001_animate_fish_1.png","158"
"html-button-response-mod","166","992994","0.0-166.0","73622","","","","","","triplet","2073.0000000001164","","","","1","stimuli/tree_lowercase.png","stimuli/stim013_inanimate_boats_1.png","stimuli/stim007_animate_bird_3.png","159"
"html-button-response-mod","167","995752","0.0-167.0","73622","","","","","","triplet","2255","","","","0","stimuli/tools_lowercase.png","stimuli/bird_uppercase.png","stimuli/stim001_animate_fish_1.png","160"
"html-button-response-mod","168","1001039","0.0-168.0","73622","","","","","","triplet","4785","","","","1","stimuli/tree_uppercase.png","stimuli/boats_lowercase.png","stimuli/face_uppercase.png","161"
"html-button-response-mod","169","1004769","0.0-169.0","73622","","","","","","triplet","3228.0000000001164","","","","0","stimuli/stim010_animate_face_2.png","stimuli/stim016_inanimate_boats_4.png","stimuli/fish_uppercase.png","162"
"html-button-response-mod","170","1007077","0.0-170.0","73622","","","","","","triplet","1806","","","","2","stimuli/stim006_animate_bird_2.png","stimuli/fish_uppercase.png","stimuli/tree_lowercase.png","163"
"html-button-response-mod","171","1008788","0.0-171.0","73622","","","","","","triplet","1207.9999999998836","","","","1","stimuli/stim002_animate_fish_2.png","stimuli/face_uppercase.png","stimuli/stim007_animate_bird_3.png","164"
"html-button-response-mod","172","1010367","0.0-172.0","73622","","","","","","triplet","1077","","","","0","stimuli/stim021_inanimate_tools_1.png","stimuli/stim020_inanimate_tree_4.png","stimuli/fish_uppercase.png","165"
"html-button-response-mod","173","1012133","0.0-173.0","73622","","","","","","triplet","1262","","","","2","stimuli/fish_uppercase.png","stimuli/stim020_inanimate_tree_4.png","stimuli/stim015_inanimate_boats_3.png","166"
"html-button-response-mod","174","1017827","0.0-174.0","73622","","","","","","triplet","5192","","","","1","stimuli/stim016_inanimate_boats_4.png","stimuli/boats_uppercase.png","stimuli/stim015_inanimate_boats_3.png","167"
"html-button-response-mod","175","1020562","0.0-175.0","73622","","","","","","triplet","2233","","","","1","stimuli/stim006_animate_bird_2.png","stimuli/stim016_inanimate_boats_4.png","stimuli/stim011_animate_face_3.png","168"
"html-button-response-mod","176","1022269","0.0-176.0","73622","","","","","","triplet","1204","","","","2","stimuli/stim013_inanimate_boats_1.png","stimuli/stim015_inanimate_boats_3.png","stimuli/stim011_animate_face_3.png","169"
"html-button-response-mod","177","1024812","0.0-177.0","73622","","","","","","triplet","2040","","","","2","stimuli/stim002_animate_fish_2.png","stimuli/stim007_animate_bird_3.png","stimuli/boats_uppercase.png","170"
"html-button-response-mod","178","1028486","0.0-178.0","73622","","","","","","triplet","3173","","","","2","stimuli/tree_uppercase.png","stimuli/stim017_inanimate_tree_1.png","stimuli/stim003_animate_fish_3.png","171"
"html-button-response-mod","179","1032499","0.0-179.0","73622","","","","","","triplet","3510","","","","1","stimuli/face_lowercase.png","stimuli/stim024_inanimate_tools_4.png","stimuli/tree_uppercase.png","172"
"html-button-response-mod","180","1034887","0.0-180.0","73622","","","","","","triplet","1886","","","","0","stimuli/tools_lowercase.png","stimuli/stim018_inanimate_tree_2.png","stimuli/stim006_animate_bird_2.png","173"
"html-button-response-mod","181","1036694","0.0-181.0","73622","","","","","","triplet","1305","","","","2","stimuli/bird_uppercase.png","stimuli/stim008_animate_bird_4.png","stimuli/stim015_inanimate_boats_3.png","174"
"html-button-response-mod","182","1055074","0.0-182.0","73622","","","","","","triplet","17876.00000000035","","","","0","stimuli/stim006_animate_bird_2.png","stimuli/boats_lowercase.png","stimuli/stim014_inanimate_boats_2.png","175"
"html-button-response-mod","183","1062096","0.0-183.0","73622","","","","","","triplet","6518","","","","2","stimuli/stim022_inanimate_tools_2.png","stimuli/stim015_inanimate_boats_3.png","stimuli/stim007_animate_bird_3.png","176"
"html-button-response-mod","184","1065425","0.0-184.0","73622","","","","","","triplet","2828","","","","1","stimuli/stim004_animate_fish_4.png","stimuli/stim009_animate_face_1.png","stimuli/stim003_animate_fish_3.png","177"
"html-button-response-mod","185","1073513","0.0-185.0","73622","","","","","","triplet","7587","","","","2","stimuli/stim020_inanimate_tree_4.png","stimuli/bird_lowercase.png","stimuli/face_uppercase.png","178"
"html-button-response-mod","186","1075261","0.0-186.0","73622","","","","","","triplet","1246","","","","2","stimuli/stim019_inanimate_tree_3.png","stimuli/stim004_animate_fish_4.png","stimuli/stim010_animate_face_2.png","179"
"html-button-response-mod","187","1078272","0.0-187.0","73622","","","","","","triplet","2508","","","","2","stimuli/stim005_animate_bird_1.png","stimuli/stim018_inanimate_tree_2.png","stimuli/stim010_animate_face_2.png","180"
"html-button-response-mod","188","1079910","0.0-188.0","73622","","","","","","triplet","1136","","","","2","stimuli/bird_uppercase.png","stimuli/tree_lowercase.png","stimuli/stim011_animate_face_3.png","181"
"html-button-response-mod","189","1082217","0.0-189.0","73622","","","","","","triplet","1804","","","","2","stimuli/boats_uppercase.png","stimuli/boats_lowercase.png","stimuli/stim013_inanimate_boats_1.png","182"
"html-button-response-mod","190","1083761","0.0-190.0","73622","","","","","","triplet","1041","","","","2","stimuli/fish_uppercase.png","stimuli/stim001_animate_fish_1.png","stimuli/stim024_inanimate_tools_4.png","183"
"html-button-response-mod","191","1088045","0.0-191.0","73622","","","","","","triplet","3782.000000000233","","","","0","stimuli/stim022_inanimate_tools_2.png","stimuli/tree_uppercase.png","stimuli/stim012_animate_face_4.png","184"
"html-button-response-mod","192","1089857","0.0-192.0","73622","","","","","","triplet","1310","","","","0","stimuli/tools_lowercase.png","stimuli/stim012_animate_face_4.png","stimuli/stim011_animate_face_3.png","185"
"html-button-response-mod","193","1092256","0.0-193.0","73622","","","","","","triplet","1895","","","","0","stimuli/stim011_animate_face_3.png","stimuli/stim018_inanimate_tree_2.png","stimuli/stim008_animate_bird_4.png","186"
"html-button-response-mod","194","1094562","0.0-194.0","73622","","","","","","triplet","1803","","","","1","stimuli/stim021_inanimate_tools_1.png","stimuli/tree_lowercase.png","stimuli/stim015_inanimate_boats_3.png","187"
"html-button-response-mod","195","1096525","0.0-195.0","73622","","","","","","triplet","1459","","","","0","stimuli/tools_uppercase.png","stimuli/boats_uppercase.png","stimuli/stim014_inanimate_boats_2.png","188"
"html-button-response-mod","196","1100403","0.0-196.0","73622","","","","","","triplet","3375","","","","1","stimuli/stim007_animate_bird_3.png","stimuli/stim012_animate_face_4.png","stimuli/stim017_inanimate_tree_1.png","189"
"html-button-response-mod","197","1101963","0.0-197.0","73622","","","","","","triplet","1057","","","","0","stimuli/stim015_inanimate_boats_3.png","stimuli/stim018_inanimate_tree_2.png","stimuli/stim019_inanimate_tree_3.png","190"
"html-button-response-mod","198","1110302","0.0-198.0","73622","","","","","","triplet","7837","","","","0","stimuli/stim010_animate_face_2.png","stimuli/boats_uppercase.png","stimuli/stim022_inanimate_tools_2.png","191"
"html-button-response-mod","199","1112406","0.0-199.0","73622","","","","","","triplet","1601","","","","1","stimuli/stim002_animate_fish_2.png","stimuli/stim023_inanimate_tools_3.png","stimuli/stim012_animate_face_4.png","192"
"html-button-response-mod","200","1114553","0.0-200.0","73622","","","","","","triplet","1644","","","","2","stimuli/stim016_inanimate_boats_4.png","stimuli/stim005_animate_bird_1.png","stimuli/stim024_inanimate_tools_4.png","193"
"html-button-response-mod","201","1116613","0.0-201.0","73622","","","","","","triplet","1558.0000000002328","","","","2","stimuli/bird_lowercase.png","stimuli/stim007_animate_bird_3.png","stimuli/stim017_inanimate_tree_1.png","194"
"html-button-response-mod","202","1118274","0.0-202.0","73622","","","","","","triplet","1158","","","","0","stimuli/boats_uppercase.png","stimuli/stim003_animate_fish_3.png","stimuli/stim001_animate_fish_1.png","195"
"html-button-response-mod","203","1120655","0.0-203.0","73622","","","","","","triplet","1876.9999999997672","","","","2","stimuli/stim018_inanimate_tree_2.png","stimuli/stim016_inanimate_boats_4.png","stimuli/bird_uppercase.png","196"
"html-button-response-mod","204","1122316","0.0-204.0","73622","","","","","","triplet","1158","","","","1","stimuli/stim019_inanimate_tree_3.png","stimuli/stim021_inanimate_tools_1.png","stimuli/stim001_animate_fish_1.png","197"
"html-button-response-mod","205","1123826","0.0-205.0","73622","","","","","","triplet","1007","","","","2","stimuli/stim008_animate_bird_4.png","stimuli/bird_lowercase.png","stimuli/stim022_inanimate_tools_2.png","198"
"html-button-response-mod","206","1128661","0.0-206.0","73622","","","","","","triplet","4332","","","","0","stimuli/stim013_inanimate_boats_1.png","stimuli/stim011_animate_face_3.png","stimuli/stim018_inanimate_tree_2.png","199"
"html-button-response","207","1130301","0.0-207.0","73622","","","","","","break","1136","<p>BREAK</p><p>Take a break for as long as you need</p><p>Click the button to continue</p>","0","","","","","",""
"html-button-response-mod","208","1134339","0.0-208.0","73622","","","","","","triplet","4037","","","","1","stimuli/boats_lowercase.png","stimuli/stim012_animate_face_4.png","stimuli/stim003_animate_fish_3.png","200"
"html-button-response-mod","209","1137702","0.0-209.0","73622","","","","","","triplet","2860","","","","0","stimuli/stim022_inanimate_tools_2.png","stimuli/bird_lowercase.png","stimuli/stim001_animate_fish_1.png","201"
"html-button-response-mod","210","1139913","0.0-210.0","73622","","","","","","triplet","1709","","","","1","stimuli/stim003_animate_fish_3.png","stimuli/stim011_animate_face_3.png","stimuli/stim016_inanimate_boats_4.png","202"
"html-button-response-mod","211","1142192","0.0-211.0","73622","","","","","","triplet","1775","","","","1","stimuli/stim003_animate_fish_3.png","stimuli/stim024_inanimate_tools_4.png","stimuli/stim012_animate_face_4.png","203"
"html-button-response-mod","212","1144911","0.0-212.0","73622","","","","","","triplet","2217","","","","2","stimuli/stim005_animate_bird_1.png","stimuli/face_lowercase.png","stimuli/stim023_inanimate_tools_3.png","204"
"html-button-response-mod","213","1146816","0.0-213.0","73622","","","","","","triplet","1401.0000000002328","","","","2","stimuli/fish_lowercase.png","stimuli/stim020_inanimate_tree_4.png","stimuli/tools_uppercase.png","205"
"html-button-response-mod","214","1148551","0.0-214.0","73622","","","","","","triplet","1233","","","","2","stimuli/stim013_inanimate_boats_1.png","stimuli/stim002_animate_fish_2.png","stimuli/tree_uppercase.png","206"
"html-button-response-mod","215","1150089","0.0-215.0","73622","","","","","","triplet","1034","","","","2","stimuli/boats_lowercase.png","stimuli/boats_uppercase.png","stimuli/stim019_inanimate_tree_3.png","207"
"html-button-response-mod","216","1151586","0.0-216.0","73622","","","","","","triplet","994","","","","2","stimuli/stim006_animate_bird_2.png","stimuli/stim007_animate_bird_3.png","stimuli/stim022_inanimate_tools_2.png","208"
"html-button-response-mod","217","1157752","0.0-217.0","73622","","","","","","triplet","5664","","","","1","stimuli/fish_lowercase.png","stimuli/tools_lowercase.png","stimuli/stim008_animate_bird_4.png","209"
"html-button-response-mod","218","1160982","0.0-218.0","73622","","","","","","triplet","2727","","","","0","stimuli/stim023_inanimate_tools_3.png","stimuli/stim009_animate_face_1.png","stimuli/bird_lowercase.png","210"
"html-button-response-mod","219","1162843","0.0-219.0","73622","","","","","","triplet","1360","","","","0","stimuli/stim010_animate_face_2.png","stimuli/tree_lowercase.png","stimuli/stim018_inanimate_tree_2.png","211"
"html-button-response-mod","220","1164761","0.0-220.0","73622","","","","","","triplet","1416","","","","0","stimuli/stim011_animate_face_3.png","stimuli/stim015_inanimate_boats_3.png","stimuli/boats_uppercase.png","212"
"html-button-response-mod","221","1166537","0.0-221.0","73622","","","","","","triplet","1272","","","","1","stimuli/stim009_animate_face_1.png","stimuli/fish_lowercase.png","stimuli/stim012_animate_face_4.png","213"
"html-button-response-mod","222","1178606","0.0-222.0","73622","","","","","","triplet","11566","","","","0","stimuli/stim009_animate_face_1.png","stimuli/fish_lowercase.png","stimuli/stim005_animate_bird_1.png","214"
"html-button-response-mod","223","1181022","0.0-223.0","73622","","","","","","triplet","1912","","","","2","stimuli/tools_lowercase.png","stimuli/stim014_inanimate_boats_2.png","stimuli/stim020_inanimate_tree_4.png","215"
"html-button-response-mod","224","1182615","0.0-224.0","73622","","","","","","triplet","1091","","","","2","stimuli/stim020_inanimate_tree_4.png","stimuli/tree_lowercase.png","stimuli/bird_lowercase.png","216"
"html-button-response-mod","225","1184373","0.0-225.0","73622","","","","","","triplet","1257.0000000002328","","","","2","stimuli/bird_uppercase.png","stimuli/stim004_animate_fish_4.png","stimuli/stim010_animate_face_2.png","217"
"html-button-response-mod","226","1186118","0.0-226.0","73622","","","","","","triplet","1240","","","","0","stimuli/stim024_inanimate_tools_4.png","stimuli/stim006_animate_bird_2.png","stimuli/stim004_animate_fish_4.png","218"
"html-button-response-mod","227","1187513","0.0-227.0","73622","","","","","","triplet","892","","","","0","stimuli/stim024_inanimate_tools_4.png","stimuli/stim019_inanimate_tree_3.png","stimuli/stim018_inanimate_tree_2.png","219"
"html-button-response-mod","228","1190659","0.0-228.0","73622","","","","","","triplet","2644","","","","0","stimuli/stim010_animate_face_2.png","stimuli/fish_lowercase.png","stimuli/stim013_inanimate_boats_1.png","220"
"html-button-response-mod","229","1192096","0.0-229.0","73622","","","","","","triplet","935","","","","0","stimuli/stim010_animate_face_2.png","stimuli/stim003_animate_fish_3.png","stimuli/stim002_animate_fish_2.png","221"
"html-button-response-mod","230","1194170","0.0-230.0","73622","","","","","","triplet","1572","","","","0","stimuli/stim024_inanimate_tools_4.png","stimuli/stim014_inanimate_boats_2.png","stimuli/boats_lowercase.png","222"
"html-button-response-mod","231","1203337","0.0-231.0","73622","","","","","","triplet","8663","","","","2","stimuli/bird_lowercase.png","stimuli/tree_lowercase.png","stimuli/stim011_animate_face_3.png","223"
"html-button-response-mod","232","1205491","0.0-232.0","73622","","","","","","triplet","1651","","","","1","stimuli/tree_lowercase.png","stimuli/stim010_animate_face_2.png","stimuli/bird_lowercase.png","224"
"html-button-response-mod","233","1206942","0.0-233.0","73622","","","","","","triplet","948","","","","1","stimuli/tools_lowercase.png","stimuli/stim024_inanimate_tools_4.png","stimuli/boats_lowercase.png","225"
"html-button-response-mod","234","1209438","0.0-234.0","73622","","","","","","triplet","1993","","","","1","stimuli/fish_uppercase.png","stimuli/tree_lowercase.png","stimuli/stim016_inanimate_boats_4.png","226"
"html-button-response-mod","235","1222154","0.0-235.0","73622","","","","","","triplet","12212.999999999767","","","","2","stimuli/stim005_animate_bird_1.png","stimuli/face_lowercase.png","stimuli/tools_uppercase.png","227"
"html-button-response-mod","236","1225075","0.0-236.0","73622","","","","","","triplet","2418","","","","2","stimuli/stim010_animate_face_2.png","stimuli/stim001_animate_fish_1.png","stimuli/tools_lowercase.png","228"
"html-button-response-mod","237","1228571","0.0-237.0","73622","","","","","","triplet","2994.999999999767","","","","0","stimuli/bird_lowercase.png","stimuli/stim013_inanimate_boats_1.png","stimuli/boats_uppercase.png","229"
"html-button-response-mod","238","1230272","0.0-238.0","73622","","","","","","triplet","1199","","","","1","stimuli/stim024_inanimate_tools_4.png","stimuli/fish_lowercase.png","stimuli/tools_lowercase.png","230"
"html-button-response-mod","239","1231794","0.0-239.0","73622","","","","","","triplet","1019","","","","1","stimuli/tree_lowercase.png","stimuli/stim005_animate_bird_1.png","stimuli/tree_uppercase.png","231"
"html-button-response-mod","240","1234431","0.0-240.0","73622","","","","","","triplet","2132.999999999767","","","","1","stimuli/stim004_animate_fish_4.png","stimuli/stim024_inanimate_tools_4.png","stimuli/face_lowercase.png","232"
"html-button-response-mod","241","1236802","0.0-241.0","73622","","","","","","triplet","1868","","","","1","stimuli/stim015_inanimate_boats_3.png","stimuli/stim011_animate_face_3.png","stimuli/stim006_animate_bird_2.png","233"
"html-button-response-mod","242","1238498","0.0-242.0","73622","","","","","","triplet","1193","","","","2","stimuli/stim022_inanimate_tools_2.png","stimuli/stim021_inanimate_tools_1.png","stimuli/stim003_animate_fish_3.png","234"
"html-button-response-mod","243","1244134","0.0-243.0","73622","","","","","","triplet","5134.000000000233","","","","2","stimuli/stim006_animate_bird_2.png","stimuli/stim020_inanimate_tree_4.png","stimuli/stim014_inanimate_boats_2.png","235"
"html-button-response-mod","244","1245778","0.0-244.0","73622","","","","","","triplet","1141.0000000002328","","","","2","stimuli/stim003_animate_fish_3.png","stimuli/fish_uppercase.png","stimuli/stim011_animate_face_3.png","236"
"html-button-response-mod","245","1248206","0.0-245.0","73622","","","","","","triplet","1926","","","","2","stimuli/stim001_animate_fish_1.png","stimuli/stim016_inanimate_boats_4.png","stimuli/stim009_animate_face_1.png","237"
"html-button-response-mod","246","1250500","0.0-246.0","73622","","","","","","triplet","1791.0000000002328","","","","1","stimuli/stim016_inanimate_boats_4.png","stimuli/stim001_animate_fish_1.png","stimuli/stim013_inanimate_boats_1.png","238"
"html-button-response-mod","247","1252270","0.0-247.0","73622","","","","","","triplet","1268","","","","2","stimuli/stim015_inanimate_boats_3.png","stimuli/stim013_inanimate_boats_1.png","stimuli/fish_lowercase.png","239"
"html-button-response-mod","248","1254040","0.0-248.0","73622","","","","","","triplet","1267","","","","1","stimuli/stim002_animate_fish_2.png","stimuli/stim018_inanimate_tree_2.png","stimuli/stim015_inanimate_boats_3.png","240"
"html-button-response-mod","249","1256033","0.0-249.0","73622","","","","","","triplet","1490","","","","1","stimuli/stim005_animate_bird_1.png","stimuli/stim020_inanimate_tree_4.png","stimuli/stim002_animate_fish_2.png","241"
"html-button-response-mod","250","1258161","0.0-250.0","73622","","","","","","triplet","1625","","","","0","stimuli/stim003_animate_fish_3.png","stimuli/tree_lowercase.png","stimuli/stim019_inanimate_tree_3.png","242"
"html-button-response-mod","251","1260036","0.0-251.0","73622","","","","","","triplet","1372","","","","1","stimuli/stim016_inanimate_boats_4.png","stimuli/stim003_animate_fish_3.png","stimuli/boats_uppercase.png","243"
"html-button-response-mod","252","1265080","0.0-252.0","73622","","","","","","triplet","4541","","","","0","stimuli/stim008_animate_bird_4.png","stimuli/stim012_animate_face_4.png","stimuli/face_lowercase.png","244"
"html-button-response-mod","253","1270109","0.0-253.0","73622","","","","","","triplet","4527","","","","2","stimuli/tools_uppercase.png","stimuli/stim013_inanimate_boats_1.png","stimuli/stim019_inanimate_tree_3.png","245"
"html-button-response-mod","254","1272671","0.0-254.0","73622","","","","","","triplet","2060","","","","2","stimuli/stim007_animate_bird_3.png","stimuli/bird_uppercase.png","stimuli/fish_uppercase.png","246"
"html-button-response-mod","255","1274281","0.0-255.0","73622","","","","","","triplet","1107","","","","2","stimuli/stim010_animate_face_2.png","stimuli/stim012_animate_face_4.png","stimuli/boats_lowercase.png","247"
"html-button-response-mod","256","1276856","0.0-256.0","73622","","","","","","triplet","2072.000000000233","","","","0","stimuli/stim017_inanimate_tree_1.png","stimuli/stim003_animate_fish_3.png","stimuli/stim007_animate_bird_3.png","248"
"html-button-response-mod","257","1286724","0.0-257.0","73622","","","","","","triplet","9366","","","","0","stimuli/stim016_inanimate_boats_4.png","stimuli/tree_lowercase.png","stimuli/stim006_animate_bird_2.png","249"
"html-button-response","258","1288447","0.0-258.0","73622","","","","","","break","1222","<p>BREAK</p><p>Take a break for as long as you need</p><p>Click the button to continue</p>","0","","","","","",""
"html-button-response-mod","259","1290153","0.0-259.0","73622","","","","","","triplet","1705","","","","2","stimuli/fish_uppercase.png","stimuli/stim004_animate_fish_4.png","stimuli/tools_uppercase.png","250"
"html-button-response-mod","260","1292639","0.0-260.0","73622","","","","","","triplet","1984","","","","0","stimuli/face_uppercase.png","stimuli/tree_uppercase.png","stimuli/stim008_animate_bird_4.png","251"
"html-button-response-mod","261","1294309","0.0-261.0","73622","","","","","","triplet","1168","","","","2","stimuli/stim020_inanimate_tree_4.png","stimuli/stim019_inanimate_tree_3.png","stimuli/fish_lowercase.png","252"
"html-button-response-mod","262","1311749","0.0-262.0","73622","","","","","","triplet","16937","","","","2","stimuli/stim024_inanimate_tools_4.png","stimuli/boats_lowercase.png","stimuli/stim008_animate_bird_4.png","253"
"html-button-response-mod","263","1313539","0.0-263.0","73622","","","","","","triplet","1287.0000000002328","","","","1","stimuli/bird_uppercase.png","stimuli/stim019_inanimate_tree_3.png","stimuli/stim005_animate_bird_1.png","254"
"html-button-response-mod","264","1316454","0.0-264.0","73622","","","","","","triplet","2413","","","","0","stimuli/stim008_animate_bird_4.png","stimuli/tools_lowercase.png","stimuli/stim023_inanimate_tools_3.png","255"
"html-button-response-mod","265","1317918","0.0-265.0","73622","","","","","","triplet","962","","","","2","stimuli/stim017_inanimate_tree_1.png","stimuli/stim020_inanimate_tree_4.png","stimuli/stim008_animate_bird_4.png","256"
"html-button-response-mod","266","1320303","0.0-266.0","73622","","","","","","triplet","1884","","","","1","stimuli/stim022_inanimate_tools_2.png","stimuli/face_lowercase.png","stimuli/boats_uppercase.png","257"
"html-button-response-mod","267","1322248","0.0-267.0","73622","","","","","","triplet","1442","","","","2","stimuli/stim009_animate_face_1.png","stimuli/stim007_animate_bird_3.png","stimuli/tools_uppercase.png","258"
"html-button-response-mod","268","1325326","0.0-268.0","73622","","","","","","triplet","2574.999999999767","","","","0","stimuli/stim014_inanimate_boats_2.png","stimuli/face_lowercase.png","stimuli/bird_lowercase.png","259"
"html-button-response-mod","269","1327437","0.0-269.0","73622","","","","","","triplet","1609.9999999997672","","","","2","stimuli/face_lowercase.png","stimuli/stim018_inanimate_tree_2.png","stimuli/boats_uppercase.png","260"
"html-button-response-mod","270","1330730","0.0-270.0","73622","","","","","","triplet","2790","","","","1","stimuli/tree_uppercase.png","stimuli/stim015_inanimate_boats_3.png","stimuli/face_uppercase.png","261"
"html-button-response-mod","271","1335031","0.0-271.0","73622","","","","","","triplet","3798","","","","0","stimuli/stim022_inanimate_tools_2.png","stimuli/fish_lowercase.png","stimuli/stim019_inanimate_tree_3.png","262"
"html-button-response-mod","272","1337209","0.0-272.0","73622","","","","","","triplet","1676","","","","1","stimuli/stim009_animate_face_1.png","stimuli/fish_uppercase.png","stimuli/face_uppercase.png","263"
"html-button-response-mod","273","1339137","0.0-273.0","73622","","","","","","triplet","1426","","","","0","stimuli/stim023_inanimate_tools_3.png","stimuli/stim002_animate_fish_2.png","stimuli/stim006_animate_bird_2.png","264"
"html-button-response-mod","274","1354315","0.0-274.0","73622","","","","","","triplet","14676","","","","0","stimuli/face_lowercase.png","stimuli/fish_lowercase.png","stimuli/stim007_animate_bird_3.png","265"
"html-button-response-mod","275","1356631","0.0-275.0","73622","","","","","","triplet","1814","","","","2","stimuli/fish_uppercase.png","stimuli/stim017_inanimate_tree_1.png","stimuli/boats_uppercase.png","266"
"html-button-response-mod","276","1358986","0.0-276.0","73622","","","","","","triplet","1854","","","","2","stimuli/face_lowercase.png","stimuli/stim002_animate_fish_2.png","stimuli/stim024_inanimate_tools_4.png","267"
"html-button-response-mod","277","1360714","0.0-277.0","73622","","","","","","triplet","1226","","","","1","stimuli/stim006_animate_bird_2.png","stimuli/stim010_animate_face_2.png","stimuli/stim019_inanimate_tree_3.png","268"
"html-button-response-mod","278","1362249","0.0-278.0","73622","","","","","","triplet","1031","","","","0","stimuli/stim009_animate_face_1.png","stimuli/stim002_animate_fish_2.png","stimuli/stim010_animate_face_2.png","269"
"html-button-response-mod","279","1368608","0.0-279.0","73622","","","","","","triplet","5856","","","","2","stimuli/bird_lowercase.png","stimuli/fish_uppercase.png","stimuli/boats_lowercase.png","270"
"html-button-response-mod","280","1370274","0.0-280.0","73622","","","","","","triplet","1164","","","","0","stimuli/stim023_inanimate_tools_3.png","stimuli/stim004_animate_fish_4.png","stimuli/stim008_animate_bird_4.png","271"
"html-button-response-mod","281","1372185","0.0-281.0","73622","","","","","","triplet","1408","","","","1","stimuli/stim014_inanimate_boats_2.png","stimuli/stim023_inanimate_tools_3.png","stimuli/boats_uppercase.png","272"
"html-button-response-mod","282","1373774","0.0-282.0","73622","","","","","","triplet","1086","","","","1","stimuli/stim007_animate_bird_3.png","stimuli/stim018_inanimate_tree_2.png","stimuli/bird_lowercase.png","273"
"html-button-response-mod","283","1375240","0.0-283.0","73622","","","","","","triplet","965","","","","1","stimuli/stim020_inanimate_tree_4.png","stimuli/boats_uppercase.png","stimuli/stim018_inanimate_tree_2.png","274"
"html-button-response-mod","284","1376749","0.0-284.0","73622","","","","","","triplet","1005","","","","1","stimuli/stim016_inanimate_boats_4.png","stimuli/stim009_animate_face_1.png","stimuli/stim021_inanimate_tools_1.png","275"
"html-button-response-mod","285","1378347","0.0-285.0","73622","","","","","","triplet","1096","","","","2","stimuli/boats_uppercase.png","stimuli/stim015_inanimate_boats_3.png","stimuli/face_lowercase.png","276"
"html-button-response-mod","286","1379775","0.0-286.0","73622","","","","","","triplet","926","","","","1","stimuli/bird_uppercase.png","stimuli/stim019_inanimate_tree_3.png","stimuli/stim007_animate_bird_3.png","277"
"html-button-response-mod","287","1381865","0.0-287.0","73622","","","","","","triplet","1587","","","","0","stimuli/stim013_inanimate_boats_1.png","stimuli/fish_uppercase.png","stimuli/stim002_animate_fish_2.png","278"
"html-button-response-mod","288","1383923","0.0-288.0","73622","","","","","","triplet","1555","","","","1","stimuli/stim008_animate_bird_4.png","stimuli/stim022_inanimate_tools_2.png","stimuli/face_uppercase.png","279"
"html-button-response-mod","289","1385550","0.0-289.0","73622","","","","","","triplet","1124.0000000002328","","","","1","stimuli/stim011_animate_face_3.png","stimuli/stim021_inanimate_tools_1.png","stimuli/face_uppercase.png","280"
"html-button-response-mod","290","1387929","0.0-290.0","73622","","","","","","triplet","1877","","","","1","stimuli/stim014_inanimate_boats_2.png","stimuli/fish_uppercase.png","stimuli/tools_lowercase.png","281"
"html-button-response-mod","291","1389482","0.0-291.0","73622","","","","","","triplet","1051.0000000002328","","","","2","stimuli/stim012_animate_face_4.png","stimuli/stim009_animate_face_1.png","stimuli/stim018_inanimate_tree_2.png","282"
"html-button-response-mod","292","1391460","0.0-292.0","73622","","","","","","triplet","1474","","","","1","stimuli/stim012_animate_face_4.png","stimuli/stim016_inanimate_boats_4.png","stimuli/stim008_animate_bird_4.png","283"
"html-button-response-mod","293","1395889","0.0-293.0","73622","","","","","","triplet","3927","","","","0","stimuli/stim020_inanimate_tree_4.png","stimuli/stim001_animate_fish_1.png","stimuli/face_uppercase.png","284"
"html-button-response-mod","294","1397911","0.0-294.0","73622","","","","","","triplet","1519","","","","0","stimuli/tools_lowercase.png","stimuli/tree_uppercase.png","stimuli/stim018_inanimate_tree_2.png","285"
"html-button-response-mod","295","1402591","0.0-295.0","73622","","","","","","triplet","4177","","","","0","stimuli/stim010_animate_face_2.png","stimuli/stim018_inanimate_tree_2.png","stimuli/stim008_animate_bird_4.png","286"
"html-button-response-mod","296","1404104","0.0-296.0","73622","","","","","","triplet","1011","","","","1","stimuli/stim022_inanimate_tools_2.png","stimuli/stim010_animate_face_2.png","stimuli/stim013_inanimate_boats_1.png","287"
"html-button-response-mod","297","1406166","0.0-297.0","73622","","","","","","triplet","1559","","","","0","stimuli/stim020_inanimate_tree_4.png","stimuli/stim003_animate_fish_3.png","stimuli/stim023_inanimate_tools_3.png","288"
"html-button-response-mod","298","1408210","0.0-298.0","73622","","","","","","triplet","1541","","","","2","stimuli/stim019_inanimate_tree_3.png","stimuli/tree_lowercase.png","stimuli/face_lowercase.png","289"
"html-button-response-mod","299","1411843","0.0-299.0","73622","","","","","","triplet","3129.999999999767","","","","2","stimuli/stim018_inanimate_tree_2.png","stimuli/stim010_animate_face_2.png","stimuli/stim021_inanimate_tools_1.png","290"
"html-button-response-mod","300","1413804","0.0-300.0","73622","","","","","","triplet","1458","","","","1","stimuli/stim024_inanimate_tools_4.png","stimuli/fish_uppercase.png","stimuli/stim021_inanimate_tools_1.png","291"
"html-button-response-mod","301","1418558","0.0-301.0","73622","","","","","","triplet","4252","","","","1","stimuli/stim020_inanimate_tree_4.png","stimuli/stim005_animate_bird_1.png","stimuli/stim021_inanimate_tools_1.png","292"
"html-button-response-mod","302","1420752","0.0-302.0","73622","","","","","","triplet","1691.0000000002328","","","","2","stimuli/stim010_animate_face_2.png","stimuli/stim009_animate_face_1.png","stimuli/stim013_inanimate_boats_1.png","293"
"html-button-response-mod","303","1424213","0.0-303.0","73622","","","","","","triplet","2959.000000000233","","","","1","stimuli/stim015_inanimate_boats_3.png","stimuli/stim011_animate_face_3.png","stimuli/tools_lowercase.png","294"
"html-button-response-mod","304","1426587","0.0-304.0","73622","","","","","","triplet","1870","","","","2","stimuli/stim004_animate_fish_4.png","stimuli/stim006_animate_bird_2.png","stimuli/stim023_inanimate_tools_3.png","295"
"html-button-response-mod","305","1429331","0.0-305.0","73622","","","","","","triplet","2241.999999999767","","","","1","stimuli/stim011_animate_face_3.png","stimuli/stim004_animate_fish_4.png","stimuli/stim012_animate_face_4.png","296"
"html-button-response-mod","306","1431436","0.0-306.0","73622","","","","","","triplet","1603.0000000002328","","","","1","stimuli/boats_uppercase.png","stimuli/stim007_animate_bird_3.png","stimuli/stim022_inanimate_tools_2.png","297"
"html-button-response-mod","307","1433756","0.0-307.0","73622","","","","","","triplet","1817","","","","2","stimuli/stim016_inanimate_boats_4.png","stimuli/stim023_inanimate_tools_3.png","stimuli/stim009_animate_face_1.png","298"
"html-button-response-mod","308","1436215","0.0-308.0","73622","","","","","","triplet","1957.0000000002328","","","","0","stimuli/stim002_animate_fish_2.png","stimuli/stim022_inanimate_tools_2.png","stimuli/stim023_inanimate_tools_3.png","299"
"html-button-response","309","1438582","0.0-309.0","73622","","","","","","break","1864","<p>BREAK</p><p>Take a break for as long as you need</p><p>Click the button to continue</p>","0","","","","","",""
"html-button-response-mod","310","1441251","0.0-310.0","73622","","","","","","triplet","2665","","","","1","stimuli/stim005_animate_bird_1.png","stimuli/stim021_inanimate_tools_1.png","stimuli/stim004_animate_fish_4.png","300"
"html-button-response-mod","311","1443128","0.0-311.0","73622","","","","","","triplet","1374","","","","1","stimuli/fish_lowercase.png","stimuli/boats_uppercase.png","stimuli/stim001_animate_fish_1.png","301"
"html-button-response-mod","312","1446739","0.0-312.0","73622","","","","","","triplet","3107.999999999767","","","","0","stimuli/tools_uppercase.png","stimuli/stim001_animate_fish_1.png","stimuli/face_uppercase.png","302"
"html-button-response-mod","313","1448272","0.0-313.0","73622","","","","","","triplet","1030","","","","2","stimuli/stim002_animate_fish_2.png","stimuli/stim007_animate_bird_3.png","stimuli/stim011_animate_face_3.png","303"
"html-button-response-mod","314","1449729","0.0-314.0","73622","","","","","","triplet","954.9999999997672","","","","2","stimuli/stim018_inanimate_tree_2.png","stimuli/stim019_inanimate_tree_3.png","stimuli/fish_lowercase.png","304"
"html-button-response-mod","315","1451532","0.0-315.0","73622","","","","","","triplet","1299","","","","1","stimuli/stim022_inanimate_tools_2.png","stimuli/stim008_animate_bird_4.png","stimuli/stim023_inanimate_tools_3.png","305"
"html-button-response-mod","316","1475953","0.0-316.0","73622","","","","","","triplet","23917.999999999767","","","","2","stimuli/bird_lowercase.png","stimuli/face_lowercase.png","stimuli/stim015_inanimate_boats_3.png","306"
"html-button-response-mod","317","1477869","0.0-317.0","73622","","","","","","triplet","1413","","","","0","stimuli/tree_uppercase.png","stimuli/stim002_animate_fish_2.png","stimuli/stim008_animate_bird_4.png","307"
"html-button-response-mod","318","1483850","0.0-318.0","73622","","","","","","triplet","5478","","","","2","stimuli/tree_uppercase.png","stimuli/stim005_animate_bird_1.png","stimuli/face_uppercase.png","308"
"html-button-response-mod","319","1485398","0.0-319.0","73622","","","","","","triplet","1046","","","","2","stimuli/stim006_animate_bird_2.png","stimuli/stim002_animate_fish_2.png","stimuli/stim014_inanimate_boats_2.png","309"
"html-button-response-mod","320","1487681","0.0-320.0","73622","","","","","","triplet","1779.9999999997672","","","","2","stimuli/tools_uppercase.png","stimuli/stim023_inanimate_tools_3.png","stimuli/stim014_inanimate_boats_2.png","310"
"html-button-response-mod","321","1490667","0.0-321.0","73622","","","","","","triplet","2484","","","","2","stimuli/stim019_inanimate_tree_3.png","stimuli/stim007_animate_bird_3.png","stimuli/tools_uppercase.png","311"
"html-button-response-mod","322","1493068","0.0-322.0","73622","","","","","","triplet","1898","","","","0","stimuli/stim004_animate_fish_4.png","stimuli/face_lowercase.png","stimuli/stim009_animate_face_1.png","312"
"html-button-response-mod","323","1495226","0.0-323.0","73622","","","","","","triplet","1655","","","","0","stimuli/stim022_inanimate_tools_2.png","stimuli/stim009_animate_face_1.png","stimuli/face_lowercase.png","313"
"html-button-response-mod","324","1496857","0.0-324.0","73622","","","","","","triplet","1128.9999999997672","","","","1","stimuli/stim002_animate_fish_2.png","stimuli/stim011_animate_face_3.png","stimuli/fish_uppercase.png","314"
"html-button-response-mod","325","1499230","0.0-325.0","73622","","","","","","triplet","1871","","","","2","stimuli/stim011_animate_face_3.png","stimuli/boats_lowercase.png","stimuli/stim022_inanimate_tools_2.png","315"
"html-button-response-mod","326","1501093","0.0-326.0","73622","","","","","","triplet","1361.0000000002328","","","","2","stimuli/stim014_inanimate_boats_2.png","stimuli/stim003_animate_fish_3.png","stimuli/stim012_animate_face_4.png","316"
"html-button-response-mod","327","1503450","0.0-327.0","73622","","","","","","triplet","1855","","","","1","stimuli/stim007_animate_bird_3.png","stimuli/tools_uppercase.png","stimuli/stim002_animate_fish_2.png","317"
"html-button-response-mod","328","1506187","0.0-328.0","73622","","","","","","triplet","2235","","","","1","stimuli/face_lowercase.png","stimuli/boats_uppercase.png","stimuli/stim010_animate_face_2.png","318"
"html-button-response-mod","329","1507618","0.0-329.0","73622","","","","","","triplet","930","","","","1","stimuli/stim022_inanimate_tools_2.png","stimuli/stim010_animate_face_2.png","stimuli/stim021_inanimate_tools_1.png","319"
"html-button-response-mod","330","1510482","0.0-330.0","73622","","","","","","triplet","2361","","","","0","stimuli/stim016_inanimate_boats_4.png","stimuli/tree_lowercase.png","stimuli/face_lowercase.png","320"
"html-button-response-mod","331","1512036","0.0-331.0","73622","","","","","","triplet","1052.0000000002328","","","","1","stimuli/stim010_animate_face_2.png","stimuli/bird_uppercase.png","stimuli/stim009_animate_face_1.png","321"
"html-button-response-mod","332","1513971","0.0-332.0","73622","","","","","","triplet","1434","","","","1","stimuli/stim012_animate_face_4.png","stimuli/tools_lowercase.png","stimuli/face_lowercase.png","322"
"html-button-response-mod","333","1518331","0.0-333.0","73622","","","","","","triplet","3857","","","","1","stimuli/stim004_animate_fish_4.png","stimuli/stim016_inanimate_boats_4.png","stimuli/tree_lowercase.png","323"
"html-button-response-mod","334","1520058","0.0-334.0","73622","","","","","","triplet","1223.9999999997672","","","","1","stimuli/stim016_inanimate_boats_4.png","stimuli/tree_lowercase.png","stimuli/stim023_inanimate_tools_3.png","324"
"html-button-response-mod","335","1522762","0.0-335.0","73622","","","","","","triplet","2200","","","","1","stimuli/stim007_animate_bird_3.png","stimuli/stim012_animate_face_4.png","stimuli/boats_lowercase.png","325"
"html-button-response-mod","336","1524390","0.0-336.0","73622","","","","","","triplet","1127","","","","1","stimuli/stim009_animate_face_1.png","stimuli/tree_lowercase.png","stimuli/stim011_animate_face_3.png","326"
"html-button-response-mod","337","1526110","0.0-337.0","73622","","","","","","triplet","1217.9999999997672","","","","1","stimuli/stim010_animate_face_2.png","stimuli/stim016_inanimate_boats_4.png","stimuli/face_uppercase.png","327"
"html-button-response-mod","338","1528071","0.0-338.0","73622","","","","","","triplet","1457.9999999997672","","","","0","stimuli/stim023_inanimate_tools_3.png","stimuli/fish_uppercase.png","stimuli/stim018_inanimate_tree_2.png","328"
"html-button-response-mod","339","1530466","0.0-339.0","73622","","","","","","triplet","1890.9999999997672","","","","0","stimuli/tools_lowercase.png","stimuli/stim002_animate_fish_2.png","stimuli/stim020_inanimate_tree_4.png","329"
"html-button-response-mod","340","1533186","0.0-340.0","73622","","","","","","triplet","2217.999999999767","","","","2","stimuli/tools_lowercase.png","stimuli/boats_uppercase.png","stimuli/stim010_animate_face_2.png","330"
"html-button-response-mod","341","1535840","0.0-341.0","73622","","","","","","triplet","2152","","","","2","stimuli/fish_uppercase.png","stimuli/stim020_inanimate_tree_4.png","stimuli/stim016_inanimate_boats_4.png","331"
"html-button-response-mod","342","1539215","0.0-342.0","73622","","","","","","triplet","2871.999999999767","","","","0","stimuli/stim017_inanimate_tree_1.png","stimuli/tools_uppercase.png","stimuli/stim015_inanimate_boats_3.png","332"
"html-button-response-mod","343","1545404","0.0-343.0","73622","","","","","","triplet","5686","","","","1","stimuli/stim020_inanimate_tree_4.png","stimuli/stim015_inanimate_boats_3.png","stimuli/stim008_animate_bird_4.png","333"
"html-button-response-mod","344","1547938","0.0-344.0","73622","","","","","","triplet","2030","","","","2","stimuli/stim016_inanimate_boats_4.png","stimuli/stim023_inanimate_tools_3.png","stimuli/tree_uppercase.png","334"
"html-button-response-mod","345","1550207","0.0-345.0","73622","","","","","","triplet","1766.9999999997672","","","","2","stimuli/stim003_animate_fish_3.png","stimuli/tree_uppercase.png","stimuli/boats_uppercase.png","335"
"html-button-response-mod","346","1552727","0.0-346.0","73622","","","","","","triplet","2017.9999999997672","","","","0","stimuli/stim022_inanimate_tools_2.png","stimuli/fish_uppercase.png","stimuli/face_lowercase.png","336"
"html-button-response-mod","347","1560673","0.0-347.0","73622","","","","","","triplet","7442","","","","0","stimuli/stim019_inanimate_tree_3.png","stimuli/stim021_inanimate_tools_1.png","stimuli/stim014_inanimate_boats_2.png","337"
"html-button-response-mod","348","1566806","0.0-348.0","73622","","","","","","triplet","5630.000000000233","","","","1","stimuli/stim018_inanimate_tree_2.png","stimuli/tools_uppercase.png","stimuli/stim005_animate_bird_1.png","338"
"html-button-response-mod","349","1568511","0.0-349.0","73622","","","","","","triplet","1203","","","","1","stimuli/stim008_animate_bird_4.png","stimuli/stim021_inanimate_tools_1.png","stimuli/stim004_animate_fish_4.png","339"
"html-button-response-mod","350","1569999","0.0-350.0","73622","","","","","","triplet","985","","","","1","stimuli/stim008_animate_bird_4.png","stimuli/tools_uppercase.png","stimuli/stim007_animate_bird_3.png","340"
"html-button-response-mod","351","1571679","0.0-351.0","73622","","","","","","triplet","1178","","","","0","stimuli/stim004_animate_fish_4.png","stimuli/stim014_inanimate_boats_2.png","stimuli/stim015_inanimate_boats_3.png","341"
"html-button-response-mod","352","1573237","0.0-352.0","73622","","","","","","triplet","1055","","","","2","stimuli/stim008_animate_bird_4.png","stimuli/stim007_animate_bird_3.png","stimuli/stim012_animate_face_4.png","342"
"html-button-response-mod","353","1593748","0.0-353.0","73622","","","","","","triplet","20010","","","","1","stimuli/stim015_inanimate_boats_3.png","stimuli/stim018_inanimate_tree_2.png","stimuli/stim004_animate_fish_4.png","343"
"html-button-response-mod","354","1595478","0.0-354.0","73622","","","","","","triplet","1227","","","","1","stimuli/face_lowercase.png","stimuli/tree_lowercase.png","stimuli/stim012_animate_face_4.png","344"
"html-button-response-mod","355","1598437","0.0-355.0","73622","","","","","","triplet","2457.999999999767","","","","2","stimuli/stim002_animate_fish_2.png","stimuli/face_lowercase.png","stimuli/stim020_inanimate_tree_4.png","345"
"html-button-response-mod","356","1600399","0.0-356.0","73622","","","","","","triplet","1460","","","","2","stimuli/boats_lowercase.png","stimuli/stim016_inanimate_boats_4.png","stimuli/stim007_animate_bird_3.png","346"
"html-button-response-mod","357","1602174","0.0-357.0","73622","","","","","","triplet","1272","","","","0","stimuli/boats_uppercase.png","stimuli/stim010_animate_face_2.png","stimuli/stim012_animate_face_4.png","347"
"html-button-response-mod","358","1605120","0.0-358.0","73622","","","","","","triplet","2444","","","","2","stimuli/stim019_inanimate_tree_3.png","stimuli/stim009_animate_face_1.png","stimuli/tools_uppercase.png","348"
"html-button-response-mod","359","1606646","0.0-359.0","73622","","","","","","triplet","1023","","","","1","stimuli/stim023_inanimate_tools_3.png","stimuli/stim018_inanimate_tree_2.png","stimuli/stim021_inanimate_tools_1.png","349"
"html-button-response","360","1608167","0.0-360.0","73622","","","","","","break","1018","<p>BREAK</p><p>Take a break for as long as you need</p><p>Click the button to continue</p>","0","","","","","",""
"html-button-response-mod","361","1610479","0.0-361.0","73622","","","","","","triplet","2309","","","","2","stimuli/stim007_animate_bird_3.png","stimuli/stim009_animate_face_1.png","stimuli/stim014_inanimate_boats_2.png","350"
"html-button-response-mod","362","1612841","0.0-362.0","73622","","","","","","triplet","1859","","","","0","stimuli/stim020_inanimate_tree_4.png","stimuli/bird_lowercase.png","stimuli/fish_lowercase.png","351"
"html-button-response-mod","363","1634422","0.0-363.0","73622","","","","","","triplet","21077","","","","0","stimuli/tools_lowercase.png","stimuli/bird_lowercase.png","stimuli/face_lowercase.png","352"
"html-button-response-mod","364","1636717","0.0-364.0","73622","","","","","","triplet","1793","","","","0","stimuli/fish_uppercase.png","stimuli/stim022_inanimate_tools_2.png","stimuli/tools_lowercase.png","353"
"html-button-response-mod","365","1642969","0.0-365.0","73622","","","","","","triplet","5748","","","","1","stimuli/stim015_inanimate_boats_3.png","stimuli/stim006_animate_bird_2.png","stimuli/stim022_inanimate_tools_2.png","354"
"html-button-response-mod","366","1644833","0.0-366.0","73622","","","","","","triplet","1361","","","","1","stimuli/face_uppercase.png","stimuli/fish_lowercase.png","stimuli/stim009_animate_face_1.png","355"
"html-button-response-mod","367","1647244","0.0-367.0","73622","","","","","","triplet","1909","","","","0","stimuli/stim019_inanimate_tree_3.png","stimuli/stim004_animate_fish_4.png","stimuli/stim008_animate_bird_4.png","356"
"html-button-response-mod","368","1649906","0.0-368.0","73622","","","","","","triplet","2159","","","","1","stimuli/bird_lowercase.png","stimuli/stim020_inanimate_tree_4.png","stimuli/stim001_animate_fish_1.png","357"
"html-button-response-mod","369","1658995","0.0-369.0","73622","","","","","","triplet","8586","","","","2","stimuli/stim016_inanimate_boats_4.png","stimuli/boats_uppercase.png","stimuli/stim024_inanimate_tools_4.png","358"
"html-button-response-mod","370","1703142","0.0-370.0","73622","","","","","","triplet","43645","","","","2","stimuli/stim010_animate_face_2.png","stimuli/stim019_inanimate_tree_3.png","stimuli/stim023_inanimate_tools_3.png","359"
"html-button-response-mod","371","1710365","0.0-371.0","73622","","","","","","triplet","6721","","","","0","stimuli/stim022_inanimate_tools_2.png","stimuli/stim017_inanimate_tree_1.png","stimuli/face_lowercase.png","360"
"html-button-response-mod","372","1713610","0.0-372.0","73622","","","","","","triplet","2743","","","","1","stimuli/tree_uppercase.png","stimuli/stim021_inanimate_tools_1.png","stimuli/stim005_animate_bird_1.png","361"
"html-button-response-mod","373","1718120","0.0-373.0","73622","","","","","","triplet","4007","","","","2","stimuli/bird_uppercase.png","stimuli/fish_lowercase.png","stimuli/tree_lowercase.png","362"
"html-button-response-mod","374","1719623","0.0-374.0","73622","","","","","","triplet","1000","","","","2","stimuli/stim017_inanimate_tree_1.png","stimuli/stim018_inanimate_tree_2.png","stimuli/fish_lowercase.png","363"
"html-button-response-mod","375","1722068","0.0-375.0","73622","","","","","","triplet","1943","","","","0","stimuli/face_lowercase.png","stimuli/bird_lowercase.png","stimuli/stim003_animate_fish_3.png","364"
"html-button-response-mod","376","1724061","0.0-376.0","73622","","","","","","triplet","1491","","","","0","stimuli/stim022_inanimate_tools_2.png","stimuli/tree_lowercase.png","stimuli/face_uppercase.png","365"
"html-button-response-mod","377","1725753","0.0-377.0","73622","","","","","","triplet","1189","","","","0","stimuli/stim013_inanimate_boats_1.png","stimuli/stim009_animate_face_1.png","stimuli/stim006_animate_bird_2.png","366"
"html-button-response-mod","378","1727432","0.0-378.0","73622","","","","","","triplet","1177.0000000002328","","","","1","stimuli/bird_uppercase.png","stimuli/stim021_inanimate_tools_1.png","stimuli/fish_uppercase.png","367"
"html-button-response-mod","379","1731990","0.0-379.0","73622","","","","","","triplet","4054.000000000233","","","","1","stimuli/stim016_inanimate_boats_4.png","stimuli/tree_uppercase.png","stimuli/stim002_animate_fish_2.png","368"
"html-button-response-mod","380","1734383","0.0-380.0","73622","","","","","","triplet","1890","","","","1","stimuli/stim007_animate_bird_3.png","stimuli/stim012_animate_face_4.png","stimuli/stim001_animate_fish_1.png","369"
"html-button-response-mod","381","1736432","0.0-381.0","73622","","","","","","triplet","1546","","","","0","stimuli/stim014_inanimate_boats_2.png","stimuli/face_lowercase.png","stimuli/tree_lowercase.png","370"
"html-button-response-mod","382","1749020","0.0-382.0","73622","","","","","","triplet","12085.000000000233","","","","1","stimuli/stim003_animate_fish_3.png","stimuli/boats_uppercase.png","stimuli/stim017_inanimate_tree_1.png","371"
"html-button-response-mod","383","1751087","0.0-383.0","73622","","","","","","triplet","1565.0000000002328","","","","0","stimuli/stim003_animate_fish_3.png","stimuli/stim021_inanimate_tools_1.png","stimuli/stim013_inanimate_boats_1.png","372"
"html-button-response-mod","384","1756417","0.0-384.0","73622","","","","","","triplet","4828","","","","1","stimuli/stim017_inanimate_tree_1.png","stimuli/boats_uppercase.png","stimuli/stim008_animate_bird_4.png","373"
"html-button-response-mod","385","1761209","0.0-385.0","73622","","","","","","triplet","4289","","","","1","stimuli/stim013_inanimate_boats_1.png","stimuli/stim004_animate_fish_4.png","stimuli/stim023_inanimate_tools_3.png","374"
"html-button-response-mod","386","1766445","0.0-386.0","73622","","","","","","triplet","4733.999999999767","","","","2","stimuli/stim014_inanimate_boats_2.png","stimuli/boats_lowercase.png","stimuli/stim002_animate_fish_2.png","375"
"html-button-response-mod","387","1768647","0.0-387.0","73622","","","","","","triplet","1701","","","","0","stimuli/stim020_inanimate_tree_4.png","stimuli/tree_lowercase.png","stimuli/tree_uppercase.png","376"
"html-button-response-mod","388","1771265","0.0-388.0","73622","","","","","","triplet","2115","","","","2","stimuli/stim006_animate_bird_2.png","stimuli/tree_uppercase.png","stimuli/stim015_inanimate_boats_3.png","377"
"html-button-response-mod","389","1772768","0.0-389.0","73622","","","","","","triplet","999","","","","1","stimuli/stim015_inanimate_boats_3.png","stimuli/bird_lowercase.png","stimuli/stim016_inanimate_boats_4.png","378"
"html-button-response-mod","390","1774889","0.0-390.0","73622","","","","","","triplet","1617.9999999997672","","","","2","stimuli/stim011_animate_face_3.png","stimuli/stim012_animate_face_4.png","stimuli/stim001_animate_fish_1.png","379"
"html-button-response-mod","391","1779053","0.0-391.0","73622","","","","","","triplet","3660","","","","2","stimuli/stim008_animate_bird_4.png","stimuli/stim005_animate_bird_1.png","stimuli/stim007_animate_bird_3.png","380"
"html-button-response-mod","392","1784662","0.0-392.0","73622","","","","","","triplet","5107","","","","1","stimuli/stim011_animate_face_3.png","stimuli/boats_lowercase.png","stimuli/stim003_animate_fish_3.png","381"
"html-button-response-mod","393","1786793","0.0-393.0","73622","","","","","","triplet","1627.9999999997672","","","","0","stimuli/stim012_animate_face_4.png","stimuli/fish_uppercase.png","stimuli/boats_uppercase.png","382"
"html-button-response-mod","394","1790924","0.0-394.0","73622","","","","","","triplet","3628.000000000233","","","","2","stimuli/stim008_animate_bird_4.png","stimuli/face_uppercase.png","stimuli/stim014_inanimate_boats_2.png","383"
"html-button-response-mod","395","1793991","0.0-395.0","73622","","","","","","triplet","2564.000000000233","","","","1","stimuli/stim012_animate_face_4.png","stimuli/boats_uppercase.png","stimuli/stim017_inanimate_tree_1.png","384"
"html-button-response-mod","396","1797698","0.0-396.0","73622","","","","","","triplet","3204","","","","2","stimuli/stim012_animate_face_4.png","stimuli/face_lowercase.png","stimuli/stim003_animate_fish_3.png","385"
"html-button-response-mod","397","1801560","0.0-397.0","73622","","","","","","triplet","3359","","","","1","stimuli/face_uppercase.png","stimuli/stim013_inanimate_boats_1.png","stimuli/stim012_animate_face_4.png","386"
"html-button-response-mod","398","1803421","0.0-398.0","73622","","","","","","triplet","1358","","","","0","stimuli/tools_uppercase.png","stimuli/face_lowercase.png","stimuli/face_uppercase.png","387"
"html-button-response-mod","399","1805135","0.0-399.0","73622","","","","","","triplet","1212.0000000002328","","","","1","stimuli/stim010_animate_face_2.png","stimuli/stim021_inanimate_tools_1.png","stimuli/stim011_animate_face_3.png","388"
"html-button-response-mod","400","1807096","0.0-400.0","73622","","","","","","triplet","1458","","","","2","stimuli/bird_lowercase.png","stimuli/stim002_animate_fish_2.png","stimuli/stim019_inanimate_tree_3.png","389"
"html-button-response-mod","401","1809913","0.0-401.0","73622","","","","","","triplet","2315","","","","0","stimuli/stim017_inanimate_tree_1.png","stimuli/stim024_inanimate_tools_4.png","stimuli/tools_lowercase.png","390"
"html-button-response-mod","402","1811874","0.0-402.0","73622","","","","","","triplet","1458","","","","0","stimuli/stim020_inanimate_tree_4.png","stimuli/stim012_animate_face_4.png","stimuli/bird_uppercase.png","391"
"html-button-response-mod","403","1814497","0.0-403.0","73622","","","","","","triplet","2120","","","","1","stimuli/fish_uppercase.png","stimuli/stim011_animate_face_3.png","stimuli/stim005_animate_bird_1.png","392"
"html-button-response-mod","404","1816763","0.0-404.0","73622","","","","","","triplet","1763","","","","0","stimuli/stim009_animate_face_1.png","stimuli/stim013_inanimate_boats_1.png","stimuli/stim023_inanimate_tools_3.png","393"
"html-button-response-mod","405","1821090","0.0-405.0","73622","","","","","","triplet","3824","","","","2","stimuli/stim001_animate_fish_1.png","stimuli/boats_uppercase.png","stimuli/tree_lowercase.png","394"
"html-button-response-mod","406","1823752","0.0-406.0","73622","","","","","","triplet","2159","","","","2","stimuli/stim023_inanimate_tools_3.png","stimuli/stim014_inanimate_boats_2.png","stimuli/stim017_inanimate_tree_1.png","395"
"html-button-response-mod","407","1825598","0.0-407.0","73622","","","","","","triplet","1343","","","","2","stimuli/stim003_animate_fish_3.png","stimuli/stim021_inanimate_tools_1.png","stimuli/stim009_animate_face_1.png","396"
"html-button-response-mod","408","1828292","0.0-408.0","73622","","","","","","triplet","2191","","","","2","stimuli/stim003_animate_fish_3.png","stimuli/stim004_animate_fish_4.png","stimuli/stim023_inanimate_tools_3.png","397"
"html-button-response-mod","409","1829909","0.0-409.0","73622","","","","","","triplet","1114","","","","0","stimuli/stim018_inanimate_tree_2.png","stimuli/stim024_inanimate_tools_4.png","stimuli/stim023_inanimate_tools_3.png","398"
"html-button-response-mod","410","1851553","0.0-410.0","73622","","","","","","triplet","21140","","","","0","stimuli/stim024_inanimate_tools_4.png","stimuli/boats_uppercase.png","stimuli/stim004_animate_fish_4.png","399"
"html-button-response","411","1853225","0.0-411.0","73622","","","","","","break","1169","<p>BREAK</p><p>Take a break for as long as you need</p><p>Click the button to continue</p>","0","","","","","",""
"survey-text","412","1862746","0.0-412.0","73622","","","","","","data_patterns","9515","","{""Q0"":""alive v inanimate""}","","","","","",""
"survey-text","413","1865594","0.0-413.0","73622","","","","","","age_question","2839","","{""Age"":""18""}","","","","","",""
"html-button-response","414","1866918","0.0-414.0","73622","","","","","","gender_question","1322","How would you like your gender to be recorded?","1","","","","","",""
"html-button-response","415","1868796","0.0-415.0","73622","","","","","","debrief","1876","<p> Thank you for participating in this experiment! </p><p> We are investigating the dimensions along which you perceive the world </p><p>The images were all sorted according to whether they are animate or not, and </p><p> whether they are text or images. We are comparing this to some neuroimaging data to see </p> how your conscious classification relates to how your brain classifies the objects automatically. </p>","0","1871775","","","","",""
