"trial_type","trial_index","time_elapsed","internal_node_id","subject","success","timeout","failed_images","failed_audio","failed_video","test_part","rt","stimulus","response","end_time","button_pressed","stim0","stim1","stim2","trialnr"
"pavlovia","0","9","0.0-0.0","76283","","","","","","","","","","","","","","",""
"preload","1","49","0.0-1.0","76283","true","false","[]","[]","[]","preload","","","","","","","","",""
"html-button-response","2","4744","0.0-2.0","76283","","","","","","","4693.900000000023","<p>Welcome to the experiment. To begin, please read the following and press the button at the bottom of the screen.</p><p></p><p><strong>Project Name: A study on cognitive processes involved in visual perception</p></strong><p></p><p><strong>PARTICIPANT INFORMATION STATEMENT</strong></p><p></p><strong>(1) What is the study about?</strong><br>You are invited to participate in a study that investigates the cognitive processes involved in perceiving and recognizing visual stimuli.If you decide to participate, you will be asked to complete a task in which you will view pictures, letters, numbers, or words presented on a computer screen.<br><strong>(2) Who can participate?</strong><br>Anyone aged 18 years or over with access to a computer (not a phone/tablet)<br><strong>(3) Where is the study located?</strong><br>The study will be conducted in your browser<br><strong>(4) Who is carrying out the study?</strong><br>The study is being conducted by Sophia Shatek from the Computational Cognitive Neuroscience laboratory at the University of Sydney.<br><strong>(5) What does the study involve?</strong><br>In this study, you will be asked to perform tasks where you will see different stimuli appear on the computer screen.You will respond by pressing a key or using a computer mouse.<br><strong>(6) How much time will the study take?</strong><br>The study takes about 30 minutes<br><strong>(7)	Can I withdraw from the study?</strong><br>Being in this study is completely voluntary - you are not under any obligation to consent. You can withdraw at any time without having to give a reason and without penalty.<br><strong>(8) Will anyone else know the results?</strong><br>All aspects of the study, including results, will be strictly confidential and only the researchers will have access to information on participants.The results and data from the study may be submitted for publication or shared with other research labs, but individual participants will not be identifiable.<br><strong>(9) Will the study benefit me?</strong><br>You will be awarded 0.5 credits for your participation.<br><strong>(10) Can I tell other people about the study?</strong><br>Yes, please tell them to contact Dr Thomas Carlson by email at thomas.carlson@sydney.edu.au.<br><strong>(11) What if I require further information about the study or my involvement in it?</strong><br>When you have read this information, the investigator will discuss it with you further and answer any questions you may have.If you would like to know more at any stage, please feel free to contact Dr Thomas Carlson directly by email at thomas.carlson@sydney.edu.au.If you would like to be informed about the outcomes of the study, contact Dr Thomas Carlson directly by email at thomas.carlson@sydney.edu.au.<br><strong>(12) What if I have a complaint or any concerns?</strong><br>Any person with concerns or complaints about the conduct of a research study can contact The Manager,Human Ethics Administration, University of Sydney on +61 2 8627 8176 (Telephone); +61 2 8627 8177 (Facsimile) or ro.humanethics@sydney.edu.au (Email).</p><p></p><strong>By participating in this experiment, you consent to participate in this study and acknowledge that:</strong><br>1. The procedures required for the project and the times involved have been explained to me, and any questions I have about the project have been answered to my satisfaction.<br>2.	I have read the Above Information Statement and have been given the opportunity to discuss the information and my involvement in the project with the researcher/s.<br>3. I understand that allowing my data to be used in research reports is completely voluntary - I am not under any obligation to consent.<br>4. I understand that my involvement is strictly confidential. I understand that any research data gathered from the results of the study may be publishedhowever no information about me will be used in any way that is identifiable.</p><p></p>","0","","","","","",""
"html-button-response","3","28880","0.0-3.0","76283","","","","","","opening_instructions","24134.29999999993","<p>In this experiment, you will see three images appear on the screen.</p><p>You need to click the 'odd one out', or the image </p><p>that is MOST CONCEPTUALLY DIFFERENT to the other two. </p><p>(e.g., the word 'tree' and a picture of a tree are conceptually SIMILAR, </p><p> but the word 'tree' and the word 'boat' are conceptually DIFFERENT even though they look similar) </p><p>Just go with your intuition, don't spend too long thinking about each one.</p>","0","29281.900000000023","","","","",""
"html-button-response-mod","4","35560","0.0-4.0","76283","","","","","","triplet","6676.400000000023","","","","0","stimuli/stim021_inanimate_tools_1.png","stimuli/stim013_inanimate_boats_1.png","stimuli/stim003_animate_fish_3.png","0"
"html-button-response-mod","5","42393","0.0-5.0","76283","","","","","","triplet","6313.900000000023","","","","2","stimuli/boats_uppercase.png","stimuli/stim023_inanimate_tools_3.png","stimuli/bird_lowercase.png","1"
"html-button-response-mod","6","48796","0.0-6.0","76283","","","","","","triplet","5894.29999999993","","","","2","stimuli/tools_lowercase.png","stimuli/stim015_inanimate_boats_3.png","stimuli/stim020_inanimate_tree_4.png","2"
"html-button-response-mod","7","54164","0.0-7.0","76283","","","","","","triplet","4857.5","","","","2","stimuli/stim009_animate_face_1.png","stimuli/fish_uppercase.png","stimuli/stim017_inanimate_tree_1.png","3"
"html-button-response-mod","8","56633","0.0-8.0","76283","","","","","","triplet","1966.3000000000466","","","","1","stimuli/stim009_animate_face_1.png","stimuli/stim023_inanimate_tools_3.png","stimuli/bird_uppercase.png","4"
"html-button-response-mod","9","62745","0.0-9.0","76283","","","","","","triplet","5592.5","","","","1","stimuli/stim003_animate_fish_3.png","stimuli/stim012_animate_face_4.png","stimuli/bird_lowercase.png","5"
"html-button-response-mod","10","64833","0.0-10.0","76283","","","","","","triplet","1576.6999999999534","","","","2","stimuli/bird_lowercase.png","stimuli/stim008_animate_bird_4.png","stimuli/stim024_inanimate_tools_4.png","6"
"html-button-response-mod","11","66773","0.0-11.0","76283","","","","","","triplet","1434.4000000000233","","","","1","stimuli/stim012_animate_face_4.png","stimuli/stim021_inanimate_tools_1.png","stimuli/stim019_inanimate_tree_3.png","7"
"html-button-response-mod","12","69320","0.0-12.0","76283","","","","","","triplet","2020.9000000000233","","","","0","stimuli/tools_uppercase.png","stimuli/stim006_animate_bird_2.png","stimuli/stim018_inanimate_tree_2.png","8"
"html-button-response-mod","13","72377","0.0-13.0","76283","","","","","","triplet","2546.20000000007","","","","0","stimuli/stim013_inanimate_boats_1.png","stimuli/stim022_inanimate_tools_2.png","stimuli/stim024_inanimate_tools_4.png","9"
"html-button-response-mod","14","74143","0.0-14.0","76283","","","","","","triplet","1248.7999999999302","","","","0","stimuli/stim024_inanimate_tools_4.png","stimuli/stim007_animate_bird_3.png","stimuli/stim010_animate_face_2.png","10"
"html-button-response-mod","15","76064","0.0-15.0","76283","","","","","","triplet","1399","","","","1","stimuli/stim015_inanimate_boats_3.png","stimuli/fish_uppercase.png","stimuli/stim014_inanimate_boats_2.png","11"
"html-button-response-mod","16","78329","0.0-16.0","76283","","","","","","triplet","1761.0999999999767","","","","0","stimuli/tree_uppercase.png","stimuli/stim011_animate_face_3.png","stimuli/face_lowercase.png","12"
"html-button-response-mod","17","91409","0.0-17.0","76283","","","","","","triplet","12574.400000000023","","","","0","stimuli/tree_lowercase.png","stimuli/tools_lowercase.png","stimuli/boats_uppercase.png","13"
"html-button-response-mod","18","94175","0.0-18.0","76283","","","","","","triplet","2249.5999999999767","","","","1","stimuli/stim004_animate_fish_4.png","stimuli/boats_lowercase.png","stimuli/face_lowercase.png","14"
"html-button-response-mod","19","96704","0.0-19.0","76283","","","","","","triplet","2009.7999999999302","","","","2","stimuli/bird_uppercase.png","stimuli/fish_lowercase.png","stimuli/tree_uppercase.png","15"
"html-button-response-mod","20","98630","0.0-20.0","76283","","","","","","triplet","1413.2000000000698","","","","1","stimuli/tree_uppercase.png","stimuli/stim024_inanimate_tools_4.png","stimuli/face_uppercase.png","16"
"html-button-response-mod","21","101867","0.0-21.0","76283","","","","","","triplet","2717.8000000000466","","","","1","stimuli/face_uppercase.png","stimuli/boats_lowercase.png","stimuli/fish_uppercase.png","17"
"html-button-response-mod","22","103792","0.0-22.0","76283","","","","","","triplet","1416.2000000000698","","","","2","stimuli/stim004_animate_fish_4.png","stimuli/stim003_animate_fish_3.png","stimuli/stim019_inanimate_tree_3.png","18"
"html-button-response-mod","23","106056","0.0-23.0","76283","","","","","","triplet","1749.0999999999767","","","","1","stimuli/stim007_animate_bird_3.png","stimuli/boats_uppercase.png","stimuli/stim018_inanimate_tree_2.png","19"
"html-button-response-mod","24","108656","0.0-24.0","76283","","","","","","triplet","2084.4000000000233","","","","2","stimuli/fish_uppercase.png","stimuli/face_lowercase.png","stimuli/stim013_inanimate_boats_1.png","20"
"html-button-response-mod","25","111104","0.0-25.0","76283","","","","","","triplet","1931.8000000000466","","","","0","stimuli/stim002_animate_fish_2.png","stimuli/stim012_animate_face_4.png","stimuli/face_lowercase.png","21"
"html-button-response-mod","26","113648","0.0-26.0","76283","","","","","","triplet","2029.3000000000466","","","","1","stimuli/tree_uppercase.png","stimuli/tools_uppercase.png","stimuli/tree_lowercase.png","22"
"html-button-response-mod","27","115352","0.0-27.0","76283","","","","","","triplet","1191.2000000000698","","","","1","stimuli/stim017_inanimate_tree_1.png","stimuli/stim023_inanimate_tools_3.png","stimuli/stim005_animate_bird_1.png","23"
"html-button-response-mod","28","118353","0.0-28.0","76283","","","","","","triplet","2482.5","","","","0","stimuli/fish_lowercase.png","stimuli/boats_uppercase.png","stimuli/boats_lowercase.png","24"
"html-button-response-mod","29","120629","0.0-29.0","76283","","","","","","triplet","1759.3000000000466","","","","1","stimuli/stim008_animate_bird_4.png","stimuli/stim015_inanimate_boats_3.png","stimuli/stim018_inanimate_tree_2.png","25"
"html-button-response-mod","30","124936","0.0-30.0","76283","","","","","","triplet","3793.9000000000233","","","","0","stimuli/stim007_animate_bird_3.png","stimuli/stim021_inanimate_tools_1.png","stimuli/boats_lowercase.png","26"
"html-button-response-mod","31","127954","0.0-31.0","76283","","","","","","triplet","2501.1999999999534","","","","0","stimuli/stim009_animate_face_1.png","stimuli/fish_lowercase.png","stimuli/bird_lowercase.png","27"
"html-button-response-mod","32","129656","0.0-32.0","76283","","","","","","triplet","1198.0999999999767","","","","2","stimuli/fish_uppercase.png","stimuli/fish_lowercase.png","stimuli/stim022_inanimate_tools_2.png","28"
"html-button-response-mod","33","131780","0.0-33.0","76283","","","","","","triplet","1621.0999999999767","","","","2","stimuli/stim012_animate_face_4.png","stimuli/fish_lowercase.png","stimuli/boats_uppercase.png","29"
"html-button-response-mod","34","134040","0.0-34.0","76283","","","","","","triplet","1748.2000000000698","","","","0","stimuli/stim001_animate_fish_1.png","stimuli/bird_uppercase.png","stimuli/bird_lowercase.png","30"
"html-button-response-mod","35","136028","0.0-35.0","76283","","","","","","triplet","1485.2000000000698","","","","1","stimuli/fish_uppercase.png","stimuli/stim015_inanimate_boats_3.png","stimuli/stim011_animate_face_3.png","31"
"html-button-response-mod","36","138264","0.0-36.0","76283","","","","","","triplet","1725.9000000000233","","","","1","stimuli/stim014_inanimate_boats_2.png","stimuli/stim005_animate_bird_1.png","stimuli/stim021_inanimate_tools_1.png","32"
"html-button-response-mod","37","139736","0.0-37.0","76283","","","","","","triplet","968.8000000000466","","","","2","stimuli/stim003_animate_fish_3.png","stimuli/stim005_animate_bird_1.png","stimuli/stim021_inanimate_tools_1.png","33"
"html-button-response-mod","38","142564","0.0-38.0","76283","","","","","","triplet","2321.70000000007","","","","1","stimuli/stim016_inanimate_boats_4.png","stimuli/face_uppercase.png","stimuli/stim013_inanimate_boats_1.png","34"
"html-button-response-mod","39","144964","0.0-39.0","76283","","","","","","triplet","1883.9000000000233","","","","0","stimuli/stim023_inanimate_tools_3.png","stimuli/stim020_inanimate_tree_4.png","stimuli/stim007_animate_bird_3.png","35"
"html-button-response-mod","40","150776","0.0-40.0","76283","","","","","","triplet","5299","","","","1","stimuli/face_uppercase.png","stimuli/stim023_inanimate_tools_3.png","stimuli/stim018_inanimate_tree_2.png","36"
"html-button-response-mod","41","152968","0.0-41.0","76283","","","","","","triplet","1684.7999999999302","","","","0","stimuli/stim003_animate_fish_3.png","stimuli/tools_lowercase.png","stimuli/boats_lowercase.png","37"
"html-button-response-mod","42","155892","0.0-42.0","76283","","","","","","triplet","2410.4000000000233","","","","2","stimuli/stim021_inanimate_tools_1.png","stimuli/stim013_inanimate_boats_1.png","stimuli/stim001_animate_fish_1.png","38"
"html-button-response-mod","43","157632","0.0-43.0","76283","","","","","","triplet","1218.5999999999767","","","","1","stimuli/stim020_inanimate_tree_4.png","stimuli/face_uppercase.png","stimuli/stim019_inanimate_tree_3.png","39"
"html-button-response-mod","44","160485","0.0-44.0","76283","","","","","","triplet","2333.29999999993","","","","0","stimuli/tree_lowercase.png","stimuli/face_uppercase.png","stimuli/stim003_animate_fish_3.png","40"
"html-button-response-mod","45","163881","0.0-45.0","76283","","","","","","triplet","2883.1999999999534","","","","0","stimuli/stim020_inanimate_tree_4.png","stimuli/stim003_animate_fish_3.png","stimuli/bird_lowercase.png","41"
"html-button-response-mod","46","165757","0.0-46.0","76283","","","","","","triplet","1361.0999999999767","","","","2","stimuli/stim018_inanimate_tree_2.png","stimuli/stim010_animate_face_2.png","stimuli/stim016_inanimate_boats_4.png","42"
"html-button-response-mod","47","170296","0.0-47.0","76283","","","","","","triplet","4029","","","","0","stimuli/tree_lowercase.png","stimuli/stim011_animate_face_3.png","stimuli/stim008_animate_bird_4.png","43"
"html-button-response-mod","48","173685","0.0-48.0","76283","","","","","","triplet","2882.5999999999767","","","","0","stimuli/stim018_inanimate_tree_2.png","stimuli/stim008_animate_bird_4.png","stimuli/stim001_animate_fish_1.png","44"
"html-button-response-mod","49","175685","0.0-49.0","76283","","","","","","triplet","1482.2000000000698","","","","1","stimuli/stim020_inanimate_tree_4.png","stimuli/stim002_animate_fish_2.png","stimuli/tree_lowercase.png","45"
"html-button-response-mod","50","177708","0.0-50.0","76283","","","","","","triplet","1520.5","","","","0","stimuli/stim014_inanimate_boats_2.png","stimuli/stim007_animate_bird_3.png","stimuli/stim003_animate_fish_3.png","46"
"html-button-response-mod","51","179349","0.0-51.0","76283","","","","","","triplet","1137.5999999999767","","","","0","stimuli/stim022_inanimate_tools_2.png","stimuli/stim011_animate_face_3.png","stimuli/stim001_animate_fish_1.png","47"
"html-button-response-mod","52","181853","0.0-52.0","76283","","","","","","triplet","1984.4000000000233","","","","0","stimuli/stim011_animate_face_3.png","stimuli/bird_uppercase.png","stimuli/stim003_animate_fish_3.png","48"
"html-button-response-mod","53","183565","0.0-53.0","76283","","","","","","triplet","1202.3000000000466","","","","2","stimuli/stim009_animate_face_1.png","stimuli/stim012_animate_face_4.png","stimuli/stim019_inanimate_tree_3.png","49"
"html-button-response","54","186276","0.0-54.0","76283","","","","","","break","2201.9000000000233","<p>BREAK</p><p>Take a break for as long as you need</p><p>Click the button to continue</p>","0","","","","","",""
"html-button-response-mod","55","187557","0.0-55.0","76283","","","","","","triplet","1279.2000000000698","","","","1","stimuli/stim024_inanimate_tools_4.png","stimuli/bird_uppercase.png","stimuli/stim021_inanimate_tools_1.png","50"
"html-button-response-mod","56","189925","0.0-56.0","76283","","","","","","triplet","1852.5","","","","0","stimuli/stim010_animate_face_2.png","stimuli/stim019_inanimate_tree_3.png","stimuli/stim002_animate_fish_2.png","51"
"html-button-response-mod","57","194376","0.0-57.0","76283","","","","","","triplet","3935.0999999999767","","","","2","stimuli/stim011_animate_face_3.png","stimuli/face_uppercase.png","stimuli/stim003_animate_fish_3.png","52"
"html-button-response-mod","58","196512","0.0-58.0","76283","","","","","","triplet","1632.3000000000466","","","","1","stimuli/bird_lowercase.png","stimuli/tools_uppercase.png","stimuli/stim002_animate_fish_2.png","53"
"html-button-response-mod","59","202713","0.0-59.0","76283","","","","","","triplet","5697.900000000023","","","","2","stimuli/stim011_animate_face_3.png","stimuli/stim001_animate_fish_1.png","stimuli/stim019_inanimate_tree_3.png","54"
"html-button-response-mod","60","204537","0.0-60.0","76283","","","","","","triplet","1302.8999999999069","","","","0","stimuli/boats_lowercase.png","stimuli/stim012_animate_face_4.png","stimuli/stim011_animate_face_3.png","55"
"html-button-response-mod","61","206916","0.0-61.0","76283","","","","","","triplet","1875.8000000000466","","","","2","stimuli/stim006_animate_bird_2.png","stimuli/fish_lowercase.png","stimuli/stim014_inanimate_boats_2.png","56"
"html-button-response-mod","62","213005","0.0-62.0","76283","","","","","","triplet","5585.900000000023","","","","2","stimuli/stim007_animate_bird_3.png","stimuli/stim005_animate_bird_1.png","stimuli/bird_uppercase.png","57"
"html-button-response-mod","63","214689","0.0-63.0","76283","","","","","","triplet","1163","","","","2","stimuli/stim020_inanimate_tree_4.png","stimuli/stim019_inanimate_tree_3.png","stimuli/stim013_inanimate_boats_1.png","58"
"html-button-response-mod","64","216485","0.0-64.0","76283","","","","","","triplet","1286.9000000000233","","","","2","stimuli/stim001_animate_fish_1.png","stimuli/fish_uppercase.png","stimuli/stim019_inanimate_tree_3.png","59"
"html-button-response-mod","65","218136","0.0-65.0","76283","","","","","","triplet","1132.7000000000698","","","","2","stimuli/stim007_animate_bird_3.png","stimuli/stim009_animate_face_1.png","stimuli/stim024_inanimate_tools_4.png","60"
"html-button-response-mod","66","220789","0.0-66.0","76283","","","","","","triplet","2146.1999999999534","","","","1","stimuli/bird_uppercase.png","stimuli/tools_uppercase.png","stimuli/stim002_animate_fish_2.png","61"
"html-button-response-mod","67","222549","0.0-67.0","76283","","","","","","triplet","1251.0999999999767","","","","0","stimuli/tools_uppercase.png","stimuli/stim022_inanimate_tools_2.png","stimuli/stim024_inanimate_tools_4.png","62"
"html-button-response-mod","68","224477","0.0-68.0","76283","","","","","","triplet","1424.5999999999767","","","","1","stimuli/boats_uppercase.png","stimuli/stim009_animate_face_1.png","stimuli/boats_lowercase.png","63"
"html-button-response-mod","69","227069","0.0-69.0","76283","","","","","","triplet","2084.70000000007","","","","0","stimuli/stim016_inanimate_boats_4.png","stimuli/bird_lowercase.png","stimuli/stim001_animate_fish_1.png","64"
"html-button-response-mod","70","230981","0.0-70.0","76283","","","","","","triplet","3404.5","","","","0","stimuli/stim011_animate_face_3.png","stimuli/stim007_animate_bird_3.png","stimuli/stim003_animate_fish_3.png","65"
"html-button-response-mod","71","233224","0.0-71.0","76283","","","","","","triplet","1726.6999999999534","","","","1","stimuli/stim004_animate_fish_4.png","stimuli/stim016_inanimate_boats_4.png","stimuli/stim007_animate_bird_3.png","66"
"html-button-response-mod","72","236397","0.0-72.0","76283","","","","","","triplet","2659.9000000000233","","","","0","stimuli/face_lowercase.png","stimuli/tools_lowercase.png","stimuli/stim016_inanimate_boats_4.png","67"
"html-button-response-mod","73","239296","0.0-73.0","76283","","","","","","triplet","2382.8000000000466","","","","2","stimuli/boats_uppercase.png","stimuli/stim023_inanimate_tools_3.png","stimuli/stim017_inanimate_tree_1.png","68"
"html-button-response-mod","74","243428","0.0-74.0","76283","","","","","","triplet","3626.20000000007","","","","1","stimuli/stim017_inanimate_tree_1.png","stimuli/stim015_inanimate_boats_3.png","stimuli/face_uppercase.png","69"
"html-button-response-mod","75","245677","0.0-75.0","76283","","","","","","triplet","1744.9000000000233","","","","0","stimuli/stim001_animate_fish_1.png","stimuli/bird_uppercase.png","stimuli/stim008_animate_bird_4.png","70"
"html-button-response-mod","76","247665","0.0-76.0","76283","","","","","","triplet","1476.5999999999767","","","","1","stimuli/stim001_animate_fish_1.png","stimuli/boats_uppercase.png","stimuli/stim010_animate_face_2.png","71"
"html-button-response-mod","77","250309","0.0-77.0","76283","","","","","","triplet","2134.3000000000466","","","","2","stimuli/fish_uppercase.png","stimuli/bird_uppercase.png","stimuli/stim010_animate_face_2.png","72"
"html-button-response-mod","78","252328","0.0-78.0","76283","","","","","","triplet","1514.1000000000931","","","","1","stimuli/stim003_animate_fish_3.png","stimuli/stim024_inanimate_tools_4.png","stimuli/bird_lowercase.png","73"
"html-button-response-mod","79","253605","0.0-79.0","76283","","","","","","triplet","764.4000000000233","","","","1","stimuli/stim017_inanimate_tree_1.png","stimuli/stim022_inanimate_tools_2.png","stimuli/stim019_inanimate_tree_3.png","74"
"html-button-response-mod","80","255716","0.0-80.0","76283","","","","","","triplet","1596.2000000000698","","","","1","stimuli/boats_uppercase.png","stimuli/stim008_animate_bird_4.png","stimuli/stim015_inanimate_boats_3.png","75"
"html-button-response-mod","81","258072","0.0-81.0","76283","","","","","","triplet","1850.3000000000466","","","","1","stimuli/stim014_inanimate_boats_2.png","stimuli/face_uppercase.png","stimuli/stim015_inanimate_boats_3.png","76"
"html-button-response-mod","82","261109","0.0-82.0","76283","","","","","","triplet","2518.100000000093","","","","2","stimuli/face_uppercase.png","stimuli/stim002_animate_fish_2.png","stimuli/stim016_inanimate_boats_4.png","77"
"html-button-response-mod","83","263141","0.0-83.0","76283","","","","","","triplet","1520.5","","","","2","stimuli/stim007_animate_bird_3.png","stimuli/bird_lowercase.png","stimuli/stim014_inanimate_boats_2.png","78"
"html-button-response-mod","84","265428","0.0-84.0","76283","","","","","","triplet","1783","","","","2","stimuli/boats_lowercase.png","stimuli/stim015_inanimate_boats_3.png","stimuli/stim018_inanimate_tree_2.png","79"
"html-button-response-mod","85","268349","0.0-85.0","76283","","","","","","triplet","2417.5","","","","2","stimuli/stim007_animate_bird_3.png","stimuli/stim001_animate_fish_1.png","stimuli/stim009_animate_face_1.png","80"
"html-button-response-mod","86","270797","0.0-86.0","76283","","","","","","triplet","1944.9000000000233","","","","0","stimuli/stim016_inanimate_boats_4.png","stimuli/stim018_inanimate_tree_2.png","stimuli/fish_lowercase.png","81"
"html-button-response-mod","87","272725","0.0-87.0","76283","","","","","","triplet","1424.3000000000466","","","","2","stimuli/tree_uppercase.png","stimuli/tree_lowercase.png","stimuli/stim013_inanimate_boats_1.png","82"
"html-button-response-mod","88","275358","0.0-88.0","76283","","","","","","triplet","2130.5","","","","1","stimuli/stim023_inanimate_tools_3.png","stimuli/stim002_animate_fish_2.png","stimuli/boats_lowercase.png","83"
"html-button-response-mod","89","277149","0.0-89.0","76283","","","","","","triplet","1287.5","","","","2","stimuli/tree_uppercase.png","stimuli/stim017_inanimate_tree_1.png","stimuli/stim014_inanimate_boats_2.png","84"
"html-button-response-mod","90","279676","0.0-90.0","76283","","","","","","triplet","2018.6999999999534","","","","2","stimuli/stim024_inanimate_tools_4.png","stimuli/stim014_inanimate_boats_2.png","stimuli/fish_uppercase.png","85"
"html-button-response-mod","91","282321","0.0-91.0","76283","","","","","","triplet","2143.6999999999534","","","","0","stimuli/boats_lowercase.png","stimuli/stim002_animate_fish_2.png","stimuli/stim019_inanimate_tree_3.png","86"
"html-button-response-mod","92","286181","0.0-92.0","76283","","","","","","triplet","3354.9000000000233","","","","1","stimuli/stim001_animate_fish_1.png","stimuli/stim018_inanimate_tree_2.png","stimuli/bird_lowercase.png","87"
"html-button-response-mod","93","287905","0.0-93.0","76283","","","","","","triplet","1222.2000000000698","","","","2","stimuli/tree_lowercase.png","stimuli/stim017_inanimate_tree_1.png","stimuli/stim011_animate_face_3.png","88"
"html-button-response-mod","94","290765","0.0-94.0","76283","","","","","","triplet","2357.0999999999767","","","","1","stimuli/boats_uppercase.png","stimuli/fish_uppercase.png","stimuli/stim023_inanimate_tools_3.png","89"
"html-button-response-mod","95","292924","0.0-95.0","76283","","","","","","triplet","1656.3000000000466","","","","1","stimuli/stim022_inanimate_tools_2.png","stimuli/stim006_animate_bird_2.png","stimuli/boats_uppercase.png","90"
"html-button-response-mod","96","295144","0.0-96.0","76283","","","","","","triplet","1716.1999999999534","","","","0","stimuli/stim023_inanimate_tools_3.png","stimuli/stim018_inanimate_tree_2.png","stimuli/stim010_animate_face_2.png","91"
"html-button-response-mod","97","296833","0.0-97.0","76283","","","","","","triplet","1186.3999999999069","","","","2","stimuli/stim006_animate_bird_2.png","stimuli/stim005_animate_bird_1.png","stimuli/boats_uppercase.png","92"
"html-button-response-mod","98","298909","0.0-98.0","76283","","","","","","triplet","1565.3000000000466","","","","1","stimuli/stim012_animate_face_4.png","stimuli/fish_lowercase.png","stimuli/stim009_animate_face_1.png","93"
"html-button-response-mod","99","301725","0.0-99.0","76283","","","","","","triplet","2312.100000000093","","","","1","stimuli/stim015_inanimate_boats_3.png","stimuli/stim020_inanimate_tree_4.png","stimuli/stim023_inanimate_tools_3.png","94"
"html-button-response-mod","100","304821","0.0-100.0","76283","","","","","","triplet","2576.29999999993","","","","2","stimuli/bird_uppercase.png","stimuli/stim008_animate_bird_4.png","stimuli/stim015_inanimate_boats_3.png","95"
"html-button-response-mod","101","306285","0.0-101.0","76283","","","","","","triplet","952.9000000000233","","","","1","stimuli/boats_uppercase.png","stimuli/stim021_inanimate_tools_1.png","stimuli/boats_lowercase.png","96"
"html-button-response-mod","102","309110","0.0-102.0","76283","","","","","","triplet","2321.100000000093","","","","2","stimuli/stim012_animate_face_4.png","stimuli/stim004_animate_fish_4.png","stimuli/stim017_inanimate_tree_1.png","97"
"html-button-response-mod","103","310648","0.0-103.0","76283","","","","","","triplet","1027.1999999999534","","","","1","stimuli/stim020_inanimate_tree_4.png","stimuli/stim021_inanimate_tools_1.png","stimuli/stim003_animate_fish_3.png","98"
"html-button-response-mod","104","312541","0.0-104.0","76283","","","","","","triplet","1390.9000000000233","","","","0","stimuli/stim013_inanimate_boats_1.png","stimuli/stim020_inanimate_tree_4.png","stimuli/stim018_inanimate_tree_2.png","99"
"html-button-response","105","316337","0.0-105.0","76283","","","","","","break","3292","<p>BREAK</p><p>Take a break for as long as you need</p><p>Click the button to continue</p>","0","","","","","",""
"html-button-response-mod","106","318045","0.0-106.0","76283","","","","","","triplet","1706.5999999999767","","","","0","stimuli/stim024_inanimate_tools_4.png","stimuli/stim008_animate_bird_4.png","stimuli/stim017_inanimate_tree_1.png","100"
"html-button-response-mod","107","320805","0.0-107.0","76283","","","","","","triplet","2247.4000000000233","","","","2","stimuli/stim018_inanimate_tree_2.png","stimuli/stim002_animate_fish_2.png","stimuli/stim013_inanimate_boats_1.png","101"
"html-button-response-mod","108","322797","0.0-108.0","76283","","","","","","triplet","1471.5999999999767","","","","1","stimuli/stim001_animate_fish_1.png","stimuli/stim005_animate_bird_1.png","stimuli/stim004_animate_fish_4.png","102"
"html-button-response-mod","109","325333","0.0-109.0","76283","","","","","","triplet","2034","","","","2","stimuli/stim004_animate_fish_4.png","stimuli/stim007_animate_bird_3.png","stimuli/tree_lowercase.png","103"
"html-button-response-mod","110","327133","0.0-110.0","76283","","","","","","triplet","1286.0999999999767","","","","2","stimuli/stim006_animate_bird_2.png","stimuli/stim008_animate_bird_4.png","stimuli/tree_lowercase.png","104"
"html-button-response-mod","111","329546","0.0-111.0","76283","","","","","","triplet","1902.8000000000466","","","","1","stimuli/stim007_animate_bird_3.png","stimuli/stim016_inanimate_boats_4.png","stimuli/bird_lowercase.png","105"
"html-button-response-mod","112","332232","0.0-112.0","76283","","","","","","triplet","2182.6999999999534","","","","1","stimuli/stim019_inanimate_tree_3.png","stimuli/stim014_inanimate_boats_2.png","stimuli/bird_lowercase.png","106"
"html-button-response-mod","113","334236","0.0-113.0","76283","","","","","","triplet","1497.1999999999534","","","","0","stimuli/stim002_animate_fish_2.png","stimuli/stim022_inanimate_tools_2.png","stimuli/tools_lowercase.png","107"
"html-button-response-mod","114","336609","0.0-114.0","76283","","","","","","triplet","1870.3000000000466","","","","1","stimuli/stim003_animate_fish_3.png","stimuli/boats_lowercase.png","stimuli/stim012_animate_face_4.png","108"
"html-button-response-mod","115","338389","0.0-115.0","76283","","","","","","triplet","1274.9000000000233","","","","0","stimuli/stim014_inanimate_boats_2.png","stimuli/stim002_animate_fish_2.png","stimuli/stim009_animate_face_1.png","109"
"html-button-response-mod","116","340236","0.0-116.0","76283","","","","","","triplet","1342.5999999999767","","","","0","stimuli/stim022_inanimate_tools_2.png","stimuli/stim012_animate_face_4.png","stimuli/fish_uppercase.png","110"
"html-button-response-mod","117","342285","0.0-117.0","76283","","","","","","triplet","1533.2999999999302","","","","0","stimuli/boats_lowercase.png","stimuli/stim012_animate_face_4.png","stimuli/face_lowercase.png","111"
"html-button-response-mod","118","344121","0.0-118.0","76283","","","","","","triplet","1323.5","","","","1","stimuli/stim001_animate_fish_1.png","stimuli/stim023_inanimate_tools_3.png","stimuli/stim017_inanimate_tree_1.png","112"
"html-button-response-mod","119","346189","0.0-119.0","76283","","","","","","triplet","1556.8999999999069","","","","0","stimuli/stim024_inanimate_tools_4.png","stimuli/face_lowercase.png","stimuli/stim010_animate_face_2.png","113"
"html-button-response-mod","120","348941","0.0-120.0","76283","","","","","","triplet","2232.8000000000466","","","","1","stimuli/tools_lowercase.png","stimuli/stim017_inanimate_tree_1.png","stimuli/stim016_inanimate_boats_4.png","114"
"html-button-response-mod","121","350884","0.0-121.0","76283","","","","","","triplet","1438.9000000000233","","","","2","stimuli/face_uppercase.png","stimuli/stim012_animate_face_4.png","stimuli/stim007_animate_bird_3.png","115"
"html-button-response-mod","122","354144","0.0-122.0","76283","","","","","","triplet","2752.29999999993","","","","1","stimuli/fish_uppercase.png","stimuli/tools_uppercase.png","stimuli/stim012_animate_face_4.png","116"
"html-button-response-mod","123","356949","0.0-123.0","76283","","","","","","triplet","2300.899999999907","","","","2","stimuli/stim003_animate_fish_3.png","stimuli/stim007_animate_bird_3.png","stimuli/stim019_inanimate_tree_3.png","117"
"html-button-response-mod","124","359260","0.0-124.0","76283","","","","","","triplet","1792.9000000000233","","","","1","stimuli/stim001_animate_fish_1.png","stimuli/tools_uppercase.png","stimuli/stim019_inanimate_tree_3.png","118"
"html-button-response-mod","125","361893","0.0-125.0","76283","","","","","","triplet","2124.5999999999767","","","","1","stimuli/stim021_inanimate_tools_1.png","stimuli/bird_uppercase.png","stimuli/tools_lowercase.png","119"
"html-button-response-mod","126","364020","0.0-126.0","76283","","","","","","triplet","1611.3000000000466","","","","1","stimuli/stim002_animate_fish_2.png","stimuli/stim016_inanimate_boats_4.png","stimuli/stim017_inanimate_tree_1.png","120"
"html-button-response-mod","127","365998","0.0-127.0","76283","","","","","","triplet","1459.9000000000233","","","","0","stimuli/fish_uppercase.png","stimuli/stim015_inanimate_boats_3.png","stimuli/stim023_inanimate_tools_3.png","121"
"html-button-response-mod","128","368425","0.0-128.0","76283","","","","","","triplet","1912","","","","2","stimuli/stim010_animate_face_2.png","stimuli/stim004_animate_fish_4.png","stimuli/tree_lowercase.png","122"
"html-button-response-mod","129","370333","0.0-129.0","76283","","","","","","triplet","1392.3000000000466","","","","2","stimuli/boats_lowercase.png","stimuli/stim014_inanimate_boats_2.png","stimuli/stim020_inanimate_tree_4.png","123"
"html-button-response-mod","130","372521","0.0-130.0","76283","","","","","","triplet","1678.2000000000698","","","","0","stimuli/tree_lowercase.png","stimuli/boats_lowercase.png","stimuli/stim023_inanimate_tools_3.png","124"
"html-button-response-mod","131","375085","0.0-131.0","76283","","","","","","triplet","2058.3000000000466","","","","0","stimuli/stim022_inanimate_tools_2.png","stimuli/stim002_animate_fish_2.png","stimuli/tree_uppercase.png","125"
"html-button-response-mod","132","376917","0.0-132.0","76283","","","","","","triplet","1310.8000000000466","","","","1","stimuli/tools_lowercase.png","stimuli/bird_lowercase.png","stimuli/stim016_inanimate_boats_4.png","126"
"html-button-response-mod","133","379173","0.0-133.0","76283","","","","","","triplet","1751.1999999999534","","","","0","stimuli/stim011_animate_face_3.png","stimuli/stim023_inanimate_tools_3.png","stimuli/tools_lowercase.png","127"
"html-button-response-mod","134","381820","0.0-134.0","76283","","","","","","triplet","2124.5","","","","0","stimuli/tools_uppercase.png","stimuli/stim019_inanimate_tree_3.png","stimuli/stim006_animate_bird_2.png","128"
"html-button-response-mod","135","384029","0.0-135.0","76283","","","","","","triplet","1696.5999999999767","","","","2","stimuli/stim004_animate_fish_4.png","stimuli/fish_uppercase.png","stimuli/boats_lowercase.png","129"
"html-button-response-mod","136","386573","0.0-136.0","76283","","","","","","triplet","2038.5","","","","2","stimuli/stim020_inanimate_tree_4.png","stimuli/stim003_animate_fish_3.png","stimuli/stim022_inanimate_tools_2.png","130"
"html-button-response-mod","137","389189","0.0-137.0","76283","","","","","","triplet","2099.100000000093","","","","2","stimuli/stim006_animate_bird_2.png","stimuli/bird_lowercase.png","stimuli/stim011_animate_face_3.png","131"
"html-button-response-mod","138","394629","0.0-138.0","76283","","","","","","triplet","4932.20000000007","","","","0","stimuli/stim013_inanimate_boats_1.png","stimuli/bird_lowercase.png","stimuli/tree_uppercase.png","132"
"html-button-response-mod","139","396573","0.0-139.0","76283","","","","","","triplet","1428.3999999999069","","","","2","stimuli/stim008_animate_bird_4.png","stimuli/stim004_animate_fish_4.png","stimuli/stim009_animate_face_1.png","133"
"html-button-response-mod","140","398860","0.0-140.0","76283","","","","","","triplet","1764.6999999999534","","","","1","stimuli/stim009_animate_face_1.png","stimuli/stim024_inanimate_tools_4.png","stimuli/face_uppercase.png","134"
"html-button-response-mod","141","403905","0.0-141.0","76283","","","","","","triplet","4533.20000000007","","","","1","stimuli/tree_uppercase.png","stimuli/stim023_inanimate_tools_3.png","stimuli/face_uppercase.png","135"
"html-button-response-mod","142","405741","0.0-142.0","76283","","","","","","triplet","1333.1999999999534","","","","2","stimuli/stim006_animate_bird_2.png","stimuli/stim005_animate_bird_1.png","stimuli/face_uppercase.png","136"
"html-button-response-mod","143","407573","0.0-143.0","76283","","","","","","triplet","1320.8000000000466","","","","1","stimuli/stim015_inanimate_boats_3.png","stimuli/stim002_animate_fish_2.png","stimuli/boats_uppercase.png","137"
"html-button-response-mod","144","410044","0.0-144.0","76283","","","","","","triplet","1961.5","","","","1","stimuli/tree_lowercase.png","stimuli/tools_uppercase.png","stimuli/stim006_animate_bird_2.png","138"
"html-button-response-mod","145","412714","0.0-145.0","76283","","","","","","triplet","2159","","","","1","stimuli/boats_uppercase.png","stimuli/stim022_inanimate_tools_2.png","stimuli/tree_lowercase.png","139"
"html-button-response-mod","146","419797","0.0-146.0","76283","","","","","","triplet","6580.5","","","","1","stimuli/stim023_inanimate_tools_3.png","stimuli/stim003_animate_fish_3.png","stimuli/stim016_inanimate_boats_4.png","140"
"html-button-response-mod","147","423665","0.0-147.0","76283","","","","","","triplet","3349","","","","1","stimuli/fish_lowercase.png","stimuli/tree_uppercase.png","stimuli/stim004_animate_fish_4.png","141"
"html-button-response-mod","148","425205","0.0-148.0","76283","","","","","","triplet","1035.3999999999069","","","","2","stimuli/stim017_inanimate_tree_1.png","stimuli/stim019_inanimate_tree_3.png","stimuli/boats_uppercase.png","142"
"html-button-response-mod","149","428101","0.0-149.0","76283","","","","","","triplet","2380.1999999999534","","","","1","stimuli/tree_lowercase.png","stimuli/stim013_inanimate_boats_1.png","stimuli/bird_lowercase.png","143"
"html-button-response-mod","150","430733","0.0-150.0","76283","","","","","","triplet","2116.6999999999534","","","","1","stimuli/fish_uppercase.png","stimuli/tree_uppercase.png","stimuli/stim008_animate_bird_4.png","144"
"html-button-response-mod","151","433853","0.0-151.0","76283","","","","","","triplet","2613.8000000000466","","","","0","stimuli/stim016_inanimate_boats_4.png","stimuli/stim019_inanimate_tree_3.png","stimuli/stim008_animate_bird_4.png","145"
"html-button-response-mod","152","435749","0.0-152.0","76283","","","","","","triplet","1388.9000000001397","","","","0","stimuli/stim007_animate_bird_3.png","stimuli/boats_uppercase.png","stimuli/stim015_inanimate_boats_3.png","146"
"html-button-response-mod","153","437837","0.0-153.0","76283","","","","","","triplet","1567.6999999999534","","","","1","stimuli/stim013_inanimate_boats_1.png","stimuli/stim005_animate_bird_1.png","stimuli/tools_lowercase.png","147"
"html-button-response-mod","154","439897","0.0-154.0","76283","","","","","","triplet","1548.8999999999069","","","","2","stimuli/tree_lowercase.png","stimuli/tree_uppercase.png","stimuli/bird_uppercase.png","148"
"html-button-response-mod","155","441837","0.0-155.0","76283","","","","","","triplet","1434.7999999998137","","","","1","stimuli/stim021_inanimate_tools_1.png","stimuli/stim011_animate_face_3.png","stimuli/stim015_inanimate_boats_3.png","149"
"html-button-response","156","495652","0.0-156.0","76283","","","","","","break","53312.89999999991","<p>BREAK</p><p>Take a break for as long as you need</p><p>Click the button to continue</p>","0","","","","","",""
"html-button-response-mod","157","498417","0.0-157.0","76283","","","","","","triplet","2763","","","","0","stimuli/stim020_inanimate_tree_4.png","stimuli/stim005_animate_bird_1.png","stimuli/bird_lowercase.png","150"
"html-button-response-mod","158","502721","0.0-158.0","76283","","","","","","triplet","3795.4000000001397","","","","0","stimuli/tree_lowercase.png","stimuli/stim012_animate_face_4.png","stimuli/stim002_animate_fish_2.png","151"
"html-button-response-mod","159","504652","0.0-159.0","76283","","","","","","triplet","1426.7000000001863","","","","1","stimuli/stim010_animate_face_2.png","stimuli/tree_uppercase.png","stimuli/face_uppercase.png","152"
"html-button-response-mod","160","507116","0.0-160.0","76283","","","","","","triplet","1945.8999999999069","","","","2","stimuli/face_uppercase.png","stimuli/stim017_inanimate_tree_1.png","stimuli/boats_uppercase.png","153"
"html-button-response-mod","161","508621","0.0-161.0","76283","","","","","","triplet","996.1999999999534","","","","2","stimuli/bird_lowercase.png","stimuli/stim008_animate_bird_4.png","stimuli/stim010_animate_face_2.png","154"
"html-button-response-mod","162","510852","0.0-162.0","76283","","","","","","triplet","1724.1999999999534","","","","0","stimuli/stim009_animate_face_1.png","stimuli/stim023_inanimate_tools_3.png","stimuli/stim013_inanimate_boats_1.png","155"
"html-button-response-mod","163","514167","0.0-163.0","76283","","","","","","triplet","2797.6999999999534","","","","2","stimuli/stim002_animate_fish_2.png","stimuli/face_lowercase.png","stimuli/tree_uppercase.png","156"
"html-button-response-mod","164","516868","0.0-164.0","76283","","","","","","triplet","2182.8000000000466","","","","0","stimuli/stim009_animate_face_1.png","stimuli/stim008_animate_bird_4.png","stimuli/stim002_animate_fish_2.png","157"
"html-button-response-mod","165","519436","0.0-165.0","76283","","","","","","triplet","2059.7999999998137","","","","2","stimuli/stim017_inanimate_tree_1.png","stimuli/tree_uppercase.png","stimuli/stim002_animate_fish_2.png","158"
"html-button-response-mod","166","526908","0.0-166.0","76283","","","","","","triplet","6954","","","","1","stimuli/stim016_inanimate_boats_4.png","stimuli/boats_uppercase.png","stimuli/stim013_inanimate_boats_1.png","159"
"html-button-response-mod","167","529437","0.0-167.0","76283","","","","","","triplet","2015.8000000000466","","","","1","stimuli/stim001_animate_fish_1.png","stimuli/stim005_animate_bird_1.png","stimuli/fish_uppercase.png","160"
"html-button-response-mod","168","531717","0.0-168.0","76283","","","","","","triplet","1775.1999999999534","","","","1","stimuli/bird_uppercase.png","stimuli/stim015_inanimate_boats_3.png","stimuli/stim004_animate_fish_4.png","161"
"html-button-response-mod","169","533349","0.0-169.0","76283","","","","","","triplet","1116.9000000001397","","","","2","stimuli/stim004_animate_fish_4.png","stimuli/stim002_animate_fish_2.png","stimuli/boats_lowercase.png","162"
"html-button-response-mod","170","535925","0.0-170.0","76283","","","","","","triplet","2064.100000000093","","","","0","stimuli/stim007_animate_bird_3.png","stimuli/stim023_inanimate_tools_3.png","stimuli/stim022_inanimate_tools_2.png","163"
"html-button-response-mod","171","540000","0.0-171.0","76283","","","","","","triplet","3568.0999999998603","","","","0","stimuli/face_uppercase.png","stimuli/stim002_animate_fish_2.png","stimuli/stim006_animate_bird_2.png","164"
"html-button-response-mod","172","542217","0.0-172.0","76283","","","","","","triplet","1702.5","","","","1","stimuli/bird_uppercase.png","stimuli/tools_uppercase.png","stimuli/stim005_animate_bird_1.png","165"
"html-button-response-mod","173","544500","0.0-173.0","76283","","","","","","triplet","1775.6999999999534","","","","2","stimuli/stim016_inanimate_boats_4.png","stimuli/stim023_inanimate_tools_3.png","stimuli/stim009_animate_face_1.png","166"
"html-button-response-mod","174","546025","0.0-174.0","76283","","","","","","triplet","1012.7999999998137","","","","2","stimuli/stim011_animate_face_3.png","stimuli/stim009_animate_face_1.png","stimuli/stim022_inanimate_tools_2.png","167"
"html-button-response-mod","175","547520","0.0-175.0","76283","","","","","","triplet","978.5","","","","1","stimuli/stim017_inanimate_tree_1.png","stimuli/fish_uppercase.png","stimuli/stim018_inanimate_tree_2.png","168"
"html-button-response-mod","176","550285","0.0-176.0","76283","","","","","","triplet","2260.7999999998137","","","","0","stimuli/tree_uppercase.png","stimuli/face_uppercase.png","stimuli/stim006_animate_bird_2.png","169"
"html-button-response-mod","177","553565","0.0-177.0","76283","","","","","","triplet","2766.899999999907","","","","0","stimuli/fish_lowercase.png","stimuli/stim022_inanimate_tools_2.png","stimuli/stim016_inanimate_boats_4.png","170"
"html-button-response-mod","178","556402","0.0-178.0","76283","","","","","","triplet","2321.0999999998603","","","","2","stimuli/stim020_inanimate_tree_4.png","stimuli/bird_lowercase.png","stimuli/boats_lowercase.png","171"
"html-button-response-mod","179","559237","0.0-179.0","76283","","","","","","triplet","2317.399999999907","","","","0","stimuli/tree_uppercase.png","stimuli/stim009_animate_face_1.png","stimuli/bird_lowercase.png","172"
"html-button-response-mod","180","562186","0.0-180.0","76283","","","","","","triplet","2433.8000000000466","","","","0","stimuli/fish_lowercase.png","stimuli/tree_uppercase.png","stimuli/stim020_inanimate_tree_4.png","173"
"html-button-response-mod","181","564088","0.0-181.0","76283","","","","","","triplet","1385.1999999999534","","","","0","stimuli/stim023_inanimate_tools_3.png","stimuli/stim005_animate_bird_1.png","stimuli/bird_lowercase.png","174"
"html-button-response-mod","182","567169","0.0-182.0","76283","","","","","","triplet","2568.2999999998137","","","","2","stimuli/bird_lowercase.png","stimuli/bird_uppercase.png","stimuli/stim005_animate_bird_1.png","175"
"html-button-response-mod","183","569147","0.0-183.0","76283","","","","","","triplet","1460.5","","","","2","stimuli/stim002_animate_fish_2.png","stimuli/stim020_inanimate_tree_4.png","stimuli/stim023_inanimate_tools_3.png","176"
"html-button-response-mod","184","570789","0.0-184.0","76283","","","","","","triplet","1134.6999999999534","","","","1","stimuli/stim015_inanimate_boats_3.png","stimuli/stim006_animate_bird_2.png","stimuli/stim013_inanimate_boats_1.png","177"
"html-button-response-mod","185","572462","0.0-185.0","76283","","","","","","triplet","1157.3999999999069","","","","0","stimuli/stim007_animate_bird_3.png","stimuli/stim014_inanimate_boats_2.png","stimuli/stim016_inanimate_boats_4.png","178"
"html-button-response-mod","186","574941","0.0-186.0","76283","","","","","","triplet","1975.5","","","","2","stimuli/boats_uppercase.png","stimuli/tools_lowercase.png","stimuli/stim004_animate_fish_4.png","179"
"html-button-response-mod","187","577005","0.0-187.0","76283","","","","","","triplet","1550.3000000000466","","","","0","stimuli/boats_lowercase.png","stimuli/stim008_animate_bird_4.png","stimuli/stim009_animate_face_1.png","180"
"html-button-response-mod","188","578476","0.0-188.0","76283","","","","","","triplet","954.7999999998137","","","","2","stimuli/stim004_animate_fish_4.png","stimuli/stim006_animate_bird_2.png","stimuli/tools_lowercase.png","181"
"html-button-response-mod","189","580100","0.0-189.0","76283","","","","","","triplet","1114.8999999999069","","","","0","stimuli/stim015_inanimate_boats_3.png","stimuli/stim005_animate_bird_1.png","stimuli/stim006_animate_bird_2.png","182"
"html-button-response-mod","190","583916","0.0-190.0","76283","","","","","","triplet","3306.5999999998603","","","","1","stimuli/stim007_animate_bird_3.png","stimuli/stim021_inanimate_tools_1.png","stimuli/stim010_animate_face_2.png","183"
"html-button-response-mod","191","586473","0.0-191.0","76283","","","","","","triplet","2042.5999999998603","","","","0","stimuli/tools_lowercase.png","stimuli/stim011_animate_face_3.png","stimuli/stim018_inanimate_tree_2.png","184"
"html-button-response-mod","192","589764","0.0-192.0","76283","","","","","","triplet","2783.8000000000466","","","","2","stimuli/tools_lowercase.png","stimuli/stim024_inanimate_tools_4.png","stimuli/stim014_inanimate_boats_2.png","185"
"html-button-response-mod","193","592068","0.0-193.0","76283","","","","","","triplet","1800.5999999998603","","","","0","stimuli/stim023_inanimate_tools_3.png","stimuli/stim018_inanimate_tree_2.png","stimuli/bird_lowercase.png","186"
"html-button-response-mod","194","595805","0.0-194.0","76283","","","","","","triplet","3212.5999999998603","","","","2","stimuli/stim022_inanimate_tools_2.png","stimuli/boats_lowercase.png","stimuli/stim007_animate_bird_3.png","187"
"html-button-response-mod","195","597933","0.0-195.0","76283","","","","","","triplet","1611.1999999999534","","","","2","stimuli/stim003_animate_fish_3.png","stimuli/stim011_animate_face_3.png","stimuli/stim023_inanimate_tools_3.png","188"
"html-button-response-mod","196","600169","0.0-196.0","76283","","","","","","triplet","1732","","","","0","stimuli/bird_uppercase.png","stimuli/stim013_inanimate_boats_1.png","stimuli/stim024_inanimate_tools_4.png","189"
"html-button-response-mod","197","606004","0.0-197.0","76283","","","","","","triplet","5330.40000000014","","","","1","stimuli/stim016_inanimate_boats_4.png","stimuli/boats_lowercase.png","stimuli/stim015_inanimate_boats_3.png","190"
"html-button-response-mod","198","608724","0.0-198.0","76283","","","","","","triplet","2207.7999999998137","","","","0","stimuli/stim011_animate_face_3.png","stimuli/stim024_inanimate_tools_4.png","stimuli/stim015_inanimate_boats_3.png","191"
"html-button-response-mod","199","612596","0.0-199.0","76283","","","","","","triplet","3354.5","","","","1","stimuli/bird_uppercase.png","stimuli/stim009_animate_face_1.png","stimuli/stim003_animate_fish_3.png","192"
"html-button-response-mod","200","614557","0.0-200.0","76283","","","","","","triplet","1452.1999999999534","","","","0","stimuli/stim016_inanimate_boats_4.png","stimuli/stim009_animate_face_1.png","stimuli/stim007_animate_bird_3.png","193"
"html-button-response-mod","201","618105","0.0-201.0","76283","","","","","","triplet","3031.6999999999534","","","","1","stimuli/fish_uppercase.png","stimuli/stim011_animate_face_3.png","stimuli/stim005_animate_bird_1.png","194"
"html-button-response-mod","202","621505","0.0-202.0","76283","","","","","","triplet","2884.1999999999534","","","","2","stimuli/tools_uppercase.png","stimuli/boats_uppercase.png","stimuli/tree_uppercase.png","195"
"html-button-response-mod","203","623985","0.0-203.0","76283","","","","","","triplet","1972.5","","","","2","stimuli/stim001_animate_fish_1.png","stimuli/stim020_inanimate_tree_4.png","stimuli/stim023_inanimate_tools_3.png","196"
"html-button-response-mod","204","626521","0.0-204.0","76283","","","","","","triplet","2017.1000000000931","","","","2","stimuli/stim012_animate_face_4.png","stimuli/stim008_animate_bird_4.png","stimuli/stim019_inanimate_tree_3.png","197"
"html-button-response-mod","205","629211","0.0-205.0","76283","","","","","","triplet","2186.9000000001397","","","","1","stimuli/stim003_animate_fish_3.png","stimuli/boats_lowercase.png","stimuli/bird_uppercase.png","198"
"html-button-response-mod","206","632677","0.0-206.0","76283","","","","","","triplet","2949.600000000093","","","","1","stimuli/fish_lowercase.png","stimuli/stim016_inanimate_boats_4.png","stimuli/stim019_inanimate_tree_3.png","199"
"html-button-response","207","634301","0.0-207.0","76283","","","","","","break","1103.6999999999534","<p>BREAK</p><p>Take a break for as long as you need</p><p>Click the button to continue</p>","0","","","","","",""
"html-button-response-mod","208","636272","0.0-208.0","76283","","","","","","triplet","1969.3999999999069","","","","2","stimuli/stim010_animate_face_2.png","stimuli/stim012_animate_face_4.png","stimuli/fish_lowercase.png","200"
"html-button-response-mod","209","638004","0.0-209.0","76283","","","","","","triplet","1213.5","","","","1","stimuli/stim013_inanimate_boats_1.png","stimuli/stim024_inanimate_tools_4.png","stimuli/boats_uppercase.png","201"
"html-button-response-mod","210","639628","0.0-210.0","76283","","","","","","triplet","1112.5","","","","1","stimuli/bird_uppercase.png","stimuli/boats_uppercase.png","stimuli/stim007_animate_bird_3.png","202"
"html-button-response-mod","211","641368","0.0-211.0","76283","","","","","","triplet","1219.8999999999069","","","","2","stimuli/face_uppercase.png","stimuli/stim019_inanimate_tree_3.png","stimuli/stim023_inanimate_tools_3.png","203"
"html-button-response-mod","212","643973","0.0-212.0","76283","","","","","","triplet","2089.600000000093","","","","1","stimuli/stim004_animate_fish_4.png","stimuli/stim011_animate_face_3.png","stimuli/bird_lowercase.png","204"
"html-button-response-mod","213","645800","0.0-213.0","76283","","","","","","triplet","1309.3999999999069","","","","2","stimuli/stim010_animate_face_2.png","stimuli/stim005_animate_bird_1.png","stimuli/stim021_inanimate_tools_1.png","205"
"html-button-response-mod","214","648688","0.0-214.0","76283","","","","","","triplet","2373","","","","2","stimuli/stim020_inanimate_tree_4.png","stimuli/stim004_animate_fish_4.png","stimuli/boats_lowercase.png","206"
"html-button-response-mod","215","653932","0.0-215.0","76283","","","","","","triplet","4730.40000000014","","","","0","stimuli/stim013_inanimate_boats_1.png","stimuli/tree_uppercase.png","stimuli/face_uppercase.png","207"
"html-button-response-mod","216","656045","0.0-216.0","76283","","","","","","triplet","1591.1000000000931","","","","1","stimuli/stim005_animate_bird_1.png","stimuli/stim017_inanimate_tree_1.png","stimuli/bird_uppercase.png","208"
"html-button-response-mod","217","659293","0.0-217.0","76283","","","","","","triplet","2732.5","","","","1","stimuli/bird_lowercase.png","stimuli/boats_lowercase.png","stimuli/stim012_animate_face_4.png","209"
"html-button-response-mod","218","663273","0.0-218.0","76283","","","","","","triplet","3466.2000000001863","","","","2","stimuli/stim011_animate_face_3.png","stimuli/stim002_animate_fish_2.png","stimuli/stim018_inanimate_tree_2.png","210"
"html-button-response-mod","219","667017","0.0-219.0","76283","","","","","","triplet","3239.1999999999534","","","","1","stimuli/tree_uppercase.png","stimuli/stim022_inanimate_tools_2.png","stimuli/stim019_inanimate_tree_3.png","211"
"html-button-response-mod","220","668909","0.0-220.0","76283","","","","","","triplet","1381.9000000001397","","","","1","stimuli/stim013_inanimate_boats_1.png","stimuli/stim012_animate_face_4.png","stimuli/stim023_inanimate_tools_3.png","212"
"html-button-response-mod","221","670821","0.0-221.0","76283","","","","","","triplet","1404.3000000000466","","","","2","stimuli/tools_lowercase.png","stimuli/stim023_inanimate_tools_3.png","stimuli/fish_uppercase.png","213"
"html-button-response-mod","222","674777","0.0-222.0","76283","","","","","","triplet","3444.3000000000466","","","","2","stimuli/stim017_inanimate_tree_1.png","stimuli/stim002_animate_fish_2.png","stimuli/stim022_inanimate_tools_2.png","214"
"html-button-response-mod","223","677777","0.0-223.0","76283","","","","","","triplet","2479.1999999999534","","","","2","stimuli/face_lowercase.png","stimuli/tree_uppercase.png","stimuli/tools_lowercase.png","215"
"html-button-response-mod","224","680581","0.0-224.0","76283","","","","","","triplet","2278.399999999907","","","","0","stimuli/stim018_inanimate_tree_2.png","stimuli/tools_lowercase.png","stimuli/stim022_inanimate_tools_2.png","216"
"html-button-response-mod","225","682501","0.0-225.0","76283","","","","","","triplet","1405.8000000000466","","","","2","stimuli/tree_lowercase.png","stimuli/stim020_inanimate_tree_4.png","stimuli/stim014_inanimate_boats_2.png","217"
"html-button-response-mod","226","691324","0.0-226.0","76283","","","","","","triplet","8308.100000000093","","","","1","stimuli/stim024_inanimate_tools_4.png","stimuli/stim022_inanimate_tools_2.png","stimuli/stim021_inanimate_tools_1.png","218"
"html-button-response-mod","227","693133","0.0-227.0","76283","","","","","","triplet","1296.3999999999069","","","","0","stimuli/stim011_animate_face_3.png","stimuli/stim015_inanimate_boats_3.png","stimuli/stim013_inanimate_boats_1.png","219"
"html-button-response-mod","228","695325","0.0-228.0","76283","","","","","","triplet","1676.0999999998603","","","","1","stimuli/bird_lowercase.png","stimuli/stim014_inanimate_boats_2.png","stimuli/stim003_animate_fish_3.png","220"
"html-button-response-mod","229","696900","0.0-229.0","76283","","","","","","triplet","1066","","","","2","stimuli/face_lowercase.png","stimuli/stim010_animate_face_2.png","stimuli/stim019_inanimate_tree_3.png","221"
"html-button-response-mod","230","699093","0.0-230.0","76283","","","","","","triplet","1680.5","","","","2","stimuli/stim001_animate_fish_1.png","stimuli/stim006_animate_bird_2.png","stimuli/boats_uppercase.png","222"
"html-button-response-mod","231","700820","0.0-231.0","76283","","","","","","triplet","1208.5999999998603","","","","0","stimuli/stim011_animate_face_3.png","stimuli/stim004_animate_fish_4.png","stimuli/stim002_animate_fish_2.png","223"
"html-button-response-mod","232","703256","0.0-232.0","76283","","","","","","triplet","1918.6999999999534","","","","2","stimuli/stim020_inanimate_tree_4.png","stimuli/stim017_inanimate_tree_1.png","stimuli/fish_lowercase.png","224"
"html-button-response-mod","233","705685","0.0-233.0","76283","","","","","","triplet","1923.1999999999534","","","","2","stimuli/stim021_inanimate_tools_1.png","stimuli/stim016_inanimate_boats_4.png","stimuli/bird_uppercase.png","225"
"html-button-response-mod","234","724212","0.0-234.0","76283","","","","","","triplet","18016.100000000093","","","","2","stimuli/stim020_inanimate_tree_4.png","stimuli/stim019_inanimate_tree_3.png","stimuli/stim017_inanimate_tree_1.png","226"
"html-button-response-mod","235","726652","0.0-235.0","76283","","","","","","triplet","1927.8999999999069","","","","1","stimuli/fish_uppercase.png","stimuli/stim016_inanimate_boats_4.png","stimuli/stim020_inanimate_tree_4.png","227"
"html-button-response-mod","236","728425","0.0-236.0","76283","","","","","","triplet","1264.5","","","","1","stimuli/stim001_animate_fish_1.png","stimuli/stim007_animate_bird_3.png","stimuli/fish_lowercase.png","228"
"html-button-response-mod","237","730300","0.0-237.0","76283","","","","","","triplet","1360.4000000001397","","","","0","stimuli/stim016_inanimate_boats_4.png","stimuli/stim001_animate_fish_1.png","stimuli/stim003_animate_fish_3.png","229"
"html-button-response-mod","238","732388","0.0-238.0","76283","","","","","","triplet","1571.4000000001397","","","","1","stimuli/stim004_animate_fish_4.png","stimuli/stim007_animate_bird_3.png","stimuli/stim003_animate_fish_3.png","230"
"html-button-response-mod","239","734733","0.0-239.0","76283","","","","","","triplet","1830.2999999998137","","","","0","stimuli/face_lowercase.png","stimuli/stim017_inanimate_tree_1.png","stimuli/stim020_inanimate_tree_4.png","231"
"html-button-response-mod","240","736804","0.0-240.0","76283","","","","","","triplet","1559.5","","","","2","stimuli/bird_lowercase.png","stimuli/stim017_inanimate_tree_1.png","stimuli/stim022_inanimate_tools_2.png","232"
"html-button-response-mod","241","738676","0.0-241.0","76283","","","","","","triplet","1359.5","","","","1","stimuli/tree_lowercase.png","stimuli/stim011_animate_face_3.png","stimuli/stim020_inanimate_tree_4.png","233"
"html-button-response-mod","242","740558","0.0-242.0","76283","","","","","","triplet","1366.5","","","","2","stimuli/stim013_inanimate_boats_1.png","stimuli/stim016_inanimate_boats_4.png","stimuli/stim001_animate_fish_1.png","234"
"html-button-response-mod","243","742740","0.0-243.0","76283","","","","","","triplet","1669.8000000000466","","","","2","stimuli/stim022_inanimate_tools_2.png","stimuli/stim016_inanimate_boats_4.png","stimuli/stim005_animate_bird_1.png","235"
"html-button-response-mod","244","744772","0.0-244.0","76283","","","","","","triplet","1524.5","","","","2","stimuli/stim018_inanimate_tree_2.png","stimuli/fish_lowercase.png","stimuli/stim023_inanimate_tools_3.png","236"
"html-button-response-mod","245","746573","0.0-245.0","76283","","","","","","triplet","1285.8999999999069","","","","0","stimuli/stim016_inanimate_boats_4.png","stimuli/stim010_animate_face_2.png","stimuli/stim004_animate_fish_4.png","237"
"html-button-response-mod","246","748285","0.0-246.0","76283","","","","","","triplet","1207.1000000000931","","","","0","stimuli/stim012_animate_face_4.png","stimuli/stim007_animate_bird_3.png","stimuli/bird_uppercase.png","238"
"html-button-response-mod","247","750629","0.0-247.0","76283","","","","","","triplet","1824.8000000000466","","","","0","stimuli/stim001_animate_fish_1.png","stimuli/stim015_inanimate_boats_3.png","stimuli/tools_lowercase.png","239"
"html-button-response-mod","248","765485","0.0-248.0","76283","","","","","","triplet","14348.199999999953","","","","2","stimuli/stim008_animate_bird_4.png","stimuli/stim005_animate_bird_1.png","stimuli/stim006_animate_bird_2.png","240"
"html-button-response-mod","249","767404","0.0-249.0","76283","","","","","","triplet","1407.6000000000931","","","","2","stimuli/tools_lowercase.png","stimuli/stim021_inanimate_tools_1.png","stimuli/stim018_inanimate_tree_2.png","241"
"html-button-response-mod","250","769320","0.0-250.0","76283","","","","","","triplet","1412.1999999999534","","","","2","stimuli/bird_uppercase.png","stimuli/stim007_animate_bird_3.png","stimuli/face_lowercase.png","242"
"html-button-response-mod","251","772262","0.0-251.0","76283","","","","","","triplet","2437.899999999907","","","","1","stimuli/stim017_inanimate_tree_1.png","stimuli/stim023_inanimate_tools_3.png","stimuli/face_lowercase.png","243"
"html-button-response-mod","252","774469","0.0-252.0","76283","","","","","","triplet","1689.5","","","","1","stimuli/bird_lowercase.png","stimuli/stim002_animate_fish_2.png","stimuli/stim006_animate_bird_2.png","244"
"html-button-response-mod","253","776723","0.0-253.0","76283","","","","","","triplet","1743","","","","0","stimuli/stim014_inanimate_boats_2.png","stimuli/stim008_animate_bird_4.png","stimuli/fish_uppercase.png","245"
"html-button-response-mod","254","778597","0.0-254.0","76283","","","","","","triplet","1369.3000000000466","","","","1","stimuli/stim014_inanimate_boats_2.png","stimuli/stim020_inanimate_tree_4.png","stimuli/boats_uppercase.png","246"
"html-button-response-mod","255","780521","0.0-255.0","76283","","","","","","triplet","1405","","","","0","stimuli/tools_uppercase.png","stimuli/stim010_animate_face_2.png","stimuli/stim004_animate_fish_4.png","247"
"html-button-response-mod","256","782077","0.0-256.0","76283","","","","","","triplet","1047.5","","","","0","stimuli/stim007_animate_bird_3.png","stimuli/stim021_inanimate_tools_1.png","stimuli/stim024_inanimate_tools_4.png","248"
"html-button-response-mod","257","783741","0.0-257.0","76283","","","","","","triplet","1155.0999999998603","","","","2","stimuli/stim012_animate_face_4.png","stimuli/stim006_animate_bird_2.png","stimuli/stim015_inanimate_boats_3.png","249"
"html-button-response","258","785189","0.0-258.0","76283","","","","","","break","935.3999999999069","<p>BREAK</p><p>Take a break for as long as you need</p><p>Click the button to continue</p>","0","","","","","",""
"html-button-response-mod","259","787949","0.0-259.0","76283","","","","","","triplet","2758.5","","","","1","stimuli/fish_lowercase.png","stimuli/boats_lowercase.png","stimuli/tree_uppercase.png","250"
"html-button-response-mod","260","789792","0.0-260.0","76283","","","","","","triplet","1332.8000000000466","","","","0","stimuli/bird_uppercase.png","stimuli/tools_uppercase.png","stimuli/stim021_inanimate_tools_1.png","251"
"html-button-response-mod","261","792017","0.0-261.0","76283","","","","","","triplet","1706.5","","","","0","stimuli/stim021_inanimate_tools_1.png","stimuli/fish_uppercase.png","stimuli/stim003_animate_fish_3.png","252"
"html-button-response-mod","262","794228","0.0-262.0","76283","","","","","","triplet","1693.5","","","","2","stimuli/fish_lowercase.png","stimuli/stim006_animate_bird_2.png","stimuli/stim013_inanimate_boats_1.png","253"
"html-button-response-mod","263","795916","0.0-263.0","76283","","","","","","triplet","1184.1999999999534","","","","2","stimuli/stim004_animate_fish_4.png","stimuli/stim006_animate_bird_2.png","stimuli/stim014_inanimate_boats_2.png","254"
"html-button-response-mod","264","797534","0.0-264.0","76283","","","","","","triplet","1113.4000000001397","","","","0","stimuli/stim005_animate_bird_1.png","stimuli/stim015_inanimate_boats_3.png","stimuli/boats_lowercase.png","255"
"html-button-response-mod","265","799177","0.0-265.0","76283","","","","","","triplet","1139.7999999998137","","","","1","stimuli/boats_uppercase.png","stimuli/stim017_inanimate_tree_1.png","stimuli/stim015_inanimate_boats_3.png","256"
"html-button-response-mod","266","801113","0.0-266.0","76283","","","","","","triplet","1429.6999999999534","","","","1","stimuli/stim014_inanimate_boats_2.png","stimuli/stim001_animate_fish_1.png","stimuli/stim023_inanimate_tools_3.png","257"
"html-button-response-mod","267","803265","0.0-267.0","76283","","","","","","triplet","1639.8999999999069","","","","0","stimuli/stim007_animate_bird_3.png","stimuli/boats_lowercase.png","stimuli/boats_uppercase.png","258"
"html-button-response-mod","268","805001","0.0-268.0","76283","","","","","","triplet","1223","","","","1","stimuli/stim004_animate_fish_4.png","stimuli/stim022_inanimate_tools_2.png","stimuli/fish_lowercase.png","259"
"html-button-response-mod","269","808781","0.0-269.0","76283","","","","","","triplet","3265.399999999907","","","","0","stimuli/stim010_animate_face_2.png","stimuli/bird_uppercase.png","stimuli/fish_lowercase.png","260"
"html-button-response-mod","270","811145","0.0-270.0","76283","","","","","","triplet","1837.3000000000466","","","","1","stimuli/fish_lowercase.png","stimuli/tools_lowercase.png","stimuli/bird_uppercase.png","261"
"html-button-response-mod","271","813457","0.0-271.0","76283","","","","","","triplet","1802.6999999999534","","","","1","stimuli/stim011_animate_face_3.png","stimuli/boats_lowercase.png","stimuli/stim017_inanimate_tree_1.png","262"
"html-button-response-mod","272","815737","0.0-272.0","76283","","","","","","triplet","1768.6000000000931","","","","2","stimuli/stim002_animate_fish_2.png","stimuli/tree_uppercase.png","stimuli/boats_uppercase.png","263"
"html-button-response-mod","273","818008","0.0-273.0","76283","","","","","","triplet","1765.1000000000931","","","","1","stimuli/tools_uppercase.png","stimuli/stim016_inanimate_boats_4.png","stimuli/stim024_inanimate_tools_4.png","264"
"html-button-response-mod","274","819885","0.0-274.0","76283","","","","","","triplet","1367.3000000000466","","","","2","stimuli/stim016_inanimate_boats_4.png","stimuli/stim014_inanimate_boats_2.png","stimuli/stim010_animate_face_2.png","265"
"html-button-response-mod","275","822033","0.0-275.0","76283","","","","","","triplet","1630.7000000001863","","","","2","stimuli/stim011_animate_face_3.png","stimuli/face_lowercase.png","stimuli/tools_uppercase.png","266"
"html-button-response-mod","276","825185","0.0-276.0","76283","","","","","","triplet","2640.5","","","","1","stimuli/stim020_inanimate_tree_4.png","stimuli/stim015_inanimate_boats_3.png","stimuli/stim005_animate_bird_1.png","267"
"html-button-response-mod","277","827837","0.0-277.0","76283","","","","","","triplet","2140.5999999998603","","","","2","stimuli/tree_uppercase.png","stimuli/stim005_animate_bird_1.png","stimuli/boats_lowercase.png","268"
"html-button-response-mod","278","829573","0.0-278.0","76283","","","","","","triplet","1223.8999999999069","","","","2","stimuli/bird_lowercase.png","stimuli/stim003_animate_fish_3.png","stimuli/stim007_animate_bird_3.png","269"
"html-button-response-mod","279","832185","0.0-279.0","76283","","","","","","triplet","2097.1999999999534","","","","2","stimuli/bird_lowercase.png","stimuli/fish_lowercase.png","stimuli/stim021_inanimate_tools_1.png","270"
"html-button-response-mod","280","834241","0.0-280.0","76283","","","","","","triplet","1545.5999999998603","","","","2","stimuli/stim020_inanimate_tree_4.png","stimuli/tree_lowercase.png","stimuli/stim005_animate_bird_1.png","271"
"html-button-response-mod","281","836369","0.0-281.0","76283","","","","","","triplet","1622.5999999998603","","","","0","stimuli/stim022_inanimate_tools_2.png","stimuli/stim005_animate_bird_1.png","stimuli/stim001_animate_fish_1.png","272"
"html-button-response-mod","282","840169","0.0-282.0","76283","","","","","","triplet","3289.4000000001397","","","","0","stimuli/stim018_inanimate_tree_2.png","stimuli/stim024_inanimate_tools_4.png","stimuli/boats_uppercase.png","273"
"html-button-response-mod","283","841964","0.0-283.0","76283","","","","","","triplet","1275.6999999999534","","","","2","stimuli/stim009_animate_face_1.png","stimuli/stim004_animate_fish_4.png","stimuli/stim023_inanimate_tools_3.png","274"
"html-button-response-mod","284","844197","0.0-284.0","76283","","","","","","triplet","1728.6999999999534","","","","2","stimuli/stim016_inanimate_boats_4.png","stimuli/stim014_inanimate_boats_2.png","stimuli/face_uppercase.png","275"
"html-button-response-mod","285","846489","0.0-285.0","76283","","","","","","triplet","1777.7000000001863","","","","2","stimuli/face_lowercase.png","stimuli/fish_lowercase.png","stimuli/tools_lowercase.png","276"
"html-button-response-mod","286","848797","0.0-286.0","76283","","","","","","triplet","1795.9000000001397","","","","1","stimuli/stim004_animate_fish_4.png","stimuli/stim023_inanimate_tools_3.png","stimuli/fish_uppercase.png","277"
"html-button-response-mod","287","850333","0.0-287.0","76283","","","","","","triplet","1020.9000000001397","","","","2","stimuli/boats_uppercase.png","stimuli/stim016_inanimate_boats_4.png","stimuli/stim012_animate_face_4.png","278"
"html-button-response-mod","288","852217","0.0-288.0","76283","","","","","","triplet","1373.5","","","","0","stimuli/stim005_animate_bird_1.png","stimuli/stim021_inanimate_tools_1.png","stimuli/tools_uppercase.png","279"
"html-button-response-mod","289","854593","0.0-289.0","76283","","","","","","triplet","1866.5","","","","1","stimuli/stim009_animate_face_1.png","stimuli/stim016_inanimate_boats_4.png","stimuli/stim018_inanimate_tree_2.png","280"
"html-button-response-mod","290","856425","0.0-290.0","76283","","","","","","triplet","1319.1999999999534","","","","0","stimuli/stim014_inanimate_boats_2.png","stimuli/stim004_animate_fish_4.png","stimuli/stim010_animate_face_2.png","281"
"html-button-response-mod","291","857897","0.0-291.0","76283","","","","","","triplet","952.3999999999069","","","","1","stimuli/stim017_inanimate_tree_1.png","stimuli/stim006_animate_bird_2.png","stimuli/stim018_inanimate_tree_2.png","282"
"html-button-response-mod","292","860569","0.0-292.0","76283","","","","","","triplet","2160.3000000000466","","","","0","stimuli/tools_lowercase.png","stimuli/bird_uppercase.png","stimuli/fish_uppercase.png","283"
"html-button-response-mod","293","862969","0.0-293.0","76283","","","","","","triplet","1886.5","","","","1","stimuli/face_lowercase.png","stimuli/stim008_animate_bird_4.png","stimuli/stim009_animate_face_1.png","284"
"html-button-response-mod","294","865481","0.0-294.0","76283","","","","","","triplet","1998","","","","2","stimuli/stim004_animate_fish_4.png","stimuli/stim005_animate_bird_1.png","stimuli/stim015_inanimate_boats_3.png","285"
"html-button-response-mod","295","867681","0.0-295.0","76283","","","","","","triplet","1691.0999999998603","","","","1","stimuli/boats_uppercase.png","stimuli/tools_lowercase.png","stimuli/stim015_inanimate_boats_3.png","286"
"html-button-response-mod","296","869533","0.0-296.0","76283","","","","","","triplet","1342.2000000001863","","","","2","stimuli/tree_lowercase.png","stimuli/stim020_inanimate_tree_4.png","stimuli/stim022_inanimate_tools_2.png","287"
"html-button-response-mod","297","871969","0.0-297.0","76283","","","","","","triplet","1928.1999999999534","","","","1","stimuli/stim024_inanimate_tools_4.png","stimuli/stim005_animate_bird_1.png","stimuli/stim015_inanimate_boats_3.png","288"
"html-button-response-mod","298","873969","0.0-298.0","76283","","","","","","triplet","1480.1999999999534","","","","1","stimuli/stim009_animate_face_1.png","stimuli/stim021_inanimate_tools_1.png","stimuli/face_lowercase.png","289"
"html-button-response-mod","299","877045","0.0-299.0","76283","","","","","","triplet","2563.5","","","","1","stimuli/stim010_animate_face_2.png","stimuli/tree_lowercase.png","stimuli/stim001_animate_fish_1.png","290"
"html-button-response-mod","300","878832","0.0-300.0","76283","","","","","","triplet","1266.5","","","","2","stimuli/stim007_animate_bird_3.png","stimuli/bird_uppercase.png","stimuli/stim023_inanimate_tools_3.png","291"
"html-button-response-mod","301","880993","0.0-301.0","76283","","","","","","triplet","1654.5999999998603","","","","0","stimuli/tools_uppercase.png","stimuli/bird_uppercase.png","stimuli/stim004_animate_fish_4.png","292"
"html-button-response-mod","302","882901","0.0-302.0","76283","","","","","","triplet","1399.3000000000466","","","","1","stimuli/stim014_inanimate_boats_2.png","stimuli/stim008_animate_bird_4.png","stimuli/stim015_inanimate_boats_3.png","293"
"html-button-response-mod","303","884865","0.0-303.0","76283","","","","","","triplet","1447.1999999999534","","","","1","stimuli/stim017_inanimate_tree_1.png","stimuli/stim022_inanimate_tools_2.png","stimuli/stim012_animate_face_4.png","294"
"html-button-response-mod","304","889137","0.0-304.0","76283","","","","","","triplet","3758.3000000000466","","","","2","stimuli/stim002_animate_fish_2.png","stimuli/bird_uppercase.png","stimuli/face_uppercase.png","295"
"html-button-response-mod","305","892481","0.0-305.0","76283","","","","","","triplet","2825.5","","","","2","stimuli/stim022_inanimate_tools_2.png","stimuli/tools_lowercase.png","stimuli/fish_uppercase.png","296"
"html-button-response-mod","306","894817","0.0-306.0","76283","","","","","","triplet","1826.3999999999069","","","","0","stimuli/stim014_inanimate_boats_2.png","stimuli/stim019_inanimate_tree_3.png","stimuli/stim002_animate_fish_2.png","297"
"html-button-response-mod","307","898873","0.0-307.0","76283","","","","","","triplet","3548","","","","0","stimuli/stim002_animate_fish_2.png","stimuli/boats_uppercase.png","stimuli/tools_uppercase.png","298"
"html-button-response-mod","308","900585","0.0-308.0","76283","","","","","","triplet","1197.1000000000931","","","","2","stimuli/stim008_animate_bird_4.png","stimuli/bird_lowercase.png","stimuli/fish_uppercase.png","299"
"html-button-response","309","902441","0.0-309.0","76283","","","","","","break","1350.2999999998137","<p>BREAK</p><p>Take a break for as long as you need</p><p>Click the button to continue</p>","0","","","","","",""
"html-button-response-mod","310","904433","0.0-310.0","76283","","","","","","triplet","1990.1999999999534","","","","0","stimuli/tools_uppercase.png","stimuli/stim007_animate_bird_3.png","stimuli/fish_uppercase.png","300"
"html-button-response-mod","311","906626","0.0-311.0","76283","","","","","","triplet","1684.1000000000931","","","","0","stimuli/stim022_inanimate_tools_2.png","stimuli/stim007_animate_bird_3.png","stimuli/tree_uppercase.png","301"
"html-button-response-mod","312","909349","0.0-312.0","76283","","","","","","triplet","2219.4000000001397","","","","2","stimuli/stim004_animate_fish_4.png","stimuli/stim002_animate_fish_2.png","stimuli/bird_uppercase.png","302"
"html-button-response-mod","313","912433","0.0-313.0","76283","","","","","","triplet","2578.3000000000466","","","","2","stimuli/stim012_animate_face_4.png","stimuli/tree_uppercase.png","stimuli/stim014_inanimate_boats_2.png","303"
"html-button-response-mod","314","915001","0.0-314.0","76283","","","","","","triplet","2060.5999999998603","","","","2","stimuli/stim012_animate_face_4.png","stimuli/stim008_animate_bird_4.png","stimuli/stim016_inanimate_boats_4.png","304"
"html-button-response-mod","315","917176","0.0-315.0","76283","","","","","","triplet","1669.5999999998603","","","","1","stimuli/stim001_animate_fish_1.png","stimuli/stim014_inanimate_boats_2.png","stimuli/fish_uppercase.png","305"
"html-button-response-mod","316","918865","0.0-316.0","76283","","","","","","triplet","1185.5999999998603","","","","0","stimuli/boats_uppercase.png","stimuli/stim011_animate_face_3.png","stimuli/stim009_animate_face_1.png","306"
"html-button-response-mod","317","920400","0.0-317.0","76283","","","","","","triplet","1020.4000000001397","","","","1","stimuli/stim023_inanimate_tools_3.png","stimuli/stim012_animate_face_4.png","stimuli/stim022_inanimate_tools_2.png","307"
"html-button-response-mod","318","922020","0.0-318.0","76283","","","","","","triplet","1111.4000000001397","","","","1","stimuli/tools_uppercase.png","stimuli/stim012_animate_face_4.png","stimuli/stim014_inanimate_boats_2.png","308"
"html-button-response-mod","319","923760","0.0-319.0","76283","","","","","","triplet","1228.1999999999534","","","","2","stimuli/stim020_inanimate_tree_4.png","stimuli/stim018_inanimate_tree_2.png","stimuli/tools_uppercase.png","309"
"html-button-response-mod","320","925865","0.0-320.0","76283","","","","","","triplet","1590.6999999999534","","","","1","stimuli/stim002_animate_fish_2.png","stimuli/stim015_inanimate_boats_3.png","stimuli/stim017_inanimate_tree_1.png","310"
"html-button-response-mod","321","927449","0.0-321.0","76283","","","","","","triplet","1078.7000000001863","","","","2","stimuli/stim020_inanimate_tree_4.png","stimuli/tree_lowercase.png","stimuli/stim009_animate_face_1.png","311"
"html-button-response-mod","322","930152","0.0-322.0","76283","","","","","","triplet","2196.9000000001397","","","","0","stimuli/stim023_inanimate_tools_3.png","stimuli/fish_uppercase.png","stimuli/tree_lowercase.png","312"
"html-button-response-mod","323","932913","0.0-323.0","76283","","","","","","triplet","2240.100000000093","","","","2","stimuli/bird_lowercase.png","stimuli/stim001_animate_fish_1.png","stimuli/tree_uppercase.png","313"
"html-button-response-mod","324","934913","0.0-324.0","76283","","","","","","triplet","1483.3000000000466","","","","1","stimuli/boats_lowercase.png","stimuli/face_lowercase.png","stimuli/stim022_inanimate_tools_2.png","314"
"html-button-response-mod","325","937449","0.0-325.0","76283","","","","","","triplet","2029.1999999999534","","","","1","stimuli/face_lowercase.png","stimuli/stim013_inanimate_boats_1.png","stimuli/stim006_animate_bird_2.png","315"
"html-button-response-mod","326","939825","0.0-326.0","76283","","","","","","triplet","1864.3999999999069","","","","1","stimuli/stim023_inanimate_tools_3.png","stimuli/bird_lowercase.png","stimuli/stim014_inanimate_boats_2.png","316"
"html-button-response-mod","327","941809","0.0-327.0","76283","","","","","","triplet","1473.5","","","","2","stimuli/face_lowercase.png","stimuli/stim002_animate_fish_2.png","stimuli/stim015_inanimate_boats_3.png","317"
"html-button-response-mod","328","946025","0.0-328.0","76283","","","","","","triplet","3707.0999999998603","","","","2","stimuli/fish_uppercase.png","stimuli/face_lowercase.png","stimuli/stim017_inanimate_tree_1.png","318"
"html-button-response-mod","329","947541","0.0-329.0","76283","","","","","","triplet","1009.4000000001397","","","","2","stimuli/stim001_animate_fish_1.png","stimuli/stim002_animate_fish_2.png","stimuli/stim008_animate_bird_4.png","319"
"html-button-response-mod","330","949476","0.0-330.0","76283","","","","","","triplet","1432.3000000000466","","","","1","stimuli/stim012_animate_face_4.png","stimuli/stim023_inanimate_tools_3.png","stimuli/fish_uppercase.png","320"
"html-button-response-mod","331","951248","0.0-331.0","76283","","","","","","triplet","1257.7999999998137","","","","2","stimuli/stim023_inanimate_tools_3.png","stimuli/tools_uppercase.png","stimuli/stim020_inanimate_tree_4.png","321"
"html-button-response-mod","332","953080","0.0-332.0","76283","","","","","","triplet","1321.1999999999534","","","","2","stimuli/stim024_inanimate_tools_4.png","stimuli/stim023_inanimate_tools_3.png","stimuli/stim009_animate_face_1.png","322"
"html-button-response-mod","333","956001","0.0-333.0","76283","","","","","","triplet","2404.100000000093","","","","0","stimuli/boats_lowercase.png","stimuli/stim006_animate_bird_2.png","stimuli/stim019_inanimate_tree_3.png","323"
"html-button-response-mod","334","963193","0.0-334.0","76283","","","","","","triplet","6681.399999999907","","","","1","stimuli/stim006_animate_bird_2.png","stimuli/bird_lowercase.png","stimuli/stim008_animate_bird_4.png","324"
"html-button-response-mod","335","965785","0.0-335.0","76283","","","","","","triplet","2088.0999999998603","","","","0","stimuli/tools_lowercase.png","stimuli/stim011_animate_face_3.png","stimuli/fish_lowercase.png","325"
"html-button-response-mod","336","967737","0.0-336.0","76283","","","","","","triplet","1446","","","","2","stimuli/stim012_animate_face_4.png","stimuli/stim011_animate_face_3.png","stimuli/stim017_inanimate_tree_1.png","326"
"html-button-response-mod","337","969856","0.0-337.0","76283","","","","","","triplet","1614.3000000000466","","","","2","stimuli/boats_lowercase.png","stimuli/stim015_inanimate_boats_3.png","stimuli/tools_lowercase.png","327"
"html-button-response-mod","338","971849","0.0-338.0","76283","","","","","","triplet","1483.6000000000931","","","","2","stimuli/stim017_inanimate_tree_1.png","stimuli/face_uppercase.png","stimuli/stim023_inanimate_tools_3.png","328"
"html-button-response-mod","339","973729","0.0-339.0","76283","","","","","","triplet","1370.5","","","","2","stimuli/stim004_animate_fish_4.png","stimuli/fish_lowercase.png","stimuli/tools_lowercase.png","329"
"html-button-response-mod","340","975329","0.0-340.0","76283","","","","","","triplet","1081.0999999998603","","","","2","stimuli/stim002_animate_fish_2.png","stimuli/stim004_animate_fish_4.png","stimuli/face_uppercase.png","330"
"html-button-response-mod","341","978301","0.0-341.0","76283","","","","","","triplet","2466.3000000000466","","","","0","stimuli/face_uppercase.png","stimuli/stim010_animate_face_2.png","stimuli/stim012_animate_face_4.png","331"
"html-button-response-mod","342","980921","0.0-342.0","76283","","","","","","triplet","2115.3000000000466","","","","1","stimuli/stim019_inanimate_tree_3.png","stimuli/stim014_inanimate_boats_2.png","stimuli/stim004_animate_fish_4.png","332"
"html-button-response-mod","343","982809","0.0-343.0","76283","","","","","","triplet","1383.1999999999534","","","","0","stimuli/boats_uppercase.png","stimuli/stim004_animate_fish_4.png","stimuli/stim008_animate_bird_4.png","333"
"html-button-response-mod","344","984957","0.0-344.0","76283","","","","","","triplet","1643.8000000000466","","","","2","stimuli/stim019_inanimate_tree_3.png","stimuli/tree_lowercase.png","stimuli/stim008_animate_bird_4.png","334"
"html-button-response-mod","345","987314","0.0-345.0","76283","","","","","","triplet","1851.8999999999069","","","","2","stimuli/stim001_animate_fish_1.png","stimuli/stim012_animate_face_4.png","stimuli/stim022_inanimate_tools_2.png","335"
"html-button-response-mod","346","989873","0.0-346.0","76283","","","","","","triplet","2051.100000000093","","","","1","stimuli/stim003_animate_fish_3.png","stimuli/tree_uppercase.png","stimuli/stim004_animate_fish_4.png","336"
"html-button-response-mod","347","993616","0.0-347.0","76283","","","","","","triplet","3229.0999999998603","","","","2","stimuli/stim001_animate_fish_1.png","stimuli/stim003_animate_fish_3.png","stimuli/stim011_animate_face_3.png","337"
"html-button-response-mod","348","995745","0.0-348.0","76283","","","","","","triplet","1625.5","","","","0","stimuli/stim020_inanimate_tree_4.png","stimuli/stim012_animate_face_4.png","stimuli/stim010_animate_face_2.png","338"
"html-button-response-mod","349","997261","0.0-349.0","76283","","","","","","triplet","1007.2999999998137","","","","2","stimuli/stim018_inanimate_tree_2.png","stimuli/stim020_inanimate_tree_4.png","stimuli/stim009_animate_face_1.png","339"
"html-button-response-mod","350","999296","0.0-350.0","76283","","","","","","triplet","1531.5","","","","0","stimuli/stim012_animate_face_4.png","stimuli/stim022_inanimate_tools_2.png","stimuli/stim014_inanimate_boats_2.png","340"
"html-button-response-mod","351","1004728","0.0-351.0","76283","","","","","","triplet","4922.799999999814","","","","0","stimuli/boats_lowercase.png","stimuli/tree_uppercase.png","stimuli/face_uppercase.png","341"
"html-button-response-mod","352","1007056","0.0-352.0","76283","","","","","","triplet","1816.3000000000466","","","","2","stimuli/stim001_animate_fish_1.png","stimuli/face_lowercase.png","stimuli/boats_lowercase.png","342"
"html-button-response-mod","353","1008297","0.0-353.0","76283","","","","","","triplet","735.6000000000931","","","","2","stimuli/stim010_animate_face_2.png","stimuli/stim011_animate_face_3.png","stimuli/stim016_inanimate_boats_4.png","343"
"html-button-response-mod","354","1011313","0.0-354.0","76283","","","","","","triplet","2504","","","","0","stimuli/stim014_inanimate_boats_2.png","stimuli/bird_uppercase.png","stimuli/tree_lowercase.png","344"
"html-button-response-mod","355","1014233","0.0-355.0","76283","","","","","","triplet","2410.6999999999534","","","","0","stimuli/tree_lowercase.png","stimuli/boats_uppercase.png","stimuli/stim013_inanimate_boats_1.png","345"
"html-button-response-mod","356","1016792","0.0-356.0","76283","","","","","","triplet","2048.0999999998603","","","","1","stimuli/boats_uppercase.png","stimuli/stim016_inanimate_boats_4.png","stimuli/boats_lowercase.png","346"
"html-button-response-mod","357","1018496","0.0-357.0","76283","","","","","","triplet","1180.5","","","","2","stimuli/stim022_inanimate_tools_2.png","stimuli/tools_lowercase.png","stimuli/face_lowercase.png","347"
"html-button-response-mod","358","1020741","0.0-358.0","76283","","","","","","triplet","1732.3999999999069","","","","0","stimuli/tree_uppercase.png","stimuli/stim014_inanimate_boats_2.png","stimuli/tools_uppercase.png","348"
"html-button-response-mod","359","1022793","0.0-359.0","76283","","","","","","triplet","1533.4000000001397","","","","1","stimuli/face_lowercase.png","stimuli/tools_uppercase.png","stimuli/stim006_animate_bird_2.png","349"
"html-button-response","360","1024169","0.0-360.0","76283","","","","","","break","856","<p>BREAK</p><p>Take a break for as long as you need</p><p>Click the button to continue</p>","0","","","","","",""
"html-button-response-mod","361","1026337","0.0-361.0","76283","","","","","","triplet","2166.5","","","","1","stimuli/stim024_inanimate_tools_4.png","stimuli/stim014_inanimate_boats_2.png","stimuli/tools_uppercase.png","350"
"html-button-response-mod","362","1028257","0.0-362.0","76283","","","","","","triplet","1416.4000000001397","","","","1","stimuli/stim021_inanimate_tools_1.png","stimuli/stim004_animate_fish_4.png","stimuli/tools_lowercase.png","351"
"html-button-response-mod","363","1030313","0.0-363.0","76283","","","","","","triplet","1538.8999999999069","","","","0","stimuli/bird_lowercase.png","stimuli/stim008_animate_bird_4.png","stimuli/stim005_animate_bird_1.png","352"
"html-button-response-mod","364","1032153","0.0-364.0","76283","","","","","","triplet","1320.1999999999534","","","","0","stimuli/stim007_animate_bird_3.png","stimuli/stim003_animate_fish_3.png","stimuli/fish_lowercase.png","353"
"html-button-response-mod","365","1033953","0.0-365.0","76283","","","","","","triplet","1283.2999999998137","","","","2","stimuli/tools_uppercase.png","stimuli/stim024_inanimate_tools_4.png","stimuli/boats_lowercase.png","354"
"html-button-response-mod","366","1035513","0.0-366.0","76283","","","","","","triplet","1040.1999999999534","","","","1","stimuli/face_uppercase.png","stimuli/tools_lowercase.png","stimuli/stim012_animate_face_4.png","355"
"html-button-response-mod","367","1038745","0.0-367.0","76283","","","","","","triplet","2724","","","","2","stimuli/stim009_animate_face_1.png","stimuli/stim002_animate_fish_2.png","stimuli/boats_uppercase.png","356"
"html-button-response-mod","368","1041432","0.0-368.0","76283","","","","","","triplet","2170","","","","0","stimuli/stim012_animate_face_4.png","stimuli/stim005_animate_bird_1.png","stimuli/stim008_animate_bird_4.png","357"
"html-button-response-mod","369","1043161","0.0-369.0","76283","","","","","","triplet","1219.3000000000466","","","","2","stimuli/tools_lowercase.png","stimuli/tools_uppercase.png","stimuli/tree_uppercase.png","358"
"html-button-response-mod","370","1045122","0.0-370.0","76283","","","","","","triplet","1446.1999999999534","","","","1","stimuli/stim016_inanimate_boats_4.png","stimuli/stim007_animate_bird_3.png","stimuli/stim024_inanimate_tools_4.png","359"
"html-button-response-mod","371","1047029","0.0-371.0","76283","","","","","","triplet","1399.1000000000931","","","","0","stimuli/boats_lowercase.png","stimuli/stim004_animate_fish_4.png","stimuli/stim017_inanimate_tree_1.png","360"
"html-button-response-mod","372","1049000","0.0-372.0","76283","","","","","","triplet","1463.2000000000698","","","","2","stimuli/stim024_inanimate_tools_4.png","stimuli/stim023_inanimate_tools_3.png","stimuli/stim001_animate_fish_1.png","361"
"html-button-response-mod","373","1050953","0.0-373.0","76283","","","","","","triplet","1433.6000000000931","","","","0","stimuli/boats_uppercase.png","stimuli/stim024_inanimate_tools_4.png","stimuli/stim022_inanimate_tools_2.png","362"
"html-button-response-mod","374","1053409","0.0-374.0","76283","","","","","","triplet","1939.3999999999069","","","","1","stimuli/fish_uppercase.png","stimuli/stim020_inanimate_tree_4.png","stimuli/stim009_animate_face_1.png","363"
"html-button-response-mod","375","1055729","0.0-375.0","76283","","","","","","triplet","1809.1999999997206","","","","1","stimuli/stim011_animate_face_3.png","stimuli/stim018_inanimate_tree_2.png","stimuli/bird_lowercase.png","364"
"html-button-response-mod","376","1057385","0.0-376.0","76283","","","","","","triplet","1136.7999999998137","","","","0","stimuli/tools_lowercase.png","stimuli/stim020_inanimate_tree_4.png","stimuli/stim001_animate_fish_1.png","365"
"html-button-response-mod","377","1058968","0.0-377.0","76283","","","","","","triplet","1070.2999999998137","","","","0","stimuli/stim010_animate_face_2.png","stimuli/stim019_inanimate_tree_3.png","stimuli/bird_lowercase.png","366"
"html-button-response-mod","378","1063281","0.0-378.0","76283","","","","","","triplet","3801.2000000001863","","","","0","stimuli/stim003_animate_fish_3.png","stimuli/stim022_inanimate_tools_2.png","stimuli/stim023_inanimate_tools_3.png","367"
"html-button-response-mod","379","1065012","0.0-379.0","76283","","","","","","triplet","1228","","","","0","stimuli/stim023_inanimate_tools_3.png","stimuli/stim005_animate_bird_1.png","stimuli/stim006_animate_bird_2.png","368"
"html-button-response-mod","380","1066465","0.0-380.0","76283","","","","","","triplet","950.7999999998137","","","","2","stimuli/stim017_inanimate_tree_1.png","stimuli/stim019_inanimate_tree_3.png","stimuli/stim016_inanimate_boats_4.png","369"
"html-button-response-mod","381","1068825","0.0-381.0","76283","","","","","","triplet","1847.8999999999069","","","","1","stimuli/stim004_animate_fish_4.png","stimuli/stim016_inanimate_boats_4.png","stimuli/stim018_inanimate_tree_2.png","370"
"html-button-response-mod","382","1070369","0.0-382.0","76283","","","","","","triplet","1031.1000000000931","","","","2","stimuli/bird_uppercase.png","stimuli/stim006_animate_bird_2.png","stimuli/tools_lowercase.png","371"
"html-button-response-mod","383","1073001","0.0-383.0","76283","","","","","","triplet","2122.600000000093","","","","0","stimuli/stim010_animate_face_2.png","stimuli/bird_uppercase.png","stimuli/stim008_animate_bird_4.png","372"
"html-button-response-mod","384","1075202","0.0-384.0","76283","","","","","","triplet","1696.8999999999069","","","","0","stimuli/stim012_animate_face_4.png","stimuli/boats_lowercase.png","stimuli/stim013_inanimate_boats_1.png","373"
"html-button-response-mod","385","1077516","0.0-385.0","76283","","","","","","triplet","1804.5","","","","1","stimuli/boats_lowercase.png","stimuli/stim012_animate_face_4.png","stimuli/stim022_inanimate_tools_2.png","374"
"html-button-response-mod","386","1079465","0.0-386.0","76283","","","","","","triplet","1443.5","","","","1","stimuli/stim019_inanimate_tree_3.png","stimuli/stim013_inanimate_boats_1.png","stimuli/tree_lowercase.png","375"
"html-button-response-mod","387","1083521","0.0-387.0","76283","","","","","","triplet","3545.0999999996275","","","","1","stimuli/tools_lowercase.png","stimuli/fish_lowercase.png","stimuli/boats_uppercase.png","376"
"html-button-response-mod","388","1087784","0.0-388.0","76283","","","","","","triplet","3758.6999999997206","","","","0","stimuli/stim024_inanimate_tools_4.png","stimuli/boats_lowercase.png","stimuli/fish_uppercase.png","377"
"html-button-response-mod","389","1091857","0.0-389.0","76283","","","","","","triplet","3563.600000000093","","","","0","stimuli/fish_lowercase.png","stimuli/stim023_inanimate_tools_3.png","stimuli/stim013_inanimate_boats_1.png","378"
"html-button-response-mod","390","1094873","0.0-390.0","76283","","","","","","triplet","2510.899999999907","","","","2","stimuli/stim011_animate_face_3.png","stimuli/stim007_animate_bird_3.png","stimuli/boats_lowercase.png","379"
"html-button-response-mod","391","1097857","0.0-391.0","76283","","","","","","triplet","2480.1999999997206","","","","2","stimuli/bird_lowercase.png","stimuli/stim003_animate_fish_3.png","stimuli/stim017_inanimate_tree_1.png","380"
"html-button-response-mod","392","1099593","0.0-392.0","76283","","","","","","triplet","1214.0999999996275","","","","1","stimuli/stim010_animate_face_2.png","stimuli/stim005_animate_bird_1.png","stimuli/stim012_animate_face_4.png","381"
"html-button-response-mod","393","1102009","0.0-393.0","76283","","","","","","triplet","1901.7999999998137","","","","0","stimuli/tools_lowercase.png","stimuli/bird_lowercase.png","stimuli/stim011_animate_face_3.png","382"
"html-button-response-mod","394","1104113","0.0-394.0","76283","","","","","","triplet","1594.5","","","","1","stimuli/stim007_animate_bird_3.png","stimuli/stim022_inanimate_tools_2.png","stimuli/stim010_animate_face_2.png","383"
"html-button-response-mod","395","1106393","0.0-395.0","76283","","","","","","triplet","1766.2999999998137","","","","1","stimuli/stim016_inanimate_boats_4.png","stimuli/stim005_animate_bird_1.png","stimuli/tools_lowercase.png","384"
"html-button-response-mod","396","1111665","0.0-396.0","76283","","","","","","triplet","4757.600000000093","","","","0","stimuli/tree_lowercase.png","stimuli/stim014_inanimate_boats_2.png","stimuli/stim021_inanimate_tools_1.png","385"
"html-button-response-mod","397","1113816","0.0-397.0","76283","","","","","","triplet","1640.5","","","","0","stimuli/tools_uppercase.png","stimuli/face_lowercase.png","stimuli/stim008_animate_bird_4.png","386"
"html-button-response-mod","398","1118072","0.0-398.0","76283","","","","","","triplet","3741.7999999998137","","","","2","stimuli/stim024_inanimate_tools_4.png","stimuli/stim013_inanimate_boats_1.png","stimuli/stim017_inanimate_tree_1.png","387"
"html-button-response-mod","399","1120216","0.0-399.0","76283","","","","","","triplet","1633.5","","","","0","stimuli/stim015_inanimate_boats_3.png","stimuli/bird_lowercase.png","stimuli/face_lowercase.png","388"
"html-button-response-mod","400","1123001","0.0-400.0","76283","","","","","","triplet","2271.100000000093","","","","1","stimuli/stim004_animate_fish_4.png","stimuli/tree_uppercase.png","stimuli/bird_lowercase.png","389"
"html-button-response-mod","401","1124824","0.0-401.0","76283","","","","","","triplet","1318.0999999996275","","","","0","stimuli/tree_lowercase.png","stimuli/stim004_animate_fish_4.png","stimuli/stim005_animate_bird_1.png","390"
"html-button-response-mod","402","1127097","0.0-402.0","76283","","","","","","triplet","1764.8999999999069","","","","2","stimuli/bird_lowercase.png","stimuli/stim019_inanimate_tree_3.png","stimuli/stim024_inanimate_tools_4.png","391"
"html-button-response-mod","403","1129169","0.0-403.0","76283","","","","","","triplet","1554.7000000001863","","","","0","stimuli/tools_uppercase.png","stimuli/stim009_animate_face_1.png","stimuli/bird_lowercase.png","392"
"html-button-response-mod","404","1130561","0.0-404.0","76283","","","","","","triplet","877.3999999999069","","","","1","stimuli/stim018_inanimate_tree_2.png","stimuli/stim001_animate_fish_1.png","stimuli/stim019_inanimate_tree_3.png","393"
"html-button-response-mod","405","1132585","0.0-405.0","76283","","","","","","triplet","1512.6000000000931","","","","1","stimuli/stim007_animate_bird_3.png","stimuli/stim018_inanimate_tree_2.png","stimuli/stim003_animate_fish_3.png","394"
"html-button-response-mod","406","1134768","0.0-406.0","76283","","","","","","triplet","1661.1000000000931","","","","1","stimuli/stim002_animate_fish_2.png","stimuli/boats_uppercase.png","stimuli/bird_lowercase.png","395"
"html-button-response-mod","407","1138465","0.0-407.0","76283","","","","","","triplet","3192","","","","2","stimuli/stim006_animate_bird_2.png","stimuli/fish_lowercase.png","stimuli/stim010_animate_face_2.png","396"
"html-button-response-mod","408","1140524","0.0-408.0","76283","","","","","","triplet","1555.2999999998137","","","","0","stimuli/boats_lowercase.png","stimuli/stim009_animate_face_1.png","stimuli/face_uppercase.png","397"
"html-button-response-mod","409","1142201","0.0-409.0","76283","","","","","","triplet","1168.0999999996275","","","","0","stimuli/boats_lowercase.png","stimuli/face_lowercase.png","stimuli/stim009_animate_face_1.png","398"
"html-button-response-mod","410","1143961","0.0-410.0","76283","","","","","","triplet","1256.8000000002794","","","","0","stimuli/stim021_inanimate_tools_1.png","stimuli/bird_lowercase.png","stimuli/stim004_animate_fish_4.png","399"
"html-button-response","411","1145841","0.0-411.0","76283","","","","","","break","1364","<p>BREAK</p><p>Take a break for as long as you need</p><p>Click the button to continue</p>","0","","","","","",""
"survey-text","412","1152857","0.0-412.0","76283","","","","","","data_patterns","6991.200000000186","","{""Q0"":""""}","","","","","",""
"survey-text","413","1157001","0.0-413.0","76283","","","","","","age_question","4141.699999999721","","{""Age"":""20""}","","","","","",""
"html-button-response","414","1158991","0.0-414.0","76283","","","","","","gender_question","1988.6999999997206","How would you like your gender to be recorded?","1","","","","","",""
