"trial_type","trial_index","time_elapsed","internal_node_id","subject","success","timeout","failed_images","failed_audio","failed_video","test_part","rt","stimulus","response","end_time","button_pressed","stim0","stim1","stim2","trialnr"
"pavlovia","0","8","0.0-0.0","76524","","","","","","","","","","","","","","",""
"preload","1","1259","0.0-1.0","76524","true","false","[]","[]","[]","preload","","","","","","","","",""
"html-button-response","2","5422","0.0-2.0","76524","","","","","","","4159.79999999702","<p>Welcome to the experiment. To begin, please read the following and press the button at the bottom of the screen.</p><p></p><p><strong>Project Name: A study on cognitive processes involved in visual perception</p></strong><p></p><p><strong>PARTICIPANT INFORMATION STATEMENT</strong></p><p></p><strong>(1) What is the study about?</strong><br>You are invited to participate in a study that investigates the cognitive processes involved in perceiving and recognizing visual stimuli.If you decide to participate, you will be asked to complete a task in which you will view pictures, letters, numbers, or words presented on a computer screen.<br><strong>(2) Who can participate?</strong><br>Anyone aged 18 years or over with access to a computer (not a phone/tablet)<br><strong>(3) Where is the study located?</strong><br>The study will be conducted in your browser<br><strong>(4) Who is carrying out the study?</strong><br>The study is being conducted by Sophia Shatek from the Computational Cognitive Neuroscience laboratory at the University of Sydney.<br><strong>(5) What does the study involve?</strong><br>In this study, you will be asked to perform tasks where you will see different stimuli appear on the computer screen.You will respond by pressing a key or using a computer mouse.<br><strong>(6) How much time will the study take?</strong><br>The study takes about 30 minutes<br><strong>(7)	Can I withdraw from the study?</strong><br>Being in this study is completely voluntary - you are not under any obligation to consent. You can withdraw at any time without having to give a reason and without penalty.<br><strong>(8) Will anyone else know the results?</strong><br>All aspects of the study, including results, will be strictly confidential and only the researchers will have access to information on participants.The results and data from the study may be submitted for publication or shared with other research labs, but individual participants will not be identifiable.<br><strong>(9) Will the study benefit me?</strong><br>You will be awarded 0.5 credits for your participation.<br><strong>(10) Can I tell other people about the study?</strong><br>Yes, please tell them to contact Dr Thomas Carlson by email at thomas.carlson@sydney.edu.au.<br><strong>(11) What if I require further information about the study or my involvement in it?</strong><br>When you have read this information, the investigator will discuss it with you further and answer any questions you may have.If you would like to know more at any stage, please feel free to contact Dr Thomas Carlson directly by email at thomas.carlson@sydney.edu.au.If you would like to be informed about the outcomes of the study, contact Dr Thomas Carlson directly by email at thomas.carlson@sydney.edu.au.<br><strong>(12) What if I have a complaint or any concerns?</strong><br>Any person with concerns or complaints about the conduct of a research study can contact The Manager,Human Ethics Administration, University of Sydney on +61 2 8627 8176 (Telephone); +61 2 8627 8177 (Facsimile) or ro.humanethics@sydney.edu.au (Email).</p><p></p><strong>By participating in this experiment, you consent to participate in this study and acknowledge that:</strong><br>1. The procedures required for the project and the times involved have been explained to me, and any questions I have about the project have been answered to my satisfaction.<br>2.	I have read the Above Information Statement and have been given the opportunity to discuss the information and my involvement in the project with the researcher/s.<br>3. I understand that allowing my data to be used in research reports is completely voluntary - I am not under any obligation to consent.<br>4. I understand that my involvement is strictly confidential. I understand that any research data gathered from the results of the study may be publishedhowever no information about me will be used in any way that is identifiable.</p><p></p>","0","","","","","",""
"html-button-response","3","6594","0.0-3.0","76524","","","","","","opening_instructions","1168.800000000745","<p>In this experiment, you will see three images appear on the screen.</p><p>You need to click the 'odd one out', or the image </p><p>that is MOST CONCEPTUALLY DIFFERENT to the other two. </p><p>(e.g., the word 'tree' and a picture of a tree are conceptually SIMILAR, </p><p> but the word 'tree' and the word 'boat' are conceptually DIFFERENT even though they look similar) </p><p>Just go with your intuition, don't spend too long thinking about each one.</p>","0","10123.199999999255","","","","",""
"html-button-response-mod","4","8528","0.0-4.0","76524","","","","","","triplet","1930.199999999255","","","","0","stimuli/stim014_inanimate_boats_2.png","stimuli/stim020_inanimate_tree_4.png","stimuli/stim019_inanimate_tree_3.png","0"
"html-button-response-mod","5","14870","0.0-5.0","76524","","","","","","triplet","5837.300000000745","","","","2","stimuli/stim003_animate_fish_3.png","stimuli/stim009_animate_face_1.png","stimuli/stim021_inanimate_tools_1.png","1"
"html-button-response-mod","6","17699","0.0-6.0","76524","","","","","","triplet","2323.300000000745","","","","2","stimuli/stim022_inanimate_tools_2.png","stimuli/stim016_inanimate_boats_4.png","stimuli/stim001_animate_fish_1.png","2"
"html-button-response-mod","7","20481","0.0-7.0","76524","","","","","","triplet","2274.900000002235","","","","0","stimuli/tools_uppercase.png","stimuli/stim016_inanimate_boats_4.png","stimuli/stim008_animate_bird_4.png","3"
"html-button-response-mod","8","26359","0.0-8.0","76524","","","","","","triplet","5372.29999999702","","","","0","stimuli/stim020_inanimate_tree_4.png","stimuli/stim015_inanimate_boats_3.png","stimuli/fish_lowercase.png","4"
"html-button-response-mod","9","29686","0.0-9.0","76524","","","","","","triplet","2815.7999999970198","","","","1","stimuli/stim003_animate_fish_3.png","stimuli/face_uppercase.png","stimuli/stim017_inanimate_tree_1.png","5"
"html-button-response-mod","10","33175","0.0-10.0","76524","","","","","","triplet","2983.60000000149","","","","1","stimuli/stim015_inanimate_boats_3.png","stimuli/face_lowercase.png","stimuli/stim024_inanimate_tools_4.png","6"
"html-button-response-mod","11","36404","0.0-11.0","76524","","","","","","triplet","2725.39999999851","","","","1","stimuli/stim005_animate_bird_1.png","stimuli/fish_uppercase.png","stimuli/bird_lowercase.png","7"
"html-button-response-mod","12","45357","0.0-12.0","76524","","","","","","triplet","8450","","","","0","stimuli/stim018_inanimate_tree_2.png","stimuli/face_uppercase.png","stimuli/boats_uppercase.png","8"
"html-button-response-mod","13","47420","0.0-13.0","76524","","","","","","triplet","1556.6000000014901","","","","1","stimuli/face_uppercase.png","stimuli/stim021_inanimate_tools_1.png","stimuli/tree_uppercase.png","9"
"html-button-response-mod","14","49389","0.0-14.0","76524","","","","","","triplet","1460.7000000029802","","","","0","stimuli/stim013_inanimate_boats_1.png","stimuli/stim002_animate_fish_2.png","stimuli/stim001_animate_fish_1.png","10"
"html-button-response-mod","15","50957","0.0-15.0","76524","","","","","","triplet","1062.6000000014901","","","","2","stimuli/stim018_inanimate_tree_2.png","stimuli/stim019_inanimate_tree_3.png","stimuli/face_lowercase.png","11"
"html-button-response-mod","16","53117","0.0-16.0","76524","","","","","","triplet","1651.800000000745","","","","0","stimuli/fish_lowercase.png","stimuli/stim015_inanimate_boats_3.png","stimuli/stim013_inanimate_boats_1.png","12"
"html-button-response-mod","17","54849","0.0-17.0","76524","","","","","","triplet","1228.800000000745","","","","1","stimuli/stim017_inanimate_tree_1.png","stimuli/stim002_animate_fish_2.png","stimuli/stim018_inanimate_tree_2.png","13"
"html-button-response-mod","18","60441","0.0-18.0","76524","","","","","","triplet","5085.199999999255","","","","2","stimuli/stim011_animate_face_3.png","stimuli/stim017_inanimate_tree_1.png","stimuli/stim016_inanimate_boats_4.png","14"
"html-button-response-mod","19","63382","0.0-19.0","76524","","","","","","triplet","2434.599999997765","","","","0","stimuli/tools_uppercase.png","stimuli/stim013_inanimate_boats_1.png","stimuli/stim012_animate_face_4.png","15"
"html-button-response-mod","20","64824","0.0-20.0","76524","","","","","","triplet","938.6999999992549","","","","2","stimuli/stim005_animate_bird_1.png","stimuli/stim008_animate_bird_4.png","stimuli/fish_lowercase.png","16"
"html-button-response-mod","21","67344","0.0-21.0","76524","","","","","","triplet","2016","","","","1","stimuli/stim009_animate_face_1.png","stimuli/stim017_inanimate_tree_1.png","stimuli/stim004_animate_fish_4.png","17"
"html-button-response-mod","22","69015","0.0-22.0","76524","","","","","","triplet","1165.8999999985099","","","","1","stimuli/tree_lowercase.png","stimuli/stim007_animate_bird_3.png","stimuli/face_lowercase.png","18"
"html-button-response-mod","23","71089","0.0-23.0","76524","","","","","","triplet","1570.300000000745","","","","0","stimuli/face_uppercase.png","stimuli/stim009_animate_face_1.png","stimuli/stim003_animate_fish_3.png","19"
"html-button-response-mod","24","75323","0.0-24.0","76524","","","","","","triplet","3729.5","","","","0","stimuli/stim007_animate_bird_3.png","stimuli/stim023_inanimate_tools_3.png","stimuli/stim016_inanimate_boats_4.png","20"
"html-button-response-mod","25","78009","0.0-25.0","76524","","","","","","triplet","2182.10000000149","","","","0","stimuli/stim023_inanimate_tools_3.png","stimuli/stim020_inanimate_tree_4.png","stimuli/stim006_animate_bird_2.png","21"
"html-button-response-mod","26","80390","0.0-26.0","76524","","","","","","triplet","1874.800000000745","","","","0","stimuli/fish_lowercase.png","stimuli/stim024_inanimate_tools_4.png","stimuli/stim015_inanimate_boats_3.png","22"
"html-button-response-mod","27","82963","0.0-27.0","76524","","","","","","triplet","2064.800000000745","","","","1","stimuli/stim011_animate_face_3.png","stimuli/stim018_inanimate_tree_2.png","stimuli/stim022_inanimate_tools_2.png","23"
"html-button-response-mod","28","87556","0.0-28.0","76524","","","","","","triplet","4087","","","","1","stimuli/stim022_inanimate_tools_2.png","stimuli/stim010_animate_face_2.png","stimuli/stim016_inanimate_boats_4.png","24"
"html-button-response-mod","29","91530","0.0-29.0","76524","","","","","","triplet","3468.400000002235","","","","0","stimuli/stim022_inanimate_tools_2.png","stimuli/bird_uppercase.png","stimuli/stim006_animate_bird_2.png","25"
"html-button-response-mod","30","95336","0.0-30.0","76524","","","","","","triplet","3301.10000000149","","","","1","stimuli/stim009_animate_face_1.png","stimuli/tools_lowercase.png","stimuli/stim020_inanimate_tree_4.png","26"
"html-button-response-mod","31","97085","0.0-31.0","76524","","","","","","triplet","1241.5","","","","2","stimuli/face_lowercase.png","stimuli/tree_uppercase.png","stimuli/stim007_animate_bird_3.png","27"
"html-button-response-mod","32","98905","0.0-32.0","76524","","","","","","triplet","1312.800000000745","","","","1","stimuli/stim003_animate_fish_3.png","stimuli/tree_lowercase.png","stimuli/stim008_animate_bird_4.png","28"
"html-button-response-mod","33","100892","0.0-33.0","76524","","","","","","triplet","1481.800000000745","","","","1","stimuli/stim020_inanimate_tree_4.png","stimuli/fish_uppercase.png","stimuli/stim013_inanimate_boats_1.png","29"
"html-button-response-mod","34","103630","0.0-34.0","76524","","","","","","triplet","2233.2999999970198","","","","0","stimuli/stim006_animate_bird_2.png","stimuli/stim010_animate_face_2.png","stimuli/face_lowercase.png","30"
"html-button-response-mod","35","106972","0.0-35.0","76524","","","","","","triplet","2834.199999999255","","","","1","stimuli/fish_lowercase.png","stimuli/stim009_animate_face_1.png","stimuli/stim001_animate_fish_1.png","31"
"html-button-response-mod","36","109162","0.0-36.0","76524","","","","","","triplet","1682","","","","1","stimuli/bird_lowercase.png","stimuli/boats_lowercase.png","stimuli/bird_uppercase.png","32"
"html-button-response-mod","37","112941","0.0-37.0","76524","","","","","","triplet","3274.5","","","","2","stimuli/fish_lowercase.png","stimuli/stim002_animate_fish_2.png","stimuli/stim010_animate_face_2.png","33"
"html-button-response-mod","38","116186","0.0-38.0","76524","","","","","","triplet","2738","","","","1","stimuli/stim002_animate_fish_2.png","stimuli/stim022_inanimate_tools_2.png","stimuli/bird_uppercase.png","34"
"html-button-response-mod","39","118218","0.0-39.0","76524","","","","","","triplet","1526.8999999985099","","","","0","stimuli/stim002_animate_fish_2.png","stimuli/stim018_inanimate_tree_2.png","stimuli/tree_lowercase.png","35"
"html-button-response-mod","40","120308","0.0-40.0","76524","","","","","","triplet","1585.1000000014901","","","","0","stimuli/stim010_animate_face_2.png","stimuli/stim023_inanimate_tools_3.png","stimuli/stim024_inanimate_tools_4.png","36"
"html-button-response-mod","41","126196","0.0-41.0","76524","","","","","","triplet","5383.89999999851","","","","1","stimuli/stim023_inanimate_tools_3.png","stimuli/stim006_animate_bird_2.png","stimuli/face_lowercase.png","37"
"html-button-response-mod","42","128770","0.0-42.0","76524","","","","","","triplet","2069","","","","1","stimuli/stim019_inanimate_tree_3.png","stimuli/stim016_inanimate_boats_4.png","stimuli/bird_uppercase.png","38"
"html-button-response-mod","43","131061","0.0-43.0","76524","","","","","","triplet","1786.3999999985099","","","","0","stimuli/bird_uppercase.png","stimuli/stim021_inanimate_tools_1.png","stimuli/stim016_inanimate_boats_4.png","39"
"html-button-response-mod","44","133940","0.0-44.0","76524","","","","","","triplet","2374.300000000745","","","","0","stimuli/fish_lowercase.png","stimuli/stim011_animate_face_3.png","stimuli/stim021_inanimate_tools_1.png","40"
"html-button-response-mod","45","136452","0.0-45.0","76524","","","","","","triplet","2006.7999999970198","","","","2","stimuli/tree_uppercase.png","stimuli/bird_lowercase.png","stimuli/face_uppercase.png","41"
"html-button-response-mod","46","138665","0.0-46.0","76524","","","","","","triplet","1707.800000000745","","","","1","stimuli/tools_lowercase.png","stimuli/stim003_animate_fish_3.png","stimuli/stim015_inanimate_boats_3.png","42"
"html-button-response-mod","47","141499","0.0-47.0","76524","","","","","","triplet","2328.60000000149","","","","2","stimuli/tools_lowercase.png","stimuli/boats_lowercase.png","stimuli/face_lowercase.png","43"
"html-button-response-mod","48","144187","0.0-48.0","76524","","","","","","triplet","2181.5","","","","1","stimuli/stim005_animate_bird_1.png","stimuli/stim021_inanimate_tools_1.png","stimuli/fish_uppercase.png","44"
"html-button-response-mod","49","146111","0.0-49.0","76524","","","","","","triplet","1415.699999999255","","","","1","stimuli/stim023_inanimate_tools_3.png","stimuli/tools_uppercase.png","stimuli/stim016_inanimate_boats_4.png","45"
"html-button-response-mod","50","149970","0.0-50.0","76524","","","","","","triplet","3355.60000000149","","","","1","stimuli/stim002_animate_fish_2.png","stimuli/stim007_animate_bird_3.png","stimuli/stim016_inanimate_boats_4.png","46"
"html-button-response-mod","51","151720","0.0-51.0","76524","","","","","","triplet","1244.699999999255","","","","1","stimuli/boats_uppercase.png","stimuli/stim011_animate_face_3.png","stimuli/stim016_inanimate_boats_4.png","47"
"html-button-response-mod","52","154872","0.0-52.0","76524","","","","","","triplet","2646.900000002235","","","","0","stimuli/face_uppercase.png","stimuli/stim008_animate_bird_4.png","stimuli/stim016_inanimate_boats_4.png","48"
"html-button-response-mod","53","163024","0.0-53.0","76524","","","","","","triplet","7646.39999999851","","","","2","stimuli/stim020_inanimate_tree_4.png","stimuli/stim007_animate_bird_3.png","stimuli/boats_lowercase.png","49"
"html-button-response","54","164845","0.0-54.0","76524","","","","","","break","1312.5","<p>BREAK</p><p>Take a break for as long as you need</p><p>Click the button to continue</p>","0","","","","","",""
"html-button-response-mod","55","168363","0.0-55.0","76524","","","","","","triplet","3515.800000000745","","","","2","stimuli/stim006_animate_bird_2.png","stimuli/tree_uppercase.png","stimuli/stim015_inanimate_boats_3.png","50"
"html-button-response-mod","56","172162","0.0-56.0","76524","","","","","","triplet","3291.099999997765","","","","0","stimuli/stim019_inanimate_tree_3.png","stimuli/boats_lowercase.png","stimuli/tools_uppercase.png","51"
"html-button-response-mod","57","174304","0.0-57.0","76524","","","","","","triplet","1637.4000000022352","","","","1","stimuli/bird_uppercase.png","stimuli/stim014_inanimate_boats_2.png","stimuli/stim007_animate_bird_3.png","52"
"html-button-response-mod","58","177760","0.0-58.0","76524","","","","","","triplet","2947.800000000745","","","","0","stimuli/tree_uppercase.png","stimuli/boats_uppercase.png","stimuli/fish_uppercase.png","53"
"html-button-response-mod","59","179922","0.0-59.0","76524","","","","","","triplet","1658","","","","2","stimuli/bird_uppercase.png","stimuli/tree_lowercase.png","stimuli/stim010_animate_face_2.png","54"
"html-button-response-mod","60","184382","0.0-60.0","76524","","","","","","triplet","3956.2999999970198","","","","0","stimuli/stim018_inanimate_tree_2.png","stimuli/stim011_animate_face_3.png","stimuli/stim015_inanimate_boats_3.png","55"
"html-button-response-mod","61","186228","0.0-61.0","76524","","","","","","triplet","1342","","","","0","stimuli/face_uppercase.png","stimuli/stim002_animate_fish_2.png","stimuli/stim004_animate_fish_4.png","56"
"html-button-response-mod","62","188050","0.0-62.0","76524","","","","","","triplet","1313.4000000022352","","","","0","stimuli/boats_uppercase.png","stimuli/stim004_animate_fish_4.png","stimuli/stim002_animate_fish_2.png","57"
"html-button-response-mod","63","190563","0.0-63.0","76524","","","","","","triplet","2007.699999999255","","","","1","stimuli/tree_lowercase.png","stimuli/stim004_animate_fish_4.png","stimuli/stim007_animate_bird_3.png","58"
"html-button-response-mod","64","192801","0.0-64.0","76524","","","","","","triplet","1729.8999999985099","","","","0","stimuli/stim004_animate_fish_4.png","stimuli/tools_uppercase.png","stimuli/boats_uppercase.png","59"
"html-button-response-mod","65","195013","0.0-65.0","76524","","","","","","triplet","1707.2000000029802","","","","1","stimuli/tree_lowercase.png","stimuli/face_uppercase.png","stimuli/stim003_animate_fish_3.png","60"
"html-button-response-mod","66","200365","0.0-66.0","76524","","","","","","triplet","4844.39999999851","","","","2","stimuli/fish_uppercase.png","stimuli/stim004_animate_fish_4.png","stimuli/boats_uppercase.png","61"
"html-button-response-mod","67","204430","0.0-67.0","76524","","","","","","triplet","3559.5","","","","0","stimuli/face_lowercase.png","stimuli/fish_uppercase.png","stimuli/tree_uppercase.png","62"
"html-button-response-mod","68","210477","0.0-68.0","76524","","","","","","triplet","5542","","","","2","stimuli/boats_uppercase.png","stimuli/stim014_inanimate_boats_2.png","stimuli/stim017_inanimate_tree_1.png","63"
"html-button-response-mod","69","212410","0.0-69.0","76524","","","","","","triplet","1427.699999999255","","","","1","stimuli/stim014_inanimate_boats_2.png","stimuli/stim021_inanimate_tools_1.png","stimuli/stim015_inanimate_boats_3.png","64"
"html-button-response-mod","70","214265","0.0-70.0","76524","","","","","","triplet","1346.8999999985099","","","","1","stimuli/stim011_animate_face_3.png","stimuli/face_uppercase.png","stimuli/stim012_animate_face_4.png","65"
"html-button-response-mod","71","218806","0.0-71.0","76524","","","","","","triplet","4037.099999997765","","","","1","stimuli/stim014_inanimate_boats_2.png","stimuli/stim010_animate_face_2.png","stimuli/stim018_inanimate_tree_2.png","66"
"html-button-response-mod","72","221877","0.0-72.0","76524","","","","","","triplet","2562.5","","","","2","stimuli/tools_uppercase.png","stimuli/tools_lowercase.png","stimuli/stim016_inanimate_boats_4.png","67"
"html-button-response-mod","73","225150","0.0-73.0","76524","","","","","","triplet","2765.39999999851","","","","2","stimuli/bird_uppercase.png","stimuli/stim006_animate_bird_2.png","stimuli/fish_lowercase.png","68"
"html-button-response-mod","74","228317","0.0-74.0","76524","","","","","","triplet","2663.199999999255","","","","1","stimuli/stim002_animate_fish_2.png","stimuli/stim010_animate_face_2.png","stimuli/bird_uppercase.png","69"
"html-button-response-mod","75","231625","0.0-75.0","76524","","","","","","triplet","2800.699999999255","","","","0","stimuli/face_lowercase.png","stimuli/stim014_inanimate_boats_2.png","stimuli/stim002_animate_fish_2.png","70"
"html-button-response-mod","76","233620","0.0-76.0","76524","","","","","","triplet","1486.5","","","","1","stimuli/tree_lowercase.png","stimuli/boats_lowercase.png","stimuli/stim020_inanimate_tree_4.png","71"
"html-button-response-mod","77","235467","0.0-77.0","76524","","","","","","triplet","1339.3999999985099","","","","2","stimuli/stim004_animate_fish_4.png","stimuli/fish_lowercase.png","stimuli/tools_uppercase.png","72"
"html-button-response-mod","78","238694","0.0-78.0","76524","","","","","","triplet","2720.60000000149","","","","0","stimuli/stim022_inanimate_tools_2.png","stimuli/bird_uppercase.png","stimuli/fish_uppercase.png","73"
"html-button-response-mod","79","241240","0.0-79.0","76524","","","","","","triplet","2041.5","","","","1","stimuli/tree_uppercase.png","stimuli/stim021_inanimate_tools_1.png","stimuli/stim008_animate_bird_4.png","74"
"html-button-response-mod","80","244821","0.0-80.0","76524","","","","","","triplet","3076.39999999851","","","","1","stimuli/stim015_inanimate_boats_3.png","stimuli/stim017_inanimate_tree_1.png","stimuli/tools_lowercase.png","75"
"html-button-response-mod","81","247096","0.0-81.0","76524","","","","","","triplet","1767.9000000022352","","","","1","stimuli/boats_uppercase.png","stimuli/stim006_animate_bird_2.png","stimuli/stim016_inanimate_boats_4.png","76"
"html-button-response-mod","82","249361","0.0-82.0","76524","","","","","","triplet","1761.199999999255","","","","0","stimuli/stim011_animate_face_3.png","stimuli/stim006_animate_bird_2.png","stimuli/stim007_animate_bird_3.png","77"
"html-button-response-mod","83","252792","0.0-83.0","76524","","","","","","triplet","2923.199999999255","","","","2","stimuli/stim021_inanimate_tools_1.png","stimuli/stim017_inanimate_tree_1.png","stimuli/tools_lowercase.png","78"
"html-button-response-mod","84","255795","0.0-84.0","76524","","","","","","triplet","2500.60000000149","","","","0","stimuli/stim020_inanimate_tree_4.png","stimuli/stim001_animate_fish_1.png","stimuli/boats_lowercase.png","79"
"html-button-response-mod","85","258007","0.0-85.0","76524","","","","","","triplet","1707.5","","","","1","stimuli/stim013_inanimate_boats_1.png","stimuli/bird_uppercase.png","stimuli/stim024_inanimate_tools_4.png","80"
"html-button-response-mod","86","260142","0.0-86.0","76524","","","","","","triplet","1630.699999999255","","","","2","stimuli/stim008_animate_bird_4.png","stimuli/bird_lowercase.png","stimuli/stim001_animate_fish_1.png","81"
"html-button-response-mod","87","262346","0.0-87.0","76524","","","","","","triplet","1696.699999999255","","","","1","stimuli/stim014_inanimate_boats_2.png","stimuli/stim007_animate_bird_3.png","stimuli/stim003_animate_fish_3.png","82"
"html-button-response-mod","88","264028","0.0-88.0","76524","","","","","","triplet","1174","","","","2","stimuli/tools_lowercase.png","stimuli/stim024_inanimate_tools_4.png","stimuli/stim019_inanimate_tree_3.png","83"
"html-button-response-mod","89","267782","0.0-89.0","76524","","","","","","triplet","3248.199999999255","","","","1","stimuli/stim004_animate_fish_4.png","stimuli/stim011_animate_face_3.png","stimuli/stim016_inanimate_boats_4.png","84"
"html-button-response-mod","90","269425","0.0-90.0","76524","","","","","","triplet","1137","","","","2","stimuli/stim023_inanimate_tools_3.png","stimuli/stim005_animate_bird_1.png","stimuli/stim009_animate_face_1.png","85"
"html-button-response-mod","91","271787","0.0-91.0","76524","","","","","","triplet","1856.300000000745","","","","0","stimuli/stim022_inanimate_tools_2.png","stimuli/fish_uppercase.png","stimuli/stim014_inanimate_boats_2.png","86"
"html-button-response-mod","92","274886","0.0-92.0","76524","","","","","","triplet","2593.199999999255","","","","1","stimuli/stim017_inanimate_tree_1.png","stimuli/stim001_animate_fish_1.png","stimuli/stim008_animate_bird_4.png","87"
"html-button-response-mod","93","276839","0.0-93.0","76524","","","","","","triplet","1447.1000000014901","","","","1","stimuli/stim007_animate_bird_3.png","stimuli/stim009_animate_face_1.png","stimuli/tree_lowercase.png","88"
"html-button-response-mod","94","278587","0.0-94.0","76524","","","","","","triplet","1239","","","","2","stimuli/bird_uppercase.png","stimuli/stim006_animate_bird_2.png","stimuli/stim011_animate_face_3.png","89"
"html-button-response-mod","95","285638","0.0-95.0","76524","","","","","","triplet","6547","","","","2","stimuli/stim008_animate_bird_4.png","stimuli/stim009_animate_face_1.png","stimuli/stim021_inanimate_tools_1.png","90"
"html-button-response-mod","96","289297","0.0-96.0","76524","","","","","","triplet","3152.800000000745","","","","0","stimuli/stim007_animate_bird_3.png","stimuli/stim013_inanimate_boats_1.png","stimuli/stim010_animate_face_2.png","91"
"html-button-response-mod","97","291642","0.0-97.0","76524","","","","","","triplet","1839.5","","","","2","stimuli/tools_uppercase.png","stimuli/stim024_inanimate_tools_4.png","stimuli/stim017_inanimate_tree_1.png","92"
"html-button-response-mod","98","294063","0.0-98.0","76524","","","","","","triplet","1915.1000000014901","","","","0","stimuli/stim019_inanimate_tree_3.png","stimuli/stim022_inanimate_tools_2.png","stimuli/boats_lowercase.png","93"
"html-button-response-mod","99","296541","0.0-99.0","76524","","","","","","triplet","1972.5","","","","0","stimuli/stim010_animate_face_2.png","stimuli/stim003_animate_fish_3.png","stimuli/stim002_animate_fish_2.png","94"
"html-button-response-mod","100","298878","0.0-100.0","76524","","","","","","triplet","1828.0999999977648","","","","0","stimuli/stim004_animate_fish_4.png","stimuli/stim020_inanimate_tree_4.png","stimuli/tree_uppercase.png","95"
"html-button-response-mod","101","306376","0.0-101.0","76524","","","","","","triplet","6990.800000000745","","","","0","stimuli/stim018_inanimate_tree_2.png","stimuli/stim012_animate_face_4.png","stimuli/boats_lowercase.png","96"
"html-button-response-mod","102","308660","0.0-102.0","76524","","","","","","triplet","1775.9000000022352","","","","0","stimuli/tree_uppercase.png","stimuli/fish_lowercase.png","stimuli/stim006_animate_bird_2.png","97"
"html-button-response-mod","103","311907","0.0-103.0","76524","","","","","","triplet","2739.7000000029802","","","","0","stimuli/stim021_inanimate_tools_1.png","stimuli/stim022_inanimate_tools_2.png","stimuli/boats_uppercase.png","98"
"html-button-response-mod","104","316779","0.0-104.0","76524","","","","","","triplet","4367.60000000149","","","","0","stimuli/face_lowercase.png","stimuli/stim015_inanimate_boats_3.png","stimuli/boats_lowercase.png","99"
"html-button-response","105","318567","0.0-105.0","76524","","","","","","break","1282.3999999985099","<p>BREAK</p><p>Take a break for as long as you need</p><p>Click the button to continue</p>","0","","","","","",""
"html-button-response-mod","106","320613","0.0-106.0","76524","","","","","","triplet","2043.699999999255","","","","0","stimuli/stim002_animate_fish_2.png","stimuli/stim016_inanimate_boats_4.png","stimuli/stim024_inanimate_tools_4.png","100"
"html-button-response-mod","107","323185","0.0-107.0","76524","","","","","","triplet","2066","","","","2","stimuli/stim015_inanimate_boats_3.png","stimuli/stim013_inanimate_boats_1.png","stimuli/stim017_inanimate_tree_1.png","101"
"html-button-response-mod","108","326641","0.0-108.0","76524","","","","","","triplet","2951.10000000149","","","","1","stimuli/stim007_animate_bird_3.png","stimuli/stim014_inanimate_boats_2.png","stimuli/tree_lowercase.png","102"
"html-button-response-mod","109","329091","0.0-109.0","76524","","","","","","triplet","1944.7999999970198","","","","0","stimuli/boats_lowercase.png","stimuli/stim010_animate_face_2.png","stimuli/face_uppercase.png","103"
"html-button-response-mod","110","332154","0.0-110.0","76524","","","","","","triplet","2557.39999999851","","","","2","stimuli/stim020_inanimate_tree_4.png","stimuli/stim007_animate_bird_3.png","stimuli/stim023_inanimate_tools_3.png","104"
"html-button-response-mod","111","333990","0.0-111.0","76524","","","","","","triplet","1329.5999999977648","","","","1","stimuli/fish_uppercase.png","stimuli/stim018_inanimate_tree_2.png","stimuli/stim004_animate_fish_4.png","105"
"html-button-response-mod","112","336101","0.0-112.0","76524","","","","","","triplet","1605.199999999255","","","","0","stimuli/stim010_animate_face_2.png","stimuli/tree_lowercase.png","stimuli/stim008_animate_bird_4.png","106"
"html-button-response-mod","113","338026","0.0-113.0","76524","","","","","","triplet","1418.699999999255","","","","0","stimuli/stim017_inanimate_tree_1.png","stimuli/fish_uppercase.png","stimuli/fish_lowercase.png","107"
"html-button-response-mod","114","341936","0.0-114.0","76524","","","","","","triplet","3401.39999999851","","","","1","stimuli/stim003_animate_fish_3.png","stimuli/stim023_inanimate_tools_3.png","stimuli/face_lowercase.png","108"
"html-button-response-mod","115","344745","0.0-115.0","76524","","","","","","triplet","2302.599999997765","","","","1","stimuli/stim001_animate_fish_1.png","stimuli/tree_lowercase.png","stimuli/fish_lowercase.png","109"
"html-button-response-mod","116","346838","0.0-116.0","76524","","","","","","triplet","1586.8999999985099","","","","0","stimuli/tools_uppercase.png","stimuli/stim020_inanimate_tree_4.png","stimuli/stim006_animate_bird_2.png","110"
"html-button-response-mod","117","350040","0.0-117.0","76524","","","","","","triplet","2696.199999999255","","","","0","stimuli/stim023_inanimate_tools_3.png","stimuli/tree_uppercase.png","stimuli/stim004_animate_fish_4.png","111"
"html-button-response-mod","118","354564","0.0-118.0","76524","","","","","","triplet","4015.5","","","","0","stimuli/stim020_inanimate_tree_4.png","stimuli/tools_uppercase.png","stimuli/stim023_inanimate_tools_3.png","112"
"html-button-response-mod","119","359296","0.0-119.0","76524","","","","","","triplet","4224","","","","1","stimuli/stim020_inanimate_tree_4.png","stimuli/stim011_animate_face_3.png","stimuli/stim022_inanimate_tools_2.png","113"
"html-button-response-mod","120","362594","0.0-120.0","76524","","","","","","triplet","2792.300000000745","","","","2","stimuli/stim020_inanimate_tree_4.png","stimuli/stim006_animate_bird_2.png","stimuli/stim013_inanimate_boats_1.png","114"
"html-button-response-mod","121","365919","0.0-121.0","76524","","","","","","triplet","2818.199999999255","","","","2","stimuli/stim004_animate_fish_4.png","stimuli/stim013_inanimate_boats_1.png","stimuli/bird_lowercase.png","115"
"html-button-response-mod","122","367914","0.0-122.0","76524","","","","","","triplet","1491.6000000014901","","","","1","stimuli/stim016_inanimate_boats_4.png","stimuli/stim003_animate_fish_3.png","stimuli/boats_lowercase.png","116"
"html-button-response-mod","123","369908","0.0-123.0","76524","","","","","","triplet","1488.5","","","","1","stimuli/stim010_animate_face_2.png","stimuli/stim018_inanimate_tree_2.png","stimuli/face_uppercase.png","117"
"html-button-response-mod","124","372910","0.0-124.0","76524","","","","","","triplet","2496","","","","2","stimuli/stim008_animate_bird_4.png","stimuli/stim019_inanimate_tree_3.png","stimuli/stim023_inanimate_tools_3.png","118"
"html-button-response-mod","125","376025","0.0-125.0","76524","","","","","","triplet","2608.300000000745","","","","2","stimuli/stim010_animate_face_2.png","stimuli/face_uppercase.png","stimuli/stim001_animate_fish_1.png","119"
"html-button-response-mod","126","380314","0.0-126.0","76524","","","","","","triplet","3782.599999997765","","","","2","stimuli/stim004_animate_fish_4.png","stimuli/boats_lowercase.png","stimuli/stim005_animate_bird_1.png","120"
"html-button-response-mod","127","386885","0.0-127.0","76524","","","","","","triplet","6065.5","","","","0","stimuli/stim007_animate_bird_3.png","stimuli/stim001_animate_fish_1.png","stimuli/stim002_animate_fish_2.png","121"
"html-button-response-mod","128","390733","0.0-128.0","76524","","","","","","triplet","3343.199999999255","","","","1","stimuli/face_lowercase.png","stimuli/fish_uppercase.png","stimuli/stim010_animate_face_2.png","122"
"html-button-response-mod","129","393727","0.0-129.0","76524","","","","","","triplet","2487.2999999970198","","","","2","stimuli/stim017_inanimate_tree_1.png","stimuli/stim008_animate_bird_4.png","stimuli/fish_uppercase.png","123"
"html-button-response-mod","130","396597","0.0-130.0","76524","","","","","","triplet","2364.099999997765","","","","2","stimuli/stim020_inanimate_tree_4.png","stimuli/stim019_inanimate_tree_3.png","stimuli/face_uppercase.png","124"
"html-button-response-mod","131","402844","0.0-131.0","76524","","","","","","triplet","5741.699999999255","","","","2","stimuli/bird_uppercase.png","stimuli/stim004_animate_fish_4.png","stimuli/stim010_animate_face_2.png","125"
"html-button-response-mod","132","409271","0.0-132.0","76524","","","","","","triplet","5919.400000002235","","","","1","stimuli/stim018_inanimate_tree_2.png","stimuli/stim009_animate_face_1.png","stimuli/bird_lowercase.png","126"
"html-button-response-mod","133","411323","0.0-133.0","76524","","","","","","triplet","1547.9000000022352","","","","0","stimuli/face_lowercase.png","stimuli/tools_lowercase.png","stimuli/stim014_inanimate_boats_2.png","127"
"html-button-response-mod","134","413512","0.0-134.0","76524","","","","","","triplet","1678.8999999985099","","","","2","stimuli/bird_lowercase.png","stimuli/tree_uppercase.png","stimuli/face_lowercase.png","128"
"html-button-response-mod","135","415123","0.0-135.0","76524","","","","","","triplet","1104.0999999977648","","","","2","stimuli/stim018_inanimate_tree_2.png","stimuli/stim017_inanimate_tree_1.png","stimuli/stim011_animate_face_3.png","129"
"html-button-response-mod","136","416870","0.0-136.0","76524","","","","","","triplet","1238.6000000014901","","","","1","stimuli/stim005_animate_bird_1.png","stimuli/boats_uppercase.png","stimuli/stim006_animate_bird_2.png","130"
"html-button-response-mod","137","418921","0.0-137.0","76524","","","","","","triplet","1541.699999999255","","","","1","stimuli/stim015_inanimate_boats_3.png","stimuli/stim020_inanimate_tree_4.png","stimuli/stim004_animate_fish_4.png","131"
"html-button-response-mod","138","421831","0.0-138.0","76524","","","","","","triplet","2404.5","","","","1","stimuli/stim023_inanimate_tools_3.png","stimuli/stim010_animate_face_2.png","stimuli/stim013_inanimate_boats_1.png","132"
"html-button-response-mod","139","425657","0.0-139.0","76524","","","","","","triplet","3317.400000002235","","","","1","stimuli/stim009_animate_face_1.png","stimuli/boats_lowercase.png","stimuli/stim006_animate_bird_2.png","133"
"html-button-response-mod","140","429165","0.0-140.0","76524","","","","","","triplet","3001.599999997765","","","","0","stimuli/stim014_inanimate_boats_2.png","stimuli/stim012_animate_face_4.png","stimuli/stim020_inanimate_tree_4.png","134"
"html-button-response-mod","141","432472","0.0-141.0","76524","","","","","","triplet","2800.60000000149","","","","1","stimuli/tree_uppercase.png","stimuli/stim011_animate_face_3.png","stimuli/stim021_inanimate_tools_1.png","135"
"html-button-response-mod","142","437249","0.0-142.0","76524","","","","","","triplet","4273.10000000149","","","","2","stimuli/face_uppercase.png","stimuli/stim012_animate_face_4.png","stimuli/fish_uppercase.png","136"
"html-button-response-mod","143","439026","0.0-143.0","76524","","","","","","triplet","1273.5","","","","2","stimuli/stim014_inanimate_boats_2.png","stimuli/stim015_inanimate_boats_3.png","stimuli/stim020_inanimate_tree_4.png","137"
"html-button-response-mod","144","440390","0.0-144.0","76524","","","","","","triplet","859.1000000014901","","","","2","stimuli/stim016_inanimate_boats_4.png","stimuli/stim014_inanimate_boats_2.png","stimuli/stim012_animate_face_4.png","138"
"html-button-response-mod","145","442533","0.0-145.0","76524","","","","","","triplet","1634.9000000022352","","","","2","stimuli/boats_uppercase.png","stimuli/stim016_inanimate_boats_4.png","stimuli/fish_uppercase.png","139"
"html-button-response-mod","146","445335","0.0-146.0","76524","","","","","","triplet","2293.300000000745","","","","2","stimuli/stim019_inanimate_tree_3.png","stimuli/stim005_animate_bird_1.png","stimuli/stim009_animate_face_1.png","140"
"html-button-response-mod","147","448089","0.0-147.0","76524","","","","","","triplet","2247.60000000149","","","","2","stimuli/stim009_animate_face_1.png","stimuli/tree_uppercase.png","stimuli/fish_lowercase.png","141"
"html-button-response-mod","148","451407","0.0-148.0","76524","","","","","","triplet","2813.300000000745","","","","0","stimuli/stim012_animate_face_4.png","stimuli/stim022_inanimate_tools_2.png","stimuli/stim013_inanimate_boats_1.png","142"
"html-button-response-mod","149","453296","0.0-149.0","76524","","","","","","triplet","1385","","","","0","stimuli/stim010_animate_face_2.png","stimuli/fish_uppercase.png","stimuli/stim004_animate_fish_4.png","143"
"html-button-response-mod","150","456912","0.0-150.0","76524","","","","","","triplet","3106.39999999851","","","","0","stimuli/stim019_inanimate_tree_3.png","stimuli/stim014_inanimate_boats_2.png","stimuli/stim012_animate_face_4.png","144"
"html-button-response-mod","151","460822","0.0-151.0","76524","","","","","","triplet","3396.5","","","","1","stimuli/stim006_animate_bird_2.png","stimuli/stim023_inanimate_tools_3.png","stimuli/stim001_animate_fish_1.png","145"
"html-button-response-mod","152","462976","0.0-152.0","76524","","","","","","triplet","1645.199999999255","","","","0","stimuli/stim023_inanimate_tools_3.png","stimuli/stim008_animate_bird_4.png","stimuli/stim005_animate_bird_1.png","146"
"html-button-response-mod","153","465010","0.0-153.0","76524","","","","","","triplet","1527.3999999985099","","","","1","stimuli/stim001_animate_fish_1.png","stimuli/stim010_animate_face_2.png","stimuli/fish_lowercase.png","147"
"html-button-response-mod","154","467700","0.0-154.0","76524","","","","","","triplet","2183.300000000745","","","","2","stimuli/stim017_inanimate_tree_1.png","stimuli/stim005_animate_bird_1.png","stimuli/boats_uppercase.png","148"
"html-button-response-mod","155","470097","0.0-155.0","76524","","","","","","triplet","1885.300000000745","","","","2","stimuli/boats_uppercase.png","stimuli/stim016_inanimate_boats_4.png","stimuli/stim002_animate_fish_2.png","149"
"html-button-response","156","471569","0.0-156.0","76524","","","","","","break","962.7000000029802","<p>BREAK</p><p>Take a break for as long as you need</p><p>Click the button to continue</p>","0","","","","","",""
"html-button-response-mod","157","474493","0.0-157.0","76524","","","","","","triplet","2918.300000000745","","","","1","stimuli/boats_uppercase.png","stimuli/face_uppercase.png","stimuli/stim024_inanimate_tools_4.png","150"
"html-button-response-mod","158","477083","0.0-158.0","76524","","","","","","triplet","2084","","","","1","stimuli/bird_uppercase.png","stimuli/stim024_inanimate_tools_4.png","stimuli/fish_lowercase.png","151"
"html-button-response-mod","159","478739","0.0-159.0","76524","","","","","","triplet","1147.1000000014901","","","","0","stimuli/stim021_inanimate_tools_1.png","stimuli/stim008_animate_bird_4.png","stimuli/stim006_animate_bird_2.png","152"
"html-button-response-mod","160","481252","0.0-160.0","76524","","","","","","triplet","2006.300000000745","","","","0","stimuli/boats_lowercase.png","stimuli/stim022_inanimate_tools_2.png","stimuli/tree_uppercase.png","153"
"html-button-response-mod","161","484167","0.0-161.0","76524","","","","","","triplet","2407.300000000745","","","","2","stimuli/stim022_inanimate_tools_2.png","stimuli/tree_lowercase.png","stimuli/stim014_inanimate_boats_2.png","154"
"html-button-response-mod","162","487355","0.0-162.0","76524","","","","","","triplet","2677.5","","","","0","stimuli/stim016_inanimate_boats_4.png","stimuli/tree_lowercase.png","stimuli/tree_uppercase.png","155"
"html-button-response-mod","163","491746","0.0-163.0","76524","","","","","","triplet","3884.2000000029802","","","","2","stimuli/stim015_inanimate_boats_3.png","stimuli/bird_lowercase.png","stimuli/face_uppercase.png","156"
"html-button-response-mod","164","495623","0.0-164.0","76524","","","","","","triplet","3370.099999997765","","","","2","stimuli/stim005_animate_bird_1.png","stimuli/stim010_animate_face_2.png","stimuli/tools_uppercase.png","157"
"html-button-response-mod","165","497747","0.0-165.0","76524","","","","","","triplet","1616","","","","2","stimuli/stim019_inanimate_tree_3.png","stimuli/stim004_animate_fish_4.png","stimuli/tools_lowercase.png","158"
"html-button-response-mod","166","499951","0.0-166.0","76524","","","","","","triplet","1699","","","","0","stimuli/stim003_animate_fish_3.png","stimuli/stim018_inanimate_tree_2.png","stimuli/stim017_inanimate_tree_1.png","159"
"html-button-response-mod","167","502184","0.0-167.0","76524","","","","","","triplet","1727.199999999255","","","","0","stimuli/stim023_inanimate_tools_3.png","stimuli/stim008_animate_bird_4.png","stimuli/stim006_animate_bird_2.png","160"
"html-button-response-mod","168","505063","0.0-168.0","76524","","","","","","triplet","2370.699999999255","","","","0","stimuli/stim004_animate_fish_4.png","stimuli/stim002_animate_fish_2.png","stimuli/stim001_animate_fish_1.png","161"
"html-button-response-mod","169","508773","0.0-169.0","76524","","","","","","triplet","3203.300000000745","","","","1","stimuli/stim008_animate_bird_4.png","stimuli/boats_lowercase.png","stimuli/stim012_animate_face_4.png","162"
"html-button-response-mod","170","512448","0.0-170.0","76524","","","","","","triplet","3169.699999999255","","","","2","stimuli/bird_lowercase.png","stimuli/tree_lowercase.png","stimuli/fish_uppercase.png","163"
"html-button-response-mod","171","514689","0.0-171.0","76524","","","","","","triplet","1735.6000000014901","","","","2","stimuli/face_lowercase.png","stimuli/face_uppercase.png","stimuli/bird_lowercase.png","164"
"html-button-response-mod","172","517629","0.0-172.0","76524","","","","","","triplet","2431.800000000745","","","","1","stimuli/stim008_animate_bird_4.png","stimuli/stim004_animate_fish_4.png","stimuli/tree_lowercase.png","165"
"html-button-response-mod","173","522154","0.0-173.0","76524","","","","","","triplet","4018.199999999255","","","","0","stimuli/stim007_animate_bird_3.png","stimuli/boats_lowercase.png","stimuli/boats_uppercase.png","166"
"html-button-response-mod","174","524734","0.0-174.0","76524","","","","","","triplet","2077.199999999255","","","","0","stimuli/stim020_inanimate_tree_4.png","stimuli/face_uppercase.png","stimuli/stim005_animate_bird_1.png","167"
"html-button-response-mod","175","528749","0.0-175.0","76524","","","","","","triplet","3511.900000002235","","","","1","stimuli/stim001_animate_fish_1.png","stimuli/stim020_inanimate_tree_4.png","stimuli/stim009_animate_face_1.png","168"
"html-button-response-mod","176","531506","0.0-176.0","76524","","","","","","triplet","2252.60000000149","","","","1","stimuli/boats_uppercase.png","stimuli/face_uppercase.png","stimuli/stim001_animate_fish_1.png","169"
"html-button-response-mod","177","535618","0.0-177.0","76524","","","","","","triplet","3606","","","","2","stimuli/stim004_animate_fish_4.png","stimuli/stim010_animate_face_2.png","stimuli/stim017_inanimate_tree_1.png","170"
"html-button-response-mod","178","538384","0.0-178.0","76524","","","","","","triplet","2262.099999997765","","","","0","stimuli/stim004_animate_fish_4.png","stimuli/stim018_inanimate_tree_2.png","stimuli/tree_lowercase.png","171"
"html-button-response-mod","179","542007","0.0-179.0","76524","","","","","","triplet","3113.199999999255","","","","0","stimuli/stim021_inanimate_tools_1.png","stimuli/fish_lowercase.png","stimuli/stim012_animate_face_4.png","172"
"html-button-response-mod","180","544999","0.0-180.0","76524","","","","","","triplet","2483.5","","","","0","stimuli/stim018_inanimate_tree_2.png","stimuli/stim023_inanimate_tools_3.png","stimuli/stim024_inanimate_tools_4.png","173"
"html-button-response-mod","181","546688","0.0-181.0","76524","","","","","","triplet","1182.1000000014901","","","","2","stimuli/stim009_animate_face_1.png","stimuli/stim017_inanimate_tree_1.png","stimuli/tools_uppercase.png","174"
"html-button-response-mod","182","550039","0.0-182.0","76524","","","","","","triplet","2841.300000000745","","","","1","stimuli/bird_lowercase.png","stimuli/stim012_animate_face_4.png","stimuli/stim002_animate_fish_2.png","175"
"html-button-response-mod","183","553374","0.0-183.0","76524","","","","","","triplet","2826.5","","","","2","stimuli/fish_lowercase.png","stimuli/stim009_animate_face_1.png","stimuli/stim019_inanimate_tree_3.png","176"
"html-button-response-mod","184","555824","0.0-184.0","76524","","","","","","triplet","1944.5","","","","2","stimuli/stim014_inanimate_boats_2.png","stimuli/stim002_animate_fish_2.png","stimuli/tree_uppercase.png","177"
"html-button-response-mod","185","558448","0.0-185.0","76524","","","","","","triplet","2116.199999999255","","","","2","stimuli/stim007_animate_bird_3.png","stimuli/face_uppercase.png","stimuli/tools_lowercase.png","178"
"html-button-response-mod","186","560927","0.0-186.0","76524","","","","","","triplet","1968.699999999255","","","","1","stimuli/stim024_inanimate_tools_4.png","stimuli/stim008_animate_bird_4.png","stimuli/boats_lowercase.png","179"
"html-button-response-mod","187","562421","0.0-187.0","76524","","","","","","triplet","984.3000000007451","","","","2","stimuli/stim001_animate_fish_1.png","stimuli/stim002_animate_fish_2.png","stimuli/stim010_animate_face_2.png","180"
"html-button-response-mod","188","565126","0.0-188.0","76524","","","","","","triplet","2197.60000000149","","","","2","stimuli/tree_uppercase.png","stimuli/stim006_animate_bird_2.png","stimuli/tools_lowercase.png","181"
"html-button-response-mod","189","567216","0.0-189.0","76524","","","","","","triplet","1580.5","","","","2","stimuli/stim012_animate_face_4.png","stimuli/tree_uppercase.png","stimuli/face_uppercase.png","182"
"html-button-response-mod","190","568808","0.0-190.0","76524","","","","","","triplet","1087.3999999985099","","","","1","stimuli/stim008_animate_bird_4.png","stimuli/stim019_inanimate_tree_3.png","stimuli/stim005_animate_bird_1.png","183"
"html-button-response-mod","191","571302","0.0-191.0","76524","","","","","","triplet","1988.0999999977648","","","","1","stimuli/tree_lowercase.png","stimuli/stim016_inanimate_boats_4.png","stimuli/stim019_inanimate_tree_3.png","184"
"html-button-response-mod","192","575501","0.0-192.0","76524","","","","","","triplet","3690.60000000149","","","","0","stimuli/stim019_inanimate_tree_3.png","stimuli/stim004_animate_fish_4.png","stimuli/stim013_inanimate_boats_1.png","185"
"html-button-response-mod","193","577049","0.0-193.0","76524","","","","","","triplet","1044.800000000745","","","","2","stimuli/stim017_inanimate_tree_1.png","stimuli/stim020_inanimate_tree_4.png","stimuli/stim009_animate_face_1.png","186"
"html-button-response-mod","194","580306","0.0-194.0","76524","","","","","","triplet","2753.800000000745","","","","1","stimuli/bird_lowercase.png","stimuli/tools_uppercase.png","stimuli/stim006_animate_bird_2.png","187"
"html-button-response-mod","195","582101","0.0-195.0","76524","","","","","","triplet","1288","","","","1","stimuli/stim019_inanimate_tree_3.png","stimuli/stim003_animate_fish_3.png","stimuli/stim014_inanimate_boats_2.png","188"
"html-button-response-mod","196","584418","0.0-196.0","76524","","","","","","triplet","1813.699999999255","","","","1","stimuli/stim022_inanimate_tools_2.png","stimuli/boats_uppercase.png","stimuli/stim013_inanimate_boats_1.png","189"
"html-button-response-mod","197","592871","0.0-197.0","76524","","","","","","triplet","7945.60000000149","","","","2","stimuli/fish_lowercase.png","stimuli/tools_uppercase.png","stimuli/tree_lowercase.png","190"
"html-button-response-mod","198","596767","0.0-198.0","76524","","","","","","triplet","3391.5","","","","1","stimuli/stim012_animate_face_4.png","stimuli/stim016_inanimate_boats_4.png","stimuli/stim009_animate_face_1.png","191"
"html-button-response-mod","199","599241","0.0-199.0","76524","","","","","","triplet","1970","","","","1","stimuli/stim022_inanimate_tools_2.png","stimuli/face_uppercase.png","stimuli/stim013_inanimate_boats_1.png","192"
"html-button-response-mod","200","602804","0.0-200.0","76524","","","","","","triplet","3054.800000000745","","","","2","stimuli/stim001_animate_fish_1.png","stimuli/face_uppercase.png","stimuli/stim020_inanimate_tree_4.png","193"
"html-button-response-mod","201","605629","0.0-201.0","76524","","","","","","triplet","2315.10000000149","","","","1","stimuli/stim015_inanimate_boats_3.png","stimuli/stim008_animate_bird_4.png","stimuli/stim018_inanimate_tree_2.png","194"
"html-button-response-mod","202","607617","0.0-202.0","76524","","","","","","triplet","1484.5","","","","1","stimuli/stim016_inanimate_boats_4.png","stimuli/stim001_animate_fish_1.png","stimuli/stim013_inanimate_boats_1.png","195"
"html-button-response-mod","203","612577","0.0-203.0","76524","","","","","","triplet","4451.199999999255","","","","2","stimuli/stim024_inanimate_tools_4.png","stimuli/face_lowercase.png","stimuli/fish_lowercase.png","196"
"html-button-response-mod","204","618929","0.0-204.0","76524","","","","","","triplet","5843.10000000149","","","","0","stimuli/stim022_inanimate_tools_2.png","stimuli/stim002_animate_fish_2.png","stimuli/stim006_animate_bird_2.png","197"
"html-button-response-mod","205","621685","0.0-205.0","76524","","","","","","triplet","2251.199999999255","","","","1","stimuli/stim024_inanimate_tools_4.png","stimuli/stim021_inanimate_tools_1.png","stimuli/stim015_inanimate_boats_3.png","198"
"html-button-response-mod","206","623864","0.0-206.0","76524","","","","","","triplet","1669.0999999977648","","","","1","stimuli/stim020_inanimate_tree_4.png","stimuli/stim005_animate_bird_1.png","stimuli/stim021_inanimate_tools_1.png","199"
"html-button-response","207","625422","0.0-207.0","76524","","","","","","break","1053.5","<p>BREAK</p><p>Take a break for as long as you need</p><p>Click the button to continue</p>","0","","","","","",""
"html-button-response-mod","208","627822","0.0-208.0","76524","","","","","","triplet","2397.099999997765","","","","2","stimuli/stim007_animate_bird_3.png","stimuli/face_uppercase.png","stimuli/tools_uppercase.png","200"
"html-button-response-mod","209","630015","0.0-209.0","76524","","","","","","triplet","1684.699999999255","","","","0","stimuli/stim021_inanimate_tools_1.png","stimuli/stim016_inanimate_boats_4.png","stimuli/stim001_animate_fish_1.png","201"
"html-button-response-mod","210","632850","0.0-210.0","76524","","","","","","triplet","2330.599999997765","","","","1","stimuli/stim014_inanimate_boats_2.png","stimuli/stim002_animate_fish_2.png","stimuli/tools_uppercase.png","202"
"html-button-response-mod","211","640541","0.0-211.0","76524","","","","","","triplet","7186.60000000149","","","","2","stimuli/stim016_inanimate_boats_4.png","stimuli/stim015_inanimate_boats_3.png","stimuli/stim010_animate_face_2.png","203"
"html-button-response-mod","212","642617","0.0-212.0","76524","","","","","","triplet","1570.8999999985099","","","","0","stimuli/stim021_inanimate_tools_1.png","stimuli/stim019_inanimate_tree_3.png","stimuli/tree_lowercase.png","204"
"html-button-response-mod","213","645371","0.0-213.0","76524","","","","","","triplet","2250.10000000149","","","","1","stimuli/stim008_animate_bird_4.png","stimuli/stim021_inanimate_tools_1.png","stimuli/face_lowercase.png","205"
"html-button-response-mod","214","648409","0.0-214.0","76524","","","","","","triplet","2530.5","","","","1","stimuli/stim002_animate_fish_2.png","stimuli/stim017_inanimate_tree_1.png","stimuli/stim009_animate_face_1.png","206"
"html-button-response-mod","215","651059","0.0-215.0","76524","","","","","","triplet","2143.300000000745","","","","1","stimuli/stim016_inanimate_boats_4.png","stimuli/stim010_animate_face_2.png","stimuli/stim021_inanimate_tools_1.png","207"
"html-button-response-mod","216","656484","0.0-216.0","76524","","","","","","triplet","4921.099999997765","","","","2","stimuli/stim010_animate_face_2.png","stimuli/bird_lowercase.png","stimuli/tree_uppercase.png","208"
"html-button-response-mod","217","657948","0.0-217.0","76524","","","","","","triplet","960.1999999992549","","","","2","stimuli/stim001_animate_fish_1.png","stimuli/stim004_animate_fish_4.png","stimuli/stim021_inanimate_tools_1.png","209"
"html-button-response-mod","218","659940","0.0-218.0","76524","","","","","","triplet","1486.2000000029802","","","","0","stimuli/stim002_animate_fish_2.png","stimuli/stim022_inanimate_tools_2.png","stimuli/tools_uppercase.png","210"
"html-button-response-mod","219","661507","0.0-219.0","76524","","","","","","triplet","1062.5","","","","0","stimuli/stim023_inanimate_tools_3.png","stimuli/stim008_animate_bird_4.png","stimuli/stim004_animate_fish_4.png","211"
"html-button-response-mod","220","663956","0.0-220.0","76524","","","","","","triplet","1943.699999999255","","","","0","stimuli/stim014_inanimate_boats_2.png","stimuli/stim019_inanimate_tree_3.png","stimuli/stim017_inanimate_tree_1.png","212"
"html-button-response-mod","221","667745","0.0-221.0","76524","","","","","","triplet","3284.89999999851","","","","1","stimuli/stim001_animate_fish_1.png","stimuli/tree_uppercase.png","stimuli/stim008_animate_bird_4.png","213"
"html-button-response-mod","222","669576","0.0-222.0","76524","","","","","","triplet","1322.699999999255","","","","0","stimuli/stim010_animate_face_2.png","stimuli/stim007_animate_bird_3.png","stimuli/stim006_animate_bird_2.png","214"
"html-button-response-mod","223","671036","0.0-223.0","76524","","","","","","triplet","954","","","","2","stimuli/stim020_inanimate_tree_4.png","stimuli/stim017_inanimate_tree_1.png","stimuli/stim021_inanimate_tools_1.png","215"
"html-button-response-mod","224","673092","0.0-224.0","76524","","","","","","triplet","1548.800000000745","","","","2","stimuli/stim016_inanimate_boats_4.png","stimuli/boats_uppercase.png","stimuli/fish_lowercase.png","216"
"html-button-response-mod","225","675868","0.0-225.0","76524","","","","","","triplet","2271.800000000745","","","","1","stimuli/stim005_animate_bird_1.png","stimuli/tree_uppercase.png","stimuli/stim001_animate_fish_1.png","217"
"html-button-response-mod","226","678088","0.0-226.0","76524","","","","","","triplet","1713.300000000745","","","","1","stimuli/stim006_animate_bird_2.png","stimuli/boats_uppercase.png","stimuli/stim003_animate_fish_3.png","218"
"html-button-response-mod","227","683033","0.0-227.0","76524","","","","","","triplet","4439","","","","2","stimuli/stim014_inanimate_boats_2.png","stimuli/stim013_inanimate_boats_1.png","stimuli/boats_lowercase.png","219"
"html-button-response-mod","228","685071","0.0-228.0","76524","","","","","","triplet","1533.3999999985099","","","","1","stimuli/stim020_inanimate_tree_4.png","stimuli/tools_lowercase.png","stimuli/stim018_inanimate_tree_2.png","220"
"html-button-response-mod","229","687512","0.0-229.0","76524","","","","","","triplet","1935.5999999977648","","","","2","stimuli/face_lowercase.png","stimuli/stim002_animate_fish_2.png","stimuli/tools_uppercase.png","221"
"html-button-response-mod","230","689559","0.0-230.0","76524","","","","","","triplet","1541.4000000022352","","","","2","stimuli/stim022_inanimate_tools_2.png","stimuli/tools_lowercase.png","stimuli/stim001_animate_fish_1.png","222"
"html-button-response-mod","231","694180","0.0-231.0","76524","","","","","","triplet","4114.10000000149","","","","0","stimuli/stim013_inanimate_boats_1.png","stimuli/fish_uppercase.png","stimuli/stim009_animate_face_1.png","223"
"html-button-response-mod","232","696726","0.0-232.0","76524","","","","","","triplet","2040","","","","1","stimuli/fish_lowercase.png","stimuli/stim024_inanimate_tools_4.png","stimuli/stim001_animate_fish_1.png","224"
"html-button-response-mod","233","699710","0.0-233.0","76524","","","","","","triplet","2475.599999997765","","","","0","stimuli/stim011_animate_face_3.png","stimuli/boats_uppercase.png","stimuli/stim024_inanimate_tools_4.png","225"
"html-button-response-mod","234","701355","0.0-234.0","76524","","","","","","triplet","1139.8999999985099","","","","0","stimuli/stim011_animate_face_3.png","stimuli/stim005_animate_bird_1.png","stimuli/stim003_animate_fish_3.png","226"
"html-button-response-mod","235","702927","0.0-235.0","76524","","","","","","triplet","1063.8999999985099","","","","2","stimuli/stim005_animate_bird_1.png","stimuli/stim008_animate_bird_4.png","stimuli/stim013_inanimate_boats_1.png","227"
"html-button-response-mod","236","704749","0.0-236.0","76524","","","","","","triplet","1313.699999999255","","","","1","stimuli/stim005_animate_bird_1.png","stimuli/stim020_inanimate_tree_4.png","stimuli/stim007_animate_bird_3.png","228"
"html-button-response-mod","237","706984","0.0-237.0","76524","","","","","","triplet","1728.300000000745","","","","0","stimuli/stim022_inanimate_tools_2.png","stimuli/face_uppercase.png","stimuli/stim012_animate_face_4.png","229"
"html-button-response-mod","238","709405","0.0-238.0","76524","","","","","","triplet","1915.1000000014901","","","","2","stimuli/stim011_animate_face_3.png","stimuli/stim005_animate_bird_1.png","stimuli/stim022_inanimate_tools_2.png","230"
"html-button-response-mod","239","712050","0.0-239.0","76524","","","","","","triplet","2139.10000000149","","","","2","stimuli/stim022_inanimate_tools_2.png","stimuli/stim014_inanimate_boats_2.png","stimuli/stim010_animate_face_2.png","231"
"html-button-response-mod","240","713912","0.0-240.0","76524","","","","","","triplet","1353.5999999977648","","","","0","stimuli/tools_uppercase.png","stimuli/stim018_inanimate_tree_2.png","stimuli/stim017_inanimate_tree_1.png","232"
"html-button-response-mod","241","716231","0.0-241.0","76524","","","","","","triplet","1813.8999999985099","","","","0","stimuli/stim020_inanimate_tree_4.png","stimuli/bird_uppercase.png","stimuli/stim005_animate_bird_1.png","233"
"html-button-response-mod","242","720029","0.0-242.0","76524","","","","","","triplet","3290.5","","","","0","stimuli/boats_uppercase.png","stimuli/stim007_animate_bird_3.png","stimuli/fish_lowercase.png","234"
"html-button-response-mod","243","721866","0.0-243.0","76524","","","","","","triplet","1328.699999999255","","","","2","stimuli/fish_uppercase.png","stimuli/stim003_animate_fish_3.png","stimuli/stim019_inanimate_tree_3.png","235"
"html-button-response-mod","244","725883","0.0-244.0","76524","","","","","","triplet","3511.199999999255","","","","1","stimuli/stim013_inanimate_boats_1.png","stimuli/face_uppercase.png","stimuli/stim018_inanimate_tree_2.png","236"
"html-button-response-mod","245","728445","0.0-245.0","76524","","","","","","triplet","2054.10000000149","","","","1","stimuli/stim014_inanimate_boats_2.png","stimuli/fish_uppercase.png","stimuli/stim015_inanimate_boats_3.png","237"
"html-button-response-mod","246","731639","0.0-246.0","76524","","","","","","triplet","2690","","","","1","stimuli/tools_uppercase.png","stimuli/stim005_animate_bird_1.png","stimuli/stim014_inanimate_boats_2.png","238"
"html-button-response-mod","247","734152","0.0-247.0","76524","","","","","","triplet","2004.5","","","","0","stimuli/face_lowercase.png","stimuli/tools_lowercase.png","stimuli/stim022_inanimate_tools_2.png","239"
"html-button-response-mod","248","736799","0.0-248.0","76524","","","","","","triplet","2142.60000000149","","","","0","stimuli/tools_lowercase.png","stimuli/stim007_animate_bird_3.png","stimuli/stim001_animate_fish_1.png","240"
"html-button-response-mod","249","739435","0.0-249.0","76524","","","","","","triplet","2127.10000000149","","","","0","stimuli/tools_lowercase.png","stimuli/stim009_animate_face_1.png","stimuli/stim003_animate_fish_3.png","241"
"html-button-response-mod","250","741500","0.0-250.0","76524","","","","","","triplet","1562.1000000014901","","","","2","stimuli/stim012_animate_face_4.png","stimuli/stim002_animate_fish_2.png","stimuli/tools_lowercase.png","242"
"html-button-response-mod","251","744125","0.0-251.0","76524","","","","","","triplet","2119.5","","","","2","stimuli/boats_uppercase.png","stimuli/stim016_inanimate_boats_4.png","stimuli/stim008_animate_bird_4.png","243"
"html-button-response-mod","252","745728","0.0-252.0","76524","","","","","","triplet","1097.199999999255","","","","1","stimuli/stim009_animate_face_1.png","stimuli/stim023_inanimate_tools_3.png","stimuli/stim010_animate_face_2.png","244"
"html-button-response-mod","253","748290","0.0-253.0","76524","","","","","","triplet","2058.099999997765","","","","0","stimuli/stim017_inanimate_tree_1.png","stimuli/stim022_inanimate_tools_2.png","stimuli/stim014_inanimate_boats_2.png","245"
"html-button-response-mod","254","751082","0.0-254.0","76524","","","","","","triplet","2285.099999997765","","","","0","stimuli/face_uppercase.png","stimuli/stim007_animate_bird_3.png","stimuli/stim022_inanimate_tools_2.png","246"
"html-button-response-mod","255","754643","0.0-255.0","76524","","","","","","triplet","3052.89999999851","","","","2","stimuli/stim017_inanimate_tree_1.png","stimuli/tools_lowercase.png","stimuli/fish_uppercase.png","247"
"html-button-response-mod","256","757030","0.0-256.0","76524","","","","","","triplet","1882.4000000022352","","","","0","stimuli/stim006_animate_bird_2.png","stimuli/tree_lowercase.png","stimuli/stim021_inanimate_tools_1.png","248"
"html-button-response-mod","257","761608","0.0-257.0","76524","","","","","","triplet","4073.099999997765","","","","1","stimuli/tools_uppercase.png","stimuli/stim018_inanimate_tree_2.png","stimuli/boats_uppercase.png","249"
"html-button-response","258","763096","0.0-258.0","76524","","","","","","break","980.1999999992549","<p>BREAK</p><p>Take a break for as long as you need</p><p>Click the button to continue</p>","0","","","","","",""
"html-button-response-mod","259","766649","0.0-259.0","76524","","","","","","triplet","3549.699999999255","","","","2","stimuli/boats_lowercase.png","stimuli/tree_uppercase.png","stimuli/stim009_animate_face_1.png","250"
"html-button-response-mod","260","768478","0.0-260.0","76524","","","","","","triplet","1321.5999999977648","","","","0","stimuli/stim009_animate_face_1.png","stimuli/stim007_animate_bird_3.png","stimuli/stim002_animate_fish_2.png","251"
"html-button-response-mod","261","772905","0.0-261.0","76524","","","","","","triplet","3921.599999997765","","","","1","stimuli/stim010_animate_face_2.png","stimuli/stim013_inanimate_boats_1.png","stimuli/face_uppercase.png","252"
"html-button-response-mod","262","777813","0.0-262.0","76524","","","","","","triplet","4401.20000000298","","","","1","stimuli/stim024_inanimate_tools_4.png","stimuli/tree_lowercase.png","stimuli/boats_uppercase.png","253"
"html-button-response-mod","263","781147","0.0-263.0","76524","","","","","","triplet","2828.699999999255","","","","2","stimuli/stim004_animate_fish_4.png","stimuli/stim006_animate_bird_2.png","stimuli/fish_uppercase.png","254"
"html-button-response-mod","264","783780","0.0-264.0","76524","","","","","","triplet","2126.89999999851","","","","2","stimuli/boats_lowercase.png","stimuli/boats_uppercase.png","stimuli/stim020_inanimate_tree_4.png","255"
"html-button-response-mod","265","785969","0.0-265.0","76524","","","","","","triplet","1685","","","","2","stimuli/face_uppercase.png","stimuli/stim008_animate_bird_4.png","stimuli/stim017_inanimate_tree_1.png","256"
"html-button-response-mod","266","788190","0.0-266.0","76524","","","","","","triplet","1712.800000000745","","","","2","stimuli/stim017_inanimate_tree_1.png","stimuli/face_uppercase.png","stimuli/tools_lowercase.png","257"
"html-button-response-mod","267","792312","0.0-267.0","76524","","","","","","triplet","3616.400000002235","","","","0","stimuli/stim011_animate_face_3.png","stimuli/bird_lowercase.png","stimuli/stim017_inanimate_tree_1.png","258"
"html-button-response-mod","268","797070","0.0-268.0","76524","","","","","","triplet","4253.199999999255","","","","2","stimuli/stim009_animate_face_1.png","stimuli/stim001_animate_fish_1.png","stimuli/tools_uppercase.png","259"
"html-button-response-mod","269","799103","0.0-269.0","76524","","","","","","triplet","1529.4000000022352","","","","2","stimuli/stim018_inanimate_tree_2.png","stimuli/stim010_animate_face_2.png","stimuli/tools_uppercase.png","260"
"html-button-response-mod","270","803195","0.0-270.0","76524","","","","","","triplet","3587.7000000029802","","","","2","stimuli/fish_uppercase.png","stimuli/stim007_animate_bird_3.png","stimuli/stim016_inanimate_boats_4.png","261"
"html-button-response-mod","271","805131","0.0-271.0","76524","","","","","","triplet","1429.4000000022352","","","","0","stimuli/stim014_inanimate_boats_2.png","stimuli/stim004_animate_fish_4.png","stimuli/stim002_animate_fish_2.png","262"
"html-button-response-mod","272","808972","0.0-272.0","76524","","","","","","triplet","3334.60000000149","","","","1","stimuli/stim012_animate_face_4.png","stimuli/stim019_inanimate_tree_3.png","stimuli/stim008_animate_bird_4.png","263"
"html-button-response-mod","273","811815","0.0-273.0","76524","","","","","","triplet","2334.599999997765","","","","0","stimuli/tree_uppercase.png","stimuli/bird_uppercase.png","stimuli/stim016_inanimate_boats_4.png","264"
"html-button-response-mod","274","815624","0.0-274.0","76524","","","","","","triplet","3304.10000000149","","","","2","stimuli/tree_lowercase.png","stimuli/stim023_inanimate_tools_3.png","stimuli/fish_lowercase.png","265"
"html-button-response-mod","275","819116","0.0-275.0","76524","","","","","","triplet","2986.199999999255","","","","1","stimuli/tree_lowercase.png","stimuli/stim022_inanimate_tools_2.png","stimuli/stim021_inanimate_tools_1.png","266"
"html-button-response-mod","276","822438","0.0-276.0","76524","","","","","","triplet","2816.699999999255","","","","1","stimuli/stim015_inanimate_boats_3.png","stimuli/stim010_animate_face_2.png","stimuli/tools_lowercase.png","267"
"html-button-response-mod","277","825009","0.0-277.0","76524","","","","","","triplet","2064.900000002235","","","","1","stimuli/stim015_inanimate_boats_3.png","stimuli/stim014_inanimate_boats_2.png","stimuli/stim016_inanimate_boats_4.png","268"
"html-button-response-mod","278","827695","0.0-278.0","76524","","","","","","triplet","2180.599999997765","","","","1","stimuli/face_lowercase.png","stimuli/stim016_inanimate_boats_4.png","stimuli/stim004_animate_fish_4.png","269"
"html-button-response-mod","279","829954","0.0-279.0","76524","","","","","","triplet","1751","","","","1","stimuli/stim004_animate_fish_4.png","stimuli/stim012_animate_face_4.png","stimuli/fish_uppercase.png","270"
"html-button-response-mod","280","831993","0.0-280.0","76524","","","","","","triplet","1533.699999999255","","","","1","stimuli/stim012_animate_face_4.png","stimuli/boats_uppercase.png","stimuli/stim007_animate_bird_3.png","271"
"html-button-response-mod","281","835467","0.0-281.0","76524","","","","","","triplet","2964.800000000745","","","","1","stimuli/bird_lowercase.png","stimuli/stim009_animate_face_1.png","stimuli/tree_lowercase.png","272"
"html-button-response-mod","282","837593","0.0-282.0","76524","","","","","","triplet","1619.5999999977648","","","","1","stimuli/boats_lowercase.png","stimuli/stim011_animate_face_3.png","stimuli/stim014_inanimate_boats_2.png","273"
"html-button-response-mod","283","840253","0.0-283.0","76524","","","","","","triplet","2155.5","","","","1","stimuli/stim003_animate_fish_3.png","stimuli/stim024_inanimate_tools_4.png","stimuli/boats_lowercase.png","274"
"html-button-response-mod","284","844873","0.0-284.0","76524","","","","","","triplet","4115.5","","","","1","stimuli/tree_lowercase.png","stimuli/stim012_animate_face_4.png","stimuli/boats_lowercase.png","275"
"html-button-response-mod","285","846774","0.0-285.0","76524","","","","","","triplet","1392.2999999970198","","","","2","stimuli/stim019_inanimate_tree_3.png","stimuli/stim018_inanimate_tree_2.png","stimuli/bird_lowercase.png","276"
"html-button-response-mod","286","848530","0.0-286.0","76524","","","","","","triplet","1250.4000000022352","","","","1","stimuli/boats_lowercase.png","stimuli/stim021_inanimate_tools_1.png","stimuli/stim016_inanimate_boats_4.png","277"
"html-button-response-mod","287","851964","0.0-287.0","76524","","","","","","triplet","2925.699999999255","","","","2","stimuli/stim008_animate_bird_4.png","stimuli/face_uppercase.png","stimuli/stim019_inanimate_tree_3.png","278"
"html-button-response-mod","288","854674","0.0-288.0","76524","","","","","","triplet","2204.2999999970198","","","","0","stimuli/face_uppercase.png","stimuli/tree_lowercase.png","stimuli/stim015_inanimate_boats_3.png","279"
"html-button-response-mod","289","857482","0.0-289.0","76524","","","","","","triplet","2301.699999999255","","","","2","stimuli/stim021_inanimate_tools_1.png","stimuli/stim023_inanimate_tools_3.png","stimuli/stim010_animate_face_2.png","280"
"html-button-response-mod","290","861333","0.0-290.0","76524","","","","","","triplet","3343.89999999851","","","","2","stimuli/tools_uppercase.png","stimuli/boats_lowercase.png","stimuli/bird_uppercase.png","281"
"html-button-response-mod","291","864351","0.0-291.0","76524","","","","","","triplet","2510.39999999851","","","","2","stimuli/stim017_inanimate_tree_1.png","stimuli/stim007_animate_bird_3.png","stimuli/boats_lowercase.png","282"
"html-button-response-mod","292","867430","0.0-292.0","76524","","","","","","triplet","2569.199999999255","","","","1","stimuli/stim015_inanimate_boats_3.png","stimuli/stim022_inanimate_tools_2.png","stimuli/tree_uppercase.png","283"
"html-button-response-mod","293","869662","0.0-293.0","76524","","","","","","triplet","1727","","","","1","stimuli/tools_uppercase.png","stimuli/stim001_animate_fish_1.png","stimuli/stim022_inanimate_tools_2.png","284"
"html-button-response-mod","294","871526","0.0-294.0","76524","","","","","","triplet","1356.5999999977648","","","","2","stimuli/stim016_inanimate_boats_4.png","stimuli/stim015_inanimate_boats_3.png","stimuli/stim018_inanimate_tree_2.png","285"
"html-button-response-mod","295","874842","0.0-295.0","76524","","","","","","triplet","2809.300000000745","","","","2","stimuli/stim008_animate_bird_4.png","stimuli/face_uppercase.png","stimuli/stim023_inanimate_tools_3.png","286"
"html-button-response-mod","296","877257","0.0-296.0","76524","","","","","","triplet","1906.300000000745","","","","2","stimuli/tree_uppercase.png","stimuli/stim020_inanimate_tree_4.png","stimuli/stim003_animate_fish_3.png","287"
"html-button-response-mod","297","881204","0.0-297.0","76524","","","","","","triplet","3439.199999999255","","","","2","stimuli/fish_uppercase.png","stimuli/face_uppercase.png","stimuli/tree_uppercase.png","288"
"html-button-response-mod","298","883067","0.0-298.0","76524","","","","","","triplet","1356.2999999970198","","","","0","stimuli/stim009_animate_face_1.png","stimuli/stim013_inanimate_boats_1.png","stimuli/stim014_inanimate_boats_2.png","289"
"html-button-response-mod","299","884720","0.0-299.0","76524","","","","","","triplet","1148.6000000014901","","","","2","stimuli/stim008_animate_bird_4.png","stimuli/stim003_animate_fish_3.png","stimuli/stim013_inanimate_boats_1.png","290"
"html-button-response-mod","300","886357","0.0-300.0","76524","","","","","","triplet","1131.199999999255","","","","2","stimuli/stim018_inanimate_tree_2.png","stimuli/stim017_inanimate_tree_1.png","stimuli/stim014_inanimate_boats_2.png","291"
"html-button-response-mod","301","888632","0.0-301.0","76524","","","","","","triplet","1768.9000000022352","","","","2","stimuli/stim011_animate_face_3.png","stimuli/face_lowercase.png","stimuli/stim004_animate_fish_4.png","292"
"html-button-response-mod","302","891406","0.0-302.0","76524","","","","","","triplet","2266.199999999255","","","","0","stimuli/stim023_inanimate_tools_3.png","stimuli/stim012_animate_face_4.png","stimuli/bird_lowercase.png","293"
"html-button-response-mod","303","893742","0.0-303.0","76524","","","","","","triplet","1827.2999999970198","","","","2","stimuli/stim013_inanimate_boats_1.png","stimuli/tools_uppercase.png","stimuli/stim018_inanimate_tree_2.png","294"
"html-button-response-mod","304","897172","0.0-304.0","76524","","","","","","triplet","2921.60000000149","","","","0","stimuli/stim003_animate_fish_3.png","stimuli/stim024_inanimate_tools_4.png","stimuli/stim016_inanimate_boats_4.png","295"
"html-button-response-mod","305","899283","0.0-305.0","76524","","","","","","triplet","1603.7999999970198","","","","2","stimuli/stim023_inanimate_tools_3.png","stimuli/stim024_inanimate_tools_4.png","stimuli/stim007_animate_bird_3.png","296"
"html-button-response-mod","306","903683","0.0-306.0","76524","","","","","","triplet","3891","","","","1","stimuli/tree_uppercase.png","stimuli/stim002_animate_fish_2.png","stimuli/stim015_inanimate_boats_3.png","297"
"html-button-response-mod","307","906298","0.0-307.0","76524","","","","","","triplet","2110.199999999255","","","","1","stimuli/bird_lowercase.png","stimuli/stim024_inanimate_tools_4.png","stimuli/stim020_inanimate_tree_4.png","298"
"html-button-response-mod","308","909002","0.0-308.0","76524","","","","","","triplet","2196.7999999970198","","","","0","stimuli/tools_uppercase.png","stimuli/boats_lowercase.png","stimuli/stim014_inanimate_boats_2.png","299"
"html-button-response","309","910849","0.0-309.0","76524","","","","","","break","1342.8999999985099","<p>BREAK</p><p>Take a break for as long as you need</p><p>Click the button to continue</p>","0","","","","","",""
"html-button-response-mod","310","912213","0.0-310.0","76524","","","","","","triplet","1360.3999999985099","","","","2","stimuli/stim010_animate_face_2.png","stimuli/face_uppercase.png","stimuli/tree_lowercase.png","300"
"html-button-response-mod","311","914078","0.0-311.0","76524","","","","","","triplet","1357.9000000022352","","","","2","stimuli/boats_lowercase.png","stimuli/stim013_inanimate_boats_1.png","stimuli/fish_lowercase.png","301"
"html-button-response-mod","312","916851","0.0-312.0","76524","","","","","","triplet","2267","","","","0","stimuli/stim005_animate_bird_1.png","stimuli/stim015_inanimate_boats_3.png","stimuli/fish_uppercase.png","302"
"html-button-response-mod","313","918512","0.0-313.0","76524","","","","","","triplet","1155.9000000022352","","","","2","stimuli/stim008_animate_bird_4.png","stimuli/bird_lowercase.png","stimuli/stim011_animate_face_3.png","303"
"html-button-response-mod","314","921735","0.0-314.0","76524","","","","","","triplet","2718.300000000745","","","","1","stimuli/stim017_inanimate_tree_1.png","stimuli/stim022_inanimate_tools_2.png","stimuli/boats_uppercase.png","304"
"html-button-response-mod","315","925069","0.0-315.0","76524","","","","","","triplet","2828.699999999255","","","","2","stimuli/stim011_animate_face_3.png","stimuli/stim010_animate_face_2.png","stimuli/tools_lowercase.png","305"
"html-button-response-mod","316","927597","0.0-316.0","76524","","","","","","triplet","2017.8999999985099","","","","2","stimuli/stim016_inanimate_boats_4.png","stimuli/tree_lowercase.png","stimuli/stim009_animate_face_1.png","306"
"html-button-response-mod","317","929416","0.0-317.0","76524","","","","","","triplet","1310.5","","","","0","stimuli/boats_uppercase.png","stimuli/stim020_inanimate_tree_4.png","stimuli/stim019_inanimate_tree_3.png","307"
"html-button-response-mod","318","931685","0.0-318.0","76524","","","","","","triplet","1759.800000000745","","","","0","stimuli/boats_lowercase.png","stimuli/stim005_animate_bird_1.png","stimuli/bird_lowercase.png","308"
"html-button-response-mod","319","934928","0.0-319.0","76524","","","","","","triplet","2736.099999997765","","","","0","stimuli/stim020_inanimate_tree_4.png","stimuli/tools_lowercase.png","stimuli/boats_lowercase.png","309"
"html-button-response-mod","320","940196","0.0-320.0","76524","","","","","","triplet","4762.20000000298","","","","0","stimuli/stim009_animate_face_1.png","stimuli/stim014_inanimate_boats_2.png","stimuli/stim002_animate_fish_2.png","310"
"html-button-response-mod","321","942900","0.0-321.0","76524","","","","","","triplet","2194.7999999970198","","","","2","stimuli/stim006_animate_bird_2.png","stimuli/stim019_inanimate_tree_3.png","stimuli/stim023_inanimate_tools_3.png","311"
"html-button-response-mod","322","946076","0.0-322.0","76524","","","","","","triplet","2669.199999999255","","","","2","stimuli/stim021_inanimate_tools_1.png","stimuli/stim018_inanimate_tree_2.png","stimuli/face_lowercase.png","312"
"html-button-response-mod","323","948703","0.0-323.0","76524","","","","","","triplet","2117.60000000149","","","","1","stimuli/stim006_animate_bird_2.png","stimuli/stim021_inanimate_tools_1.png","stimuli/fish_uppercase.png","313"
"html-button-response-mod","324","950513","0.0-324.0","76524","","","","","","triplet","1304.5","","","","2","stimuli/stim015_inanimate_boats_3.png","stimuli/stim014_inanimate_boats_2.png","stimuli/tools_uppercase.png","314"
"html-button-response-mod","325","952359","0.0-325.0","76524","","","","","","triplet","1340.199999999255","","","","1","stimuli/stim010_animate_face_2.png","stimuli/tree_lowercase.png","stimuli/stim002_animate_fish_2.png","315"
"html-button-response-mod","326","954809","0.0-326.0","76524","","","","","","triplet","1944.5","","","","1","stimuli/stim006_animate_bird_2.png","stimuli/stim009_animate_face_1.png","stimuli/stim018_inanimate_tree_2.png","316"
"html-button-response-mod","327","957232","0.0-327.0","76524","","","","","","triplet","1917.699999999255","","","","1","stimuli/bird_lowercase.png","stimuli/fish_uppercase.png","stimuli/stim008_animate_bird_4.png","317"
"html-button-response-mod","328","958675","0.0-328.0","76524","","","","","","triplet","937.5999999977648","","","","2","stimuli/stim019_inanimate_tree_3.png","stimuli/stim020_inanimate_tree_4.png","stimuli/bird_lowercase.png","318"
"html-button-response-mod","329","962307","0.0-329.0","76524","","","","","","triplet","3123","","","","2","stimuli/stim002_animate_fish_2.png","stimuli/face_lowercase.png","stimuli/tree_lowercase.png","319"
"html-button-response-mod","330","965204","0.0-330.0","76524","","","","","","triplet","2388.800000000745","","","","0","stimuli/stim006_animate_bird_2.png","stimuli/stim021_inanimate_tools_1.png","stimuli/stim015_inanimate_boats_3.png","320"
"html-button-response-mod","331","967535","0.0-331.0","76524","","","","","","triplet","1824.6000000014901","","","","1","stimuli/stim006_animate_bird_2.png","stimuli/tools_uppercase.png","stimuli/stim009_animate_face_1.png","321"
"html-button-response-mod","332","969834","0.0-332.0","76524","","","","","","triplet","1792.4000000022352","","","","2","stimuli/bird_uppercase.png","stimuli/stim008_animate_bird_4.png","stimuli/stim022_inanimate_tools_2.png","322"
"html-button-response-mod","333","971935","0.0-333.0","76524","","","","","","triplet","1595.0999999977648","","","","1","stimuli/fish_uppercase.png","stimuli/stim021_inanimate_tools_1.png","stimuli/stim008_animate_bird_4.png","323"
"html-button-response-mod","334","975547","0.0-334.0","76524","","","","","","triplet","3105.39999999851","","","","2","stimuli/stim023_inanimate_tools_3.png","stimuli/stim015_inanimate_boats_3.png","stimuli/stim006_animate_bird_2.png","324"
"html-button-response-mod","335","977873","0.0-335.0","76524","","","","","","triplet","1817.5","","","","2","stimuli/face_lowercase.png","stimuli/stim009_animate_face_1.png","stimuli/stim003_animate_fish_3.png","325"
"html-button-response-mod","336","979843","0.0-336.0","76524","","","","","","triplet","1464.0999999977648","","","","0","stimuli/stim003_animate_fish_3.png","stimuli/stim010_animate_face_2.png","stimuli/face_uppercase.png","326"
"html-button-response-mod","337","981794","0.0-337.0","76524","","","","","","triplet","1444.800000000745","","","","2","stimuli/fish_uppercase.png","stimuli/bird_uppercase.png","stimuli/stim023_inanimate_tools_3.png","327"
"html-button-response-mod","338","984882","0.0-338.0","76524","","","","","","triplet","2579.099999997765","","","","0","stimuli/stim012_animate_face_4.png","stimuli/boats_uppercase.png","stimuli/stim017_inanimate_tree_1.png","328"
"html-button-response-mod","339","988111","0.0-339.0","76524","","","","","","triplet","2719.199999999255","","","","1","stimuli/stim007_animate_bird_3.png","stimuli/stim020_inanimate_tree_4.png","stimuli/stim012_animate_face_4.png","329"
"html-button-response-mod","340","990623","0.0-340.0","76524","","","","","","triplet","2008.6000000014901","","","","2","stimuli/stim006_animate_bird_2.png","stimuli/face_lowercase.png","stimuli/stim020_inanimate_tree_4.png","330"
"html-button-response-mod","341","993142","0.0-341.0","76524","","","","","","triplet","2012.8999999985099","","","","0","stimuli/stim002_animate_fish_2.png","stimuli/tree_uppercase.png","stimuli/stim023_inanimate_tools_3.png","331"
"html-button-response-mod","342","997143","0.0-342.0","76524","","","","","","triplet","3495.89999999851","","","","2","stimuli/stim018_inanimate_tree_2.png","stimuli/stim006_animate_bird_2.png","stimuli/stim024_inanimate_tools_4.png","332"
"html-button-response-mod","343","999723","0.0-343.0","76524","","","","","","triplet","2070.60000000149","","","","1","stimuli/stim006_animate_bird_2.png","stimuli/face_uppercase.png","stimuli/stim022_inanimate_tools_2.png","333"
"html-button-response-mod","344","1003652","0.0-344.0","76524","","","","","","triplet","3424.300000000745","","","","0","stimuli/stim009_animate_face_1.png","stimuli/stim017_inanimate_tree_1.png","stimuli/stim008_animate_bird_4.png","334"
"html-button-response-mod","345","1006084","0.0-345.0","76524","","","","","","triplet","1924.6000000014901","","","","0","stimuli/stim011_animate_face_3.png","stimuli/stim007_animate_bird_3.png","stimuli/stim019_inanimate_tree_3.png","335"
"html-button-response-mod","346","1008333","0.0-346.0","76524","","","","","","triplet","1741.699999999255","","","","1","stimuli/tools_lowercase.png","stimuli/boats_lowercase.png","stimuli/stim024_inanimate_tools_4.png","336"
"html-button-response-mod","347","1011273","0.0-347.0","76524","","","","","","triplet","2431.5","","","","1","stimuli/face_uppercase.png","stimuli/stim020_inanimate_tree_4.png","stimuli/stim006_animate_bird_2.png","337"
"html-button-response-mod","348","1015963","0.0-348.0","76524","","","","","","triplet","4182.60000000149","","","","2","stimuli/stim012_animate_face_4.png","stimuli/face_uppercase.png","stimuli/stim019_inanimate_tree_3.png","338"
"html-button-response-mod","349","1019323","0.0-349.0","76524","","","","","","triplet","2855.5","","","","2","stimuli/stim002_animate_fish_2.png","stimuli/bird_uppercase.png","stimuli/stim009_animate_face_1.png","339"
"html-button-response-mod","350","1023523","0.0-350.0","76524","","","","","","triplet","3692","","","","1","stimuli/tree_lowercase.png","stimuli/stim011_animate_face_3.png","stimuli/stim014_inanimate_boats_2.png","340"
"html-button-response-mod","351","1025859","0.0-351.0","76524","","","","","","triplet","1827.699999999255","","","","1","stimuli/tools_lowercase.png","stimuli/fish_uppercase.png","stimuli/stim016_inanimate_boats_4.png","341"
"html-button-response-mod","352","1028490","0.0-352.0","76524","","","","","","triplet","2124.199999999255","","","","0","stimuli/stim014_inanimate_boats_2.png","stimuli/stim006_animate_bird_2.png","stimuli/stim009_animate_face_1.png","342"
"html-button-response-mod","353","1031301","0.0-353.0","76524","","","","","","triplet","2306.10000000149","","","","0","stimuli/stim023_inanimate_tools_3.png","stimuli/stim009_animate_face_1.png","stimuli/face_lowercase.png","343"
"html-button-response-mod","354","1033874","0.0-354.0","76524","","","","","","triplet","2067.599999997765","","","","0","stimuli/stim011_animate_face_3.png","stimuli/fish_uppercase.png","stimuli/stim015_inanimate_boats_3.png","344"
"html-button-response-mod","355","1037041","0.0-355.0","76524","","","","","","triplet","2659.89999999851","","","","0","stimuli/stim011_animate_face_3.png","stimuli/boats_uppercase.png","stimuli/tools_lowercase.png","345"
"html-button-response-mod","356","1040139","0.0-356.0","76524","","","","","","triplet","2589","","","","2","stimuli/stim003_animate_fish_3.png","stimuli/stim010_animate_face_2.png","stimuli/tools_uppercase.png","346"
"html-button-response-mod","357","1042519","0.0-357.0","76524","","","","","","triplet","1875.7999999970198","","","","0","stimuli/tools_uppercase.png","stimuli/stim019_inanimate_tree_3.png","stimuli/bird_uppercase.png","347"
"html-button-response-mod","358","1047987","0.0-358.0","76524","","","","","","triplet","4960.39999999851","","","","1","stimuli/stim003_animate_fish_3.png","stimuli/tools_uppercase.png","stimuli/stim011_animate_face_3.png","348"
"html-button-response-mod","359","1049730","0.0-359.0","76524","","","","","","triplet","1235.1000000014901","","","","1","stimuli/stim011_animate_face_3.png","stimuli/stim023_inanimate_tools_3.png","stimuli/stim012_animate_face_4.png","349"
"html-button-response","360","1051078","0.0-360.0","76524","","","","","","break","839.8000000007451","<p>BREAK</p><p>Take a break for as long as you need</p><p>Click the button to continue</p>","0","","","","","",""
"html-button-response-mod","361","1052721","0.0-361.0","76524","","","","","","triplet","1640.5","","","","2","stimuli/stim019_inanimate_tree_3.png","stimuli/tree_lowercase.png","stimuli/stim011_animate_face_3.png","350"
"html-button-response-mod","362","1120185","0.0-362.0","76524","","","","","","triplet","66955.29999999702","","","","1","stimuli/stim007_animate_bird_3.png","stimuli/boats_uppercase.png","stimuli/stim003_animate_fish_3.png","351"
"html-button-response-mod","363","1124499","0.0-363.0","76524","","","","","","triplet","3805","","","","0","stimuli/stim013_inanimate_boats_1.png","stimuli/stim007_animate_bird_3.png","stimuli/fish_lowercase.png","352"
"html-button-response-mod","364","1127543","0.0-364.0","76524","","","","","","triplet","2538.2999999970198","","","","2","stimuli/stim015_inanimate_boats_3.png","stimuli/boats_uppercase.png","stimuli/stim003_animate_fish_3.png","353"
"html-button-response-mod","365","1131325","0.0-365.0","76524","","","","","","triplet","3271.7999999970198","","","","1","stimuli/stim007_animate_bird_3.png","stimuli/stim014_inanimate_boats_2.png","stimuli/stim005_animate_bird_1.png","354"
"html-button-response-mod","366","1133319","0.0-366.0","76524","","","","","","triplet","1486.0999999977648","","","","2","stimuli/tools_lowercase.png","stimuli/stim015_inanimate_boats_3.png","stimuli/stim005_animate_bird_1.png","355"
"html-button-response-mod","367","1136223","0.0-367.0","76524","","","","","","triplet","2396.2999999970198","","","","2","stimuli/tree_lowercase.png","stimuli/stim017_inanimate_tree_1.png","stimuli/stim008_animate_bird_4.png","356"
"html-button-response-mod","368","1139846","0.0-368.0","76524","","","","","","triplet","3113.5","","","","0","stimuli/tools_lowercase.png","stimuli/stim014_inanimate_boats_2.png","stimuli/stim017_inanimate_tree_1.png","357"
"html-button-response-mod","369","1144405","0.0-369.0","76524","","","","","","triplet","4049.699999999255","","","","0","stimuli/fish_uppercase.png","stimuli/stim018_inanimate_tree_2.png","stimuli/stim008_animate_bird_4.png","358"
"html-button-response-mod","370","1147825","0.0-370.0","76524","","","","","","triplet","2915.60000000149","","","","1","stimuli/stim006_animate_bird_2.png","stimuli/stim014_inanimate_boats_2.png","stimuli/stim021_inanimate_tools_1.png","359"
"html-button-response-mod","371","1152685","0.0-371.0","76524","","","","","","triplet","4351.099999997765","","","","2","stimuli/stim004_animate_fish_4.png","stimuli/bird_uppercase.png","stimuli/face_uppercase.png","360"
"html-button-response-mod","372","1154562","0.0-372.0","76524","","","","","","triplet","1370.1000000014901","","","","0","stimuli/face_uppercase.png","stimuli/stim019_inanimate_tree_3.png","stimuli/stim016_inanimate_boats_4.png","361"
"html-button-response-mod","373","1162430","0.0-373.0","76524","","","","","","triplet","7360.60000000149","","","","2","stimuli/stim012_animate_face_4.png","stimuli/stim009_animate_face_1.png","stimuli/stim005_animate_bird_1.png","362"
"html-button-response-mod","374","1164295","0.0-374.0","76524","","","","","","triplet","1359.3999999985099","","","","1","stimuli/tree_uppercase.png","stimuli/tools_uppercase.png","stimuli/stim018_inanimate_tree_2.png","363"
"html-button-response-mod","375","1166912","0.0-375.0","76524","","","","","","triplet","2111","","","","0","stimuli/stim006_animate_bird_2.png","stimuli/stim022_inanimate_tools_2.png","stimuli/stim016_inanimate_boats_4.png","364"
"html-button-response-mod","376","1169044","0.0-376.0","76524","","","","","","triplet","1624.5","","","","1","stimuli/bird_lowercase.png","stimuli/stim021_inanimate_tools_1.png","stimuli/stim004_animate_fish_4.png","365"
"html-button-response-mod","377","1171328","0.0-377.0","76524","","","","","","triplet","1779.6000000014901","","","","0","stimuli/stim016_inanimate_boats_4.png","stimuli/bird_lowercase.png","stimuli/stim019_inanimate_tree_3.png","366"
"html-button-response-mod","378","1179588","0.0-378.0","76524","","","","","","triplet","7751.5","","","","0","stimuli/stim022_inanimate_tools_2.png","stimuli/face_lowercase.png","stimuli/stim010_animate_face_2.png","367"
"html-button-response-mod","379","1184866","0.0-379.0","76524","","","","","","triplet","4773.10000000149","","","","0","stimuli/stim017_inanimate_tree_1.png","stimuli/fish_lowercase.png","stimuli/face_uppercase.png","368"
"html-button-response-mod","380","1187213","0.0-380.0","76524","","","","","","triplet","1840","","","","2","stimuli/stim020_inanimate_tree_4.png","stimuli/stim007_animate_bird_3.png","stimuli/stim022_inanimate_tools_2.png","369"
"html-button-response-mod","381","1189383","0.0-381.0","76524","","","","","","triplet","1663.699999999255","","","","1","stimuli/stim004_animate_fish_4.png","stimuli/stim021_inanimate_tools_1.png","stimuli/stim009_animate_face_1.png","370"
"html-button-response-mod","382","1192250","0.0-382.0","76524","","","","","","triplet","2360.199999999255","","","","2","stimuli/stim017_inanimate_tree_1.png","stimuli/stim007_animate_bird_3.png","stimuli/stim012_animate_face_4.png","371"
"html-button-response-mod","383","1201063","0.0-383.0","76524","","","","","","triplet","8303.800000000745","","","","0","stimuli/stim024_inanimate_tools_4.png","stimuli/bird_uppercase.png","stimuli/bird_lowercase.png","372"
"html-button-response-mod","384","1203696","0.0-384.0","76524","","","","","","triplet","2124.5","","","","0","stimuli/stim016_inanimate_boats_4.png","stimuli/stim005_animate_bird_1.png","stimuli/stim010_animate_face_2.png","373"
"html-button-response-mod","385","1206145","0.0-385.0","76524","","","","","","triplet","1940.5","","","","2","stimuli/stim024_inanimate_tools_4.png","stimuli/fish_uppercase.png","stimuli/stim017_inanimate_tree_1.png","374"
"html-button-response-mod","386","1208762","0.0-386.0","76524","","","","","","triplet","2109.10000000149","","","","2","stimuli/fish_lowercase.png","stimuli/stim014_inanimate_boats_2.png","stimuli/stim017_inanimate_tree_1.png","375"
"html-button-response-mod","387","1219864","0.0-387.0","76524","","","","","","triplet","10597.199999999255","","","","1","stimuli/stim003_animate_fish_3.png","stimuli/stim011_animate_face_3.png","stimuli/bird_uppercase.png","376"
"html-button-response-mod","388","1222974","0.0-388.0","76524","","","","","","triplet","2604.599999997765","","","","1","stimuli/stim014_inanimate_boats_2.png","stimuli/face_lowercase.png","stimuli/fish_lowercase.png","377"
"html-button-response-mod","389","1224555","0.0-389.0","76524","","","","","","triplet","1074.0999999977648","","","","2","stimuli/stim005_animate_bird_1.png","stimuli/stim007_animate_bird_3.png","stimuli/boats_uppercase.png","378"
"html-button-response-mod","390","1225989","0.0-390.0","76524","","","","","","triplet","926.2000000029802","","","","1","stimuli/stim020_inanimate_tree_4.png","stimuli/stim024_inanimate_tools_4.png","stimuli/stim019_inanimate_tree_3.png","379"
"html-button-response-mod","391","1230540","0.0-391.0","76524","","","","","","triplet","4041.800000000745","","","","2","stimuli/boats_uppercase.png","stimuli/tools_lowercase.png","stimuli/stim017_inanimate_tree_1.png","380"
"html-button-response-mod","392","1233805","0.0-392.0","76524","","","","","","triplet","2760.599999997765","","","","0","stimuli/boats_uppercase.png","stimuli/bird_uppercase.png","stimuli/stim010_animate_face_2.png","381"
"html-button-response-mod","393","1236105","0.0-393.0","76524","","","","","","triplet","1795","","","","0","stimuli/boats_lowercase.png","stimuli/bird_lowercase.png","stimuli/stim001_animate_fish_1.png","382"
"html-button-response-mod","394","1239886","0.0-394.0","76524","","","","","","triplet","3276.199999999255","","","","0","stimuli/stim010_animate_face_2.png","stimuli/stim001_animate_fish_1.png","stimuli/stim008_animate_bird_4.png","383"
"html-button-response-mod","395","1242336","0.0-395.0","76524","","","","","","triplet","1944.6000000014901","","","","2","stimuli/stim022_inanimate_tools_2.png","stimuli/stim015_inanimate_boats_3.png","stimuli/stim011_animate_face_3.png","384"
"html-button-response-mod","396","1251884","0.0-396.0","76524","","","","","","triplet","9039.39999999851","","","","0","stimuli/stim012_animate_face_4.png","stimuli/stim002_animate_fish_2.png","stimuli/stim008_animate_bird_4.png","385"
"html-button-response-mod","397","1256449","0.0-397.0","76524","","","","","","triplet","4057.60000000149","","","","0","stimuli/tree_uppercase.png","stimuli/bird_lowercase.png","stimuli/bird_uppercase.png","386"
"html-button-response-mod","398","1258739","0.0-398.0","76524","","","","","","triplet","1782.7999999970198","","","","2","stimuli/face_lowercase.png","stimuli/stim009_animate_face_1.png","stimuli/stim015_inanimate_boats_3.png","387"
"html-button-response-mod","399","1262207","0.0-399.0","76524","","","","","","triplet","2964.5","","","","1","stimuli/tree_uppercase.png","stimuli/face_lowercase.png","stimuli/tools_lowercase.png","388"
"html-button-response-mod","400","1264562","0.0-400.0","76524","","","","","","triplet","1849","","","","0","stimuli/stim008_animate_bird_4.png","stimuli/stim014_inanimate_boats_2.png","stimuli/stim001_animate_fish_1.png","389"
"html-button-response-mod","401","1267711","0.0-401.0","76524","","","","","","triplet","2644","","","","2","stimuli/stim022_inanimate_tools_2.png","stimuli/stim019_inanimate_tree_3.png","stimuli/fish_lowercase.png","390"
"html-button-response-mod","402","1271282","0.0-402.0","76524","","","","","","triplet","3060.900000002235","","","","1","stimuli/bird_lowercase.png","stimuli/tree_lowercase.png","stimuli/stim004_animate_fish_4.png","391"
"html-button-response-mod","403","1278623","0.0-403.0","76524","","","","","","triplet","6834","","","","1","stimuli/stim006_animate_bird_2.png","stimuli/stim022_inanimate_tools_2.png","stimuli/face_lowercase.png","392"
"html-button-response-mod","404","1280460","0.0-404.0","76524","","","","","","triplet","1327.699999999255","","","","0","stimuli/face_lowercase.png","stimuli/tree_uppercase.png","stimuli/stim016_inanimate_boats_4.png","393"
"html-button-response-mod","405","1282850","0.0-405.0","76524","","","","","","triplet","1882.2000000029802","","","","2","stimuli/bird_uppercase.png","stimuli/stim002_animate_fish_2.png","stimuli/face_uppercase.png","394"
"html-button-response-mod","406","1284580","0.0-406.0","76524","","","","","","triplet","1222.3999999985099","","","","1","stimuli/stim015_inanimate_boats_3.png","stimuli/face_uppercase.png","stimuli/stim014_inanimate_boats_2.png","395"
"html-button-response-mod","407","1296122","0.0-407.0","76524","","","","","","triplet","11036.5","","","","2","stimuli/fish_uppercase.png","stimuli/bird_uppercase.png","stimuli/face_lowercase.png","396"
"html-button-response-mod","408","1299421","0.0-408.0","76524","","","","","","triplet","2790.699999999255","","","","2","stimuli/boats_uppercase.png","stimuli/stim017_inanimate_tree_1.png","stimuli/stim009_animate_face_1.png","397"
"html-button-response-mod","409","1303358","0.0-409.0","76524","","","","","","triplet","3432.300000000745","","","","2","stimuli/stim016_inanimate_boats_4.png","stimuli/stim001_animate_fish_1.png","stimuli/stim020_inanimate_tree_4.png","398"
"html-button-response-mod","410","1305686","0.0-410.0","76524","","","","","","triplet","1818.6000000014901","","","","2","stimuli/stim020_inanimate_tree_4.png","stimuli/stim005_animate_bird_1.png","stimuli/stim022_inanimate_tools_2.png","399"
"html-button-response","411","1307368","0.0-411.0","76524","","","","","","break","1175.5","<p>BREAK</p><p>Take a break for as long as you need</p><p>Click the button to continue</p>","0","","","","","",""
"survey-text","412","1397087","0.0-412.0","76524","","","","","","data_patterns","89694.69999999925","","{""Q0"":""Some of them are of the same type, other of them are related.""}","","","","","",""
"survey-text","413","1399499","0.0-413.0","76524","","","","","","age_question","2406","","{""Age"":""21""}","","","","","",""
"html-button-response","414","1401122","0.0-414.0","76524","","","","","","gender_question","1619.2999999970198","How would you like your gender to be recorded?","1","","","","","",""
"html-button-response","415","1402094","0.0-415.0","76524","","","","","","debrief","968.1999999992549","<p> Thank you for participating in this experiment! </p><p> We are investigating the dimensions along which you perceive the world </p><p>The images were all sorted according to whether they are animate or not, and </p><p> whether they are text or images. We are comparing this to some neuroimaging data to see </p> how your conscious classification relates to how your brain classifies the objects automatically. </p>","0","1405613","","","","",""
