"trial_type","trial_index","time_elapsed","internal_node_id","subject","success","timeout","failed_images","failed_audio","failed_video","test_part","rt","stimulus","response","end_time","button_pressed","stim0","stim1","stim2","trialnr"
"pavlovia","0","10","0.0-0.0","76256","","","","","","","","","","","","","","",""
"preload","1","1453","0.0-1.0","76256","true","false","[]","[]","[]","preload","","","","","","","","",""
"html-button-response","2","23442","0.0-2.0","76256","","","","","","","21985.89999985695","<p>Welcome to the experiment. To begin, please read the following and press the button at the bottom of the screen.</p><p></p><p><strong>Project Name: A study on cognitive processes involved in visual perception</p></strong><p></p><p><strong>PARTICIPANT INFORMATION STATEMENT</strong></p><p></p><strong>(1) What is the study about?</strong><br>You are invited to participate in a study that investigates the cognitive processes involved in perceiving and recognizing visual stimuli.If you decide to participate, you will be asked to complete a task in which you will view pictures, letters, numbers, or words presented on a computer screen.<br><strong>(2) Who can participate?</strong><br>Anyone aged 18 years or over with access to a computer (not a phone/tablet)<br><strong>(3) Where is the study located?</strong><br>The study will be conducted in your browser<br><strong>(4) Who is carrying out the study?</strong><br>The study is being conducted by Sophia Shatek from the Computational Cognitive Neuroscience laboratory at the University of Sydney.<br><strong>(5) What does the study involve?</strong><br>In this study, you will be asked to perform tasks where you will see different stimuli appear on the computer screen.You will respond by pressing a key or using a computer mouse.<br><strong>(6) How much time will the study take?</strong><br>The study takes about 30 minutes<br><strong>(7)	Can I withdraw from the study?</strong><br>Being in this study is completely voluntary - you are not under any obligation to consent. You can withdraw at any time without having to give a reason and without penalty.<br><strong>(8) Will anyone else know the results?</strong><br>All aspects of the study, including results, will be strictly confidential and only the researchers will have access to information on participants.The results and data from the study may be submitted for publication or shared with other research labs, but individual participants will not be identifiable.<br><strong>(9) Will the study benefit me?</strong><br>You will be awarded 0.5 credits for your participation.<br><strong>(10) Can I tell other people about the study?</strong><br>Yes, please tell them to contact Dr Thomas Carlson by email at thomas.carlson@sydney.edu.au.<br><strong>(11) What if I require further information about the study or my involvement in it?</strong><br>When you have read this information, the investigator will discuss it with you further and answer any questions you may have.If you would like to know more at any stage, please feel free to contact Dr Thomas Carlson directly by email at thomas.carlson@sydney.edu.au.If you would like to be informed about the outcomes of the study, contact Dr Thomas Carlson directly by email at thomas.carlson@sydney.edu.au.<br><strong>(12) What if I have a complaint or any concerns?</strong><br>Any person with concerns or complaints about the conduct of a research study can contact The Manager,Human Ethics Administration, University of Sydney on +61 2 8627 8176 (Telephone); +61 2 8627 8177 (Facsimile) or ro.humanethics@sydney.edu.au (Email).</p><p></p><strong>By participating in this experiment, you consent to participate in this study and acknowledge that:</strong><br>1. The procedures required for the project and the times involved have been explained to me, and any questions I have about the project have been answered to my satisfaction.<br>2.	I have read the Above Information Statement and have been given the opportunity to discuss the information and my involvement in the project with the researcher/s.<br>3. I understand that allowing my data to be used in research reports is completely voluntary - I am not under any obligation to consent.<br>4. I understand that my involvement is strictly confidential. I understand that any research data gathered from the results of the study may be publishedhowever no information about me will be used in any way that is identifiable.</p><p></p>","0","","","","","",""
"html-button-response","3","42506","0.0-3.0","76256","","","","","","opening_instructions","19061.5","<p>In this experiment, you will see three images appear on the screen.</p><p>You need to click the 'odd one out', or the image </p><p>that is MOST CONCEPTUALLY DIFFERENT to the other two. </p><p>(e.g., the word 'tree' and a picture of a tree are conceptually SIMILAR, </p><p> but the word 'tree' and the word 'boat' are conceptually DIFFERENT even though they look similar) </p><p>Just go with your intuition, don't spend too long thinking about each one.</p>","0","46625.799999952316","","","","",""
"html-button-response-mod","4","43845","0.0-4.0","76256","","","","","","triplet","1335.5999999046326","","","","1","stimuli/fish_uppercase.png","stimuli/stim006_animate_bird_2.png","stimuli/boats_uppercase.png","0"
"html-button-response-mod","5","45840","0.0-5.0","76256","","","","","","triplet","1491.8999998569489","","","","0","stimuli/stim011_animate_face_3.png","stimuli/stim013_inanimate_boats_1.png","stimuli/stim024_inanimate_tools_4.png","1"
"html-button-response-mod","6","47394","0.0-6.0","76256","","","","","","triplet","1050","","","","2","stimuli/stim003_animate_fish_3.png","stimuli/stim012_animate_face_4.png","stimuli/tree_uppercase.png","2"
"html-button-response-mod","7","49447","0.0-7.0","76256","","","","","","triplet","1548.2999999523163","","","","2","stimuli/stim007_animate_bird_3.png","stimuli/stim001_animate_fish_1.png","stimuli/stim011_animate_face_3.png","3"
"html-button-response-mod","8","51497","0.0-8.0","76256","","","","","","triplet","1546.7999999523163","","","","0","stimuli/stim015_inanimate_boats_3.png","stimuli/stim016_inanimate_boats_4.png","stimuli/stim014_inanimate_boats_2.png","4"
"html-button-response-mod","9","52900","0.0-9.0","76256","","","","","","triplet","898.4000000953674","","","","0","stimuli/fish_lowercase.png","stimuli/stim020_inanimate_tree_4.png","stimuli/stim010_animate_face_2.png","5"
"html-button-response-mod","10","54134","0.0-10.0","76256","","","","","","triplet","731","","","","2","stimuli/stim016_inanimate_boats_4.png","stimuli/stim011_animate_face_3.png","stimuli/tree_uppercase.png","6"
"html-button-response-mod","11","55720","0.0-11.0","76256","","","","","","triplet","1082.2999999523163","","","","0","stimuli/stim011_animate_face_3.png","stimuli/stim021_inanimate_tools_1.png","stimuli/stim022_inanimate_tools_2.png","7"
"html-button-response-mod","12","57019","0.0-12.0","76256","","","","","","triplet","795.5999999046326","","","","0","stimuli/stim024_inanimate_tools_4.png","stimuli/bird_uppercase.png","stimuli/tree_uppercase.png","8"
"html-button-response-mod","13","58669","0.0-13.0","76256","","","","","","triplet","1146.7999999523163","","","","0","stimuli/stim019_inanimate_tree_3.png","stimuli/stim016_inanimate_boats_4.png","stimuli/stim009_animate_face_1.png","9"
"html-button-response-mod","14","59992","0.0-14.0","76256","","","","","","triplet","819.5999999046326","","","","0","stimuli/bird_uppercase.png","stimuli/stim012_animate_face_4.png","stimuli/stim022_inanimate_tools_2.png","10"
"html-button-response-mod","15","61210","0.0-15.0","76256","","","","","","triplet","713.8999998569489","","","","2","stimuli/stim014_inanimate_boats_2.png","stimuli/stim023_inanimate_tools_3.png","stimuli/tools_lowercase.png","11"
"html-button-response-mod","16","63349","0.0-16.0","76256","","","","","","triplet","1635.8999998569489","","","","0","stimuli/stim004_animate_fish_4.png","stimuli/stim021_inanimate_tools_1.png","stimuli/stim013_inanimate_boats_1.png","12"
"html-button-response-mod","17","64841","0.0-17.0","76256","","","","","","triplet","986.1000001430511","","","","2","stimuli/stim019_inanimate_tree_3.png","stimuli/stim002_animate_fish_2.png","stimuli/tools_lowercase.png","13"
"html-button-response-mod","18","66115","0.0-18.0","76256","","","","","","triplet","770.4000000953674","","","","0","stimuli/stim018_inanimate_tree_2.png","stimuli/bird_lowercase.png","stimuli/bird_uppercase.png","14"
"html-button-response-mod","19","67701","0.0-19.0","76256","","","","","","triplet","1082.4000000953674","","","","0","stimuli/face_lowercase.png","stimuli/stim014_inanimate_boats_2.png","stimuli/stim006_animate_bird_2.png","15"
"html-button-response-mod","20","69906","0.0-20.0","76256","","","","","","triplet","1700.8999998569489","","","","2","stimuli/bird_lowercase.png","stimuli/tree_lowercase.png","stimuli/stim013_inanimate_boats_1.png","16"
"html-button-response-mod","21","71380","0.0-21.0","76256","","","","","","triplet","970.5999999046326","","","","2","stimuli/stim021_inanimate_tools_1.png","stimuli/stim024_inanimate_tools_4.png","stimuli/boats_uppercase.png","17"
"html-button-response-mod","22","72532","0.0-22.0","76256","","","","","","triplet","647.7000000476837","","","","0","stimuli/bird_uppercase.png","stimuli/stim002_animate_fish_2.png","stimuli/stim021_inanimate_tools_1.png","18"
"html-button-response-mod","23","73913","0.0-23.0","76256","","","","","","triplet","876.5999999046326","","","","2","stimuli/stim009_animate_face_1.png","stimuli/stim011_animate_face_3.png","stimuli/stim018_inanimate_tree_2.png","19"
"html-button-response-mod","24","75171","0.0-24.0","76256","","","","","","triplet","754.4000000953674","","","","0","stimuli/boats_lowercase.png","stimuli/stim010_animate_face_2.png","stimuli/stim004_animate_fish_4.png","20"
"html-button-response-mod","25","77759","0.0-25.0","76256","","","","","","triplet","2085.0999999046326","","","","0","stimuli/stim011_animate_face_3.png","stimuli/stim017_inanimate_tree_1.png","stimuli/stim024_inanimate_tools_4.png","21"
"html-button-response-mod","26","79354","0.0-26.0","76256","","","","","","triplet","1092.0999999046326","","","","0","stimuli/tree_lowercase.png","stimuli/stim002_animate_fish_2.png","stimuli/stim014_inanimate_boats_2.png","22"
"html-button-response-mod","27","80709","0.0-27.0","76256","","","","","","triplet","852.0999999046326","","","","2","stimuli/stim004_animate_fish_4.png","stimuli/stim012_animate_face_4.png","stimuli/bird_lowercase.png","23"
"html-button-response-mod","28","81879","0.0-28.0","76256","","","","","","triplet","667.4000000953674","","","","0","stimuli/bird_uppercase.png","stimuli/stim012_animate_face_4.png","stimuli/stim004_animate_fish_4.png","24"
"html-button-response-mod","29","83000","0.0-29.0","76256","","","","","","triplet","616.2000000476837","","","","2","stimuli/stim013_inanimate_boats_1.png","stimuli/stim015_inanimate_boats_3.png","stimuli/bird_lowercase.png","25"
"html-button-response-mod","30","84299","0.0-30.0","76256","","","","","","triplet","796.2000000476837","","","","1","stimuli/bird_uppercase.png","stimuli/stim008_animate_bird_4.png","stimuli/bird_lowercase.png","26"
"html-button-response-mod","31","85462","0.0-31.0","76256","","","","","","triplet","660.7000000476837","","","","0","stimuli/tree_uppercase.png","stimuli/stim005_animate_bird_1.png","stimuli/stim016_inanimate_boats_4.png","27"
"html-button-response-mod","32","88041","0.0-32.0","76256","","","","","","triplet","2074.5","","","","2","stimuli/stim001_animate_fish_1.png","stimuli/stim011_animate_face_3.png","stimuli/stim016_inanimate_boats_4.png","28"
"html-button-response-mod","33","89835","0.0-33.0","76256","","","","","","triplet","1291","","","","0","stimuli/stim016_inanimate_boats_4.png","stimuli/stim004_animate_fish_4.png","stimuli/stim012_animate_face_4.png","29"
"html-button-response-mod","34","92393","0.0-34.0","76256","","","","","","triplet","2054.5","","","","0","stimuli/stim015_inanimate_boats_3.png","stimuli/stim012_animate_face_4.png","stimuli/stim006_animate_bird_2.png","30"
"html-button-response-mod","35","93659","0.0-35.0","76256","","","","","","triplet","762.7999999523163","","","","0","stimuli/tools_lowercase.png","stimuli/stim020_inanimate_tree_4.png","stimuli/stim003_animate_fish_3.png","31"
"html-button-response-mod","36","94909","0.0-36.0","76256","","","","","","triplet","745.7999999523163","","","","1","stimuli/stim019_inanimate_tree_3.png","stimuli/tools_lowercase.png","stimuli/stim003_animate_fish_3.png","32"
"html-button-response-mod","37","96231","0.0-37.0","76256","","","","","","triplet","819.2000000476837","","","","1","stimuli/tree_uppercase.png","stimuli/stim023_inanimate_tools_3.png","stimuli/tree_lowercase.png","33"
"html-button-response-mod","38","97633","0.0-38.0","76256","","","","","","triplet","899","","","","2","stimuli/stim009_animate_face_1.png","stimuli/stim011_animate_face_3.png","stimuli/stim005_animate_bird_1.png","34"
"html-button-response-mod","39","98899","0.0-39.0","76256","","","","","","triplet","762.8000001907349","","","","0","stimuli/stim021_inanimate_tools_1.png","stimuli/tree_lowercase.png","stimuli/tree_uppercase.png","35"
"html-button-response-mod","40","100615","0.0-40.0","76256","","","","","","triplet","1212.2000000476837","","","","2","stimuli/stim003_animate_fish_3.png","stimuli/stim019_inanimate_tree_3.png","stimuli/tree_uppercase.png","36"
"html-button-response-mod","41","101873","0.0-41.0","76256","","","","","","triplet","754.9000000953674","","","","0","stimuli/stim023_inanimate_tools_3.png","stimuli/face_lowercase.png","stimuli/bird_lowercase.png","37"
"html-button-response-mod","42","103251","0.0-42.0","76256","","","","","","triplet","874.4000000953674","","","","1","stimuli/stim012_animate_face_4.png","stimuli/face_uppercase.png","stimuli/stim002_animate_fish_2.png","38"
"html-button-response-mod","43","104758","0.0-43.0","76256","","","","","","triplet","1003.5999999046326","","","","1","stimuli/stim018_inanimate_tree_2.png","stimuli/stim016_inanimate_boats_4.png","stimuli/stim020_inanimate_tree_4.png","39"
"html-button-response-mod","44","106465","0.0-44.0","76256","","","","","","triplet","1204","","","","0","stimuli/fish_uppercase.png","stimuli/stim013_inanimate_boats_1.png","stimuli/stim020_inanimate_tree_4.png","40"
"html-button-response-mod","45","108195","0.0-45.0","76256","","","","","","triplet","1226.7000000476837","","","","0","stimuli/bird_lowercase.png","stimuli/stim009_animate_face_1.png","stimuli/stim002_animate_fish_2.png","41"
"html-button-response-mod","46","109549","0.0-46.0","76256","","","","","","triplet","851.4000000953674","","","","0","stimuli/bird_lowercase.png","stimuli/stim023_inanimate_tools_3.png","stimuli/stim021_inanimate_tools_1.png","42"
"html-button-response-mod","47","110969","0.0-47.0","76256","","","","","","triplet","916.0999999046326","","","","2","stimuli/stim024_inanimate_tools_4.png","stimuli/stim022_inanimate_tools_2.png","stimuli/stim019_inanimate_tree_3.png","43"
"html-button-response-mod","48","112435","0.0-48.0","76256","","","","","","triplet","963.3000001907349","","","","1","stimuli/stim005_animate_bird_1.png","stimuli/fish_uppercase.png","stimuli/stim023_inanimate_tools_3.png","44"
"html-button-response-mod","49","113742","0.0-49.0","76256","","","","","","triplet","803","","","","2","stimuli/stim008_animate_bird_4.png","stimuli/stim005_animate_bird_1.png","stimuli/stim017_inanimate_tree_1.png","45"
"html-button-response-mod","50","115615","0.0-50.0","76256","","","","","","triplet","1368.2000000476837","","","","2","stimuli/stim013_inanimate_boats_1.png","stimuli/stim008_animate_bird_4.png","stimuli/boats_lowercase.png","46"
"html-button-response-mod","51","117283","0.0-51.0","76256","","","","","","triplet","1164.3999998569489","","","","0","stimuli/stim018_inanimate_tree_2.png","stimuli/stim001_animate_fish_1.png","stimuli/stim023_inanimate_tools_3.png","47"
"html-button-response-mod","52","119022","0.0-52.0","76256","","","","","","triplet","1236.1000001430511","","","","2","stimuli/bird_uppercase.png","stimuli/boats_lowercase.png","stimuli/stim020_inanimate_tree_4.png","48"
"html-button-response-mod","53","120192","0.0-53.0","76256","","","","","","triplet","666.9000000953674","","","","1","stimuli/bird_uppercase.png","stimuli/stim023_inanimate_tools_3.png","stimuli/boats_uppercase.png","49"
"html-button-response","54","126276","0.0-54.0","76256","","","","","","break","5579","<p>BREAK</p><p>Take a break for as long as you need</p><p>Click the button to continue</p>","0","","","","","",""
"html-button-response-mod","55","127044","0.0-55.0","76256","","","","","","triplet","765.0999999046326","","","","0","stimuli/tools_uppercase.png","stimuli/stim013_inanimate_boats_1.png","stimuli/stim011_animate_face_3.png","50"
"html-button-response-mod","56","128583","0.0-56.0","76256","","","","","","triplet","1034.5","","","","2","stimuli/stim015_inanimate_boats_3.png","stimuli/stim012_animate_face_4.png","stimuli/stim023_inanimate_tools_3.png","51"
"html-button-response-mod","57","129801","0.0-57.0","76256","","","","","","triplet","712.7999999523163","","","","2","stimuli/stim005_animate_bird_1.png","stimuli/stim007_animate_bird_3.png","stimuli/bird_uppercase.png","52"
"html-button-response-mod","58","131297","0.0-58.0","76256","","","","","","triplet","992.2999999523163","","","","0","stimuli/stim019_inanimate_tree_3.png","stimuli/stim009_animate_face_1.png","stimuli/stim024_inanimate_tools_4.png","53"
"html-button-response-mod","59","132734","0.0-59.0","76256","","","","","","triplet","932.8000001907349","","","","0","stimuli/bird_lowercase.png","stimuli/stim004_animate_fish_4.png","stimuli/stim018_inanimate_tree_2.png","54"
"html-button-response-mod","60","133945","0.0-60.0","76256","","","","","","triplet","705.7999999523163","","","","2","stimuli/stim019_inanimate_tree_3.png","stimuli/stim014_inanimate_boats_2.png","stimuli/boats_uppercase.png","55"
"html-button-response-mod","61","135138","0.0-61.0","76256","","","","","","triplet","687.6999998092651","","","","2","stimuli/boats_lowercase.png","stimuli/bird_uppercase.png","stimuli/stim008_animate_bird_4.png","56"
"html-button-response-mod","62","136332","0.0-62.0","76256","","","","","","triplet","691.5","","","","2","stimuli/tree_uppercase.png","stimuli/face_lowercase.png","stimuli/stim016_inanimate_boats_4.png","57"
"html-button-response-mod","63","138488","0.0-63.0","76256","","","","","","triplet","1651.2999999523163","","","","0","stimuli/stim014_inanimate_boats_2.png","stimuli/stim020_inanimate_tree_4.png","stimuli/stim009_animate_face_1.png","58"
"html-button-response-mod","64","140500","0.0-64.0","76256","","","","","","triplet","1506.1000001430511","","","","2","stimuli/stim008_animate_bird_4.png","stimuli/stim007_animate_bird_3.png","stimuli/stim024_inanimate_tools_4.png","59"
"html-button-response-mod","65","141798","0.0-65.0","76256","","","","","","triplet","792.3999998569489","","","","1","stimuli/bird_uppercase.png","stimuli/stim021_inanimate_tools_1.png","stimuli/boats_lowercase.png","60"
"html-button-response-mod","66","143433","0.0-66.0","76256","","","","","","triplet","1130.5999999046326","","","","0","stimuli/stim013_inanimate_boats_1.png","stimuli/stim010_animate_face_2.png","stimuli/stim018_inanimate_tree_2.png","61"
"html-button-response-mod","67","144547","0.0-67.0","76256","","","","","","triplet","609.4000000953674","","","","1","stimuli/bird_uppercase.png","stimuli/stim011_animate_face_3.png","stimuli/tools_lowercase.png","62"
"html-button-response-mod","68","146262","0.0-68.0","76256","","","","","","triplet","1208.2000000476837","","","","0","stimuli/tools_lowercase.png","stimuli/stim004_animate_fish_4.png","stimuli/stim023_inanimate_tools_3.png","63"
"html-button-response-mod","69","147488","0.0-69.0","76256","","","","","","triplet","721.2000000476837","","","","0","stimuli/fish_lowercase.png","stimuli/tree_uppercase.png","stimuli/bird_uppercase.png","64"
"html-button-response-mod","70","149321","0.0-70.0","76256","","","","","","triplet","1329.2000000476837","","","","1","stimuli/stim006_animate_bird_2.png","stimuli/tools_uppercase.png","stimuli/stim016_inanimate_boats_4.png","65"
"html-button-response-mod","71","150732","0.0-71.0","76256","","","","","","triplet","907.9000000953674","","","","1","stimuli/stim019_inanimate_tree_3.png","stimuli/stim002_animate_fish_2.png","stimuli/stim018_inanimate_tree_2.png","66"
"html-button-response-mod","72","151967","0.0-72.0","76256","","","","","","triplet","730.8999998569489","","","","1","stimuli/stim019_inanimate_tree_3.png","stimuli/stim016_inanimate_boats_4.png","stimuli/stim006_animate_bird_2.png","67"
"html-button-response-mod","73","153153","0.0-73.0","76256","","","","","","triplet","681.4000000953674","","","","0","stimuli/face_lowercase.png","stimuli/stim001_animate_fish_1.png","stimuli/stim019_inanimate_tree_3.png","68"
"html-button-response-mod","74","154347","0.0-74.0","76256","","","","","","triplet","690.7000000476837","","","","2","stimuli/stim023_inanimate_tools_3.png","stimuli/stim022_inanimate_tools_2.png","stimuli/tools_uppercase.png","69"
"html-button-response-mod","75","155621","0.0-75.0","76256","","","","","","triplet","767.2999999523163","","","","1","stimuli/stim023_inanimate_tools_3.png","stimuli/face_uppercase.png","stimuli/stim020_inanimate_tree_4.png","70"
"html-button-response-mod","76","156784","0.0-76.0","76256","","","","","","triplet","658.5","","","","1","stimuli/stim022_inanimate_tools_2.png","stimuli/boats_lowercase.png","stimuli/stim005_animate_bird_1.png","71"
"html-button-response-mod","77","157993","0.0-77.0","76256","","","","","","triplet","706.4000000953674","","","","0","stimuli/fish_uppercase.png","stimuli/stim019_inanimate_tree_3.png","stimuli/stim021_inanimate_tools_1.png","72"
"html-button-response-mod","78","159115","0.0-78.0","76256","","","","","","triplet","616","","","","2","stimuli/stim008_animate_bird_4.png","stimuli/stim018_inanimate_tree_2.png","stimuli/tools_lowercase.png","73"
"html-button-response-mod","79","161480","0.0-79.0","76256","","","","","","triplet","1857.5","","","","2","stimuli/stim003_animate_fish_3.png","stimuli/stim008_animate_bird_4.png","stimuli/stim012_animate_face_4.png","74"
"html-button-response-mod","80","163707","0.0-80.0","76256","","","","","","triplet","1722.7999999523163","","","","0","stimuli/stim006_animate_bird_2.png","stimuli/stim008_animate_bird_4.png","stimuli/stim005_animate_bird_1.png","75"
"html-button-response-mod","81","165670","0.0-81.0","76256","","","","","","triplet","1457.3999998569489","","","","1","stimuli/stim015_inanimate_boats_3.png","stimuli/stim021_inanimate_tools_1.png","stimuli/stim014_inanimate_boats_2.png","76"
"html-button-response-mod","82","167032","0.0-82.0","76256","","","","","","triplet","857.7999999523163","","","","0","stimuli/tree_lowercase.png","stimuli/stim016_inanimate_boats_4.png","stimuli/stim001_animate_fish_1.png","77"
"html-button-response-mod","83","168628","0.0-83.0","76256","","","","","","triplet","1088.2999999523163","","","","1","stimuli/stim006_animate_bird_2.png","stimuli/stim018_inanimate_tree_2.png","stimuli/stim008_animate_bird_4.png","78"
"html-button-response-mod","84","170142","0.0-84.0","76256","","","","","","triplet","1007.3999998569489","","","","1","stimuli/stim003_animate_fish_3.png","stimuli/stim024_inanimate_tools_4.png","stimuli/stim002_animate_fish_2.png","79"
"html-button-response-mod","85","171546","0.0-85.0","76256","","","","","","triplet","898.8999998569489","","","","0","stimuli/face_lowercase.png","stimuli/stim018_inanimate_tree_2.png","stimuli/stim015_inanimate_boats_3.png","80"
"html-button-response-mod","86","173517","0.0-86.0","76256","","","","","","triplet","1463.7999999523163","","","","1","stimuli/stim010_animate_face_2.png","stimuli/boats_lowercase.png","stimuli/stim014_inanimate_boats_2.png","81"
"html-button-response-mod","87","174783","0.0-87.0","76256","","","","","","triplet","761","","","","1","stimuli/stim010_animate_face_2.png","stimuli/bird_uppercase.png","stimuli/stim016_inanimate_boats_4.png","82"
"html-button-response-mod","88","176241","0.0-88.0","76256","","","","","","triplet","952.5","","","","0","stimuli/stim003_animate_fish_3.png","stimuli/stim009_animate_face_1.png","stimuli/stim012_animate_face_4.png","83"
"html-button-response-mod","89","177556","0.0-89.0","76256","","","","","","triplet","808.5","","","","1","stimuli/bird_lowercase.png","stimuli/stim011_animate_face_3.png","stimuli/tools_uppercase.png","84"
"html-button-response-mod","90","179135","0.0-90.0","76256","","","","","","triplet","1073.7999999523163","","","","1","stimuli/stim020_inanimate_tree_4.png","stimuli/tree_lowercase.png","stimuli/stim007_animate_bird_3.png","85"
"html-button-response-mod","91","180537","0.0-91.0","76256","","","","","","triplet","897.0999999046326","","","","1","stimuli/tools_uppercase.png","stimuli/stim015_inanimate_boats_3.png","stimuli/boats_uppercase.png","86"
"html-button-response-mod","92","182597","0.0-92.0","76256","","","","","","triplet","1554.2999999523163","","","","1","stimuli/stim002_animate_fish_2.png","stimuli/stim012_animate_face_4.png","stimuli/stim018_inanimate_tree_2.png","87"
"html-button-response-mod","93","183767","0.0-93.0","76256","","","","","","triplet","662.9000000953674","","","","0","stimuli/tree_uppercase.png","stimuli/stim017_inanimate_tree_1.png","stimuli/stim023_inanimate_tools_3.png","88"
"html-button-response-mod","94","185185","0.0-94.0","76256","","","","","","triplet","912.5","","","","0","stimuli/stim013_inanimate_boats_1.png","stimuli/tools_lowercase.png","stimuli/bird_lowercase.png","89"
"html-button-response-mod","95","186475","0.0-95.0","76256","","","","","","triplet","787.0999999046326","","","","0","stimuli/tree_lowercase.png","stimuli/fish_uppercase.png","stimuli/boats_uppercase.png","90"
"html-button-response-mod","96","187829","0.0-96.0","76256","","","","","","triplet","850.4000000953674","","","","2","stimuli/stim001_animate_fish_1.png","stimuli/stim021_inanimate_tools_1.png","stimuli/stim010_animate_face_2.png","91"
"html-button-response-mod","97","189071","0.0-97.0","76256","","","","","","triplet","738","","","","1","stimuli/stim022_inanimate_tools_2.png","stimuli/stim019_inanimate_tree_3.png","stimuli/stim021_inanimate_tools_1.png","92"
"html-button-response-mod","98","190352","0.0-98.0","76256","","","","","","triplet","778.6999998092651","","","","2","stimuli/stim015_inanimate_boats_3.png","stimuli/stim017_inanimate_tree_1.png","stimuli/bird_uppercase.png","93"
"html-button-response-mod","99","191395","0.0-99.0","76256","","","","","","triplet","540.7000000476837","","","","0","stimuli/tree_uppercase.png","stimuli/stim009_animate_face_1.png","stimuli/stim023_inanimate_tools_3.png","94"
"html-button-response-mod","100","192580","0.0-100.0","76256","","","","","","triplet","680.7000000476837","","","","1","stimuli/stim018_inanimate_tree_2.png","stimuli/boats_lowercase.png","stimuli/stim024_inanimate_tools_4.png","95"
"html-button-response-mod","101","193903","0.0-101.0","76256","","","","","","triplet","818.2000000476837","","","","1","stimuli/stim023_inanimate_tools_3.png","stimuli/stim016_inanimate_boats_4.png","stimuli/stim024_inanimate_tools_4.png","96"
"html-button-response-mod","102","195273","0.0-102.0","76256","","","","","","triplet","865.7999999523163","","","","1","stimuli/stim001_animate_fish_1.png","stimuli/face_uppercase.png","stimuli/stim024_inanimate_tools_4.png","97"
"html-button-response-mod","103","196435","0.0-103.0","76256","","","","","","triplet","657.3999998569489","","","","0","stimuli/stim003_animate_fish_3.png","stimuli/boats_lowercase.png","stimuli/bird_uppercase.png","98"
"html-button-response-mod","104","197661","0.0-104.0","76256","","","","","","triplet","722","","","","2","stimuli/fish_lowercase.png","stimuli/tools_uppercase.png","stimuli/stim013_inanimate_boats_1.png","99"
"html-button-response","105","200026","0.0-105.0","76256","","","","","","break","1858.7999999523163","<p>BREAK</p><p>Take a break for as long as you need</p><p>Click the button to continue</p>","0","","","","","",""
"html-button-response-mod","106","200690","0.0-106.0","76256","","","","","","triplet","661.5","","","","2","stimuli/bird_uppercase.png","stimuli/tree_lowercase.png","stimuli/stim002_animate_fish_2.png","100"
"html-button-response-mod","107","201740","0.0-107.0","76256","","","","","","triplet","546.5","","","","0","stimuli/stim007_animate_bird_3.png","stimuli/fish_uppercase.png","stimuli/stim024_inanimate_tools_4.png","101"
"html-button-response-mod","108","203463","0.0-108.0","76256","","","","","","triplet","1220.0999999046326","","","","1","stimuli/stim002_animate_fish_2.png","stimuli/stim010_animate_face_2.png","stimuli/stim024_inanimate_tools_4.png","102"
"html-button-response-mod","109","204657","0.0-109.0","76256","","","","","","triplet","689","","","","2","stimuli/stim019_inanimate_tree_3.png","stimuli/stim002_animate_fish_2.png","stimuli/tree_uppercase.png","103"
"html-button-response-mod","110","205891","0.0-110.0","76256","","","","","","triplet","728.5","","","","0","stimuli/boats_uppercase.png","stimuli/stim023_inanimate_tools_3.png","stimuli/stim002_animate_fish_2.png","104"
"html-button-response-mod","111","208744","0.0-111.0","76256","","","","","","triplet","2348.300000190735","","","","0","stimuli/stim002_animate_fish_2.png","stimuli/stim005_animate_bird_1.png","stimuli/stim022_inanimate_tools_2.png","105"
"html-button-response-mod","112","211052","0.0-112.0","76256","","","","","","triplet","1803","","","","2","stimuli/stim015_inanimate_boats_3.png","stimuli/stim021_inanimate_tools_1.png","stimuli/stim009_animate_face_1.png","106"
"html-button-response-mod","113","213334","0.0-113.0","76256","","","","","","triplet","1777.9000000953674","","","","1","stimuli/stim014_inanimate_boats_2.png","stimuli/stim019_inanimate_tree_3.png","stimuli/stim005_animate_bird_1.png","107"
"html-button-response-mod","114","214593","0.0-114.0","76256","","","","","","triplet","754","","","","0","stimuli/stim008_animate_bird_4.png","stimuli/bird_uppercase.png","stimuli/fish_lowercase.png","108"
"html-button-response-mod","115","215933","0.0-115.0","76256","","","","","","triplet","834.6999998092651","","","","0","stimuli/face_uppercase.png","stimuli/stim002_animate_fish_2.png","stimuli/stim014_inanimate_boats_2.png","109"
"html-button-response-mod","116","217142","0.0-116.0","76256","","","","","","triplet","702.5999999046326","","","","0","stimuli/boats_uppercase.png","stimuli/stim004_animate_fish_4.png","stimuli/stim007_animate_bird_3.png","110"
"html-button-response-mod","117","218617","0.0-117.0","76256","","","","","","triplet","969.5","","","","2","stimuli/stim022_inanimate_tools_2.png","stimuli/stim006_animate_bird_2.png","stimuli/stim018_inanimate_tree_2.png","111"
"html-button-response-mod","118","220012","0.0-118.0","76256","","","","","","triplet","889.0999999046326","","","","2","stimuli/stim021_inanimate_tools_1.png","stimuli/stim008_animate_bird_4.png","stimuli/stim018_inanimate_tree_2.png","112"
"html-button-response-mod","119","222055","0.0-119.0","76256","","","","","","triplet","1538","","","","2","stimuli/stim002_animate_fish_2.png","stimuli/stim007_animate_bird_3.png","stimuli/stim024_inanimate_tools_4.png","113"
"html-button-response-mod","120","223927","0.0-120.0","76256","","","","","","triplet","1368.1999998092651","","","","2","stimuli/bird_uppercase.png","stimuli/face_lowercase.png","stimuli/stim019_inanimate_tree_3.png","114"
"html-button-response-mod","121","226181","0.0-121.0","76256","","","","","","triplet","1749.5","","","","0","stimuli/stim018_inanimate_tree_2.png","stimuli/stim014_inanimate_boats_2.png","stimuli/stim004_animate_fish_4.png","115"
"html-button-response-mod","122","228056","0.0-122.0","76256","","","","","","triplet","1368.5999999046326","","","","2","stimuli/stim022_inanimate_tools_2.png","stimuli/stim013_inanimate_boats_1.png","stimuli/stim017_inanimate_tree_1.png","116"
"html-button-response-mod","123","229837","0.0-123.0","76256","","","","","","triplet","1277.7999999523163","","","","2","stimuli/stim012_animate_face_4.png","stimuli/stim010_animate_face_2.png","stimuli/stim024_inanimate_tools_4.png","117"
"html-button-response-mod","124","231519","0.0-124.0","76256","","","","","","triplet","1178.7000000476837","","","","2","stimuli/stim002_animate_fish_2.png","stimuli/stim013_inanimate_boats_1.png","stimuli/stim022_inanimate_tools_2.png","118"
"html-button-response-mod","125","232840","0.0-125.0","76256","","","","","","triplet","818.1999998092651","","","","1","stimuli/bird_uppercase.png","stimuli/stim012_animate_face_4.png","stimuli/fish_uppercase.png","119"
"html-button-response-mod","126","235618","0.0-126.0","76256","","","","","","triplet","2274.5999999046326","","","","2","stimuli/stim023_inanimate_tools_3.png","stimuli/stim001_animate_fish_1.png","stimuli/face_lowercase.png","120"
"html-button-response-mod","127","236839","0.0-127.0","76256","","","","","","triplet","717.4000000953674","","","","1","stimuli/boats_lowercase.png","stimuli/stim011_animate_face_3.png","stimuli/tools_lowercase.png","121"
"html-button-response-mod","128","238770","0.0-128.0","76256","","","","","","triplet","1426.4000000953674","","","","0","stimuli/tree_uppercase.png","stimuli/stim022_inanimate_tools_2.png","stimuli/stim012_animate_face_4.png","122"
"html-button-response-mod","129","239901","0.0-129.0","76256","","","","","","triplet","626.7999999523163","","","","0","stimuli/tools_uppercase.png","stimuli/stim015_inanimate_boats_3.png","stimuli/stim020_inanimate_tree_4.png","123"
"html-button-response-mod","130","240984","0.0-130.0","76256","","","","","","triplet","578.6999998092651","","","","2","stimuli/stim008_animate_bird_4.png","stimuli/stim014_inanimate_boats_2.png","stimuli/boats_uppercase.png","124"
"html-button-response-mod","131","242192","0.0-131.0","76256","","","","","","triplet","703.2999999523163","","","","2","stimuli/stim023_inanimate_tools_3.png","stimuli/stim020_inanimate_tree_4.png","stimuli/boats_lowercase.png","125"
"html-button-response-mod","132","243779","0.0-132.0","76256","","","","","","triplet","1083.2000000476837","","","","2","stimuli/boats_lowercase.png","stimuli/fish_lowercase.png","stimuli/bird_uppercase.png","126"
"html-button-response-mod","133","245518","0.0-133.0","76256","","","","","","triplet","1232.9000000953674","","","","2","stimuli/stim006_animate_bird_2.png","stimuli/stim001_animate_fish_1.png","stimuli/stim018_inanimate_tree_2.png","127"
"html-button-response-mod","134","246856","0.0-134.0","76256","","","","","","triplet","833.9000000953674","","","","1","stimuli/stim005_animate_bird_1.png","stimuli/tools_lowercase.png","stimuli/stim001_animate_fish_1.png","128"
"html-button-response-mod","135","247906","0.0-135.0","76256","","","","","","triplet","545.5","","","","1","stimuli/stim004_animate_fish_4.png","stimuli/boats_uppercase.png","stimuli/stim002_animate_fish_2.png","129"
"html-button-response-mod","136","249204","0.0-136.0","76256","","","","","","triplet","793.5","","","","0","stimuli/stim020_inanimate_tree_4.png","stimuli/stim014_inanimate_boats_2.png","stimuli/stim008_animate_bird_4.png","130"
"html-button-response-mod","137","250391","0.0-137.0","76256","","","","","","triplet","681.4000000953674","","","","1","stimuli/fish_lowercase.png","stimuli/stim019_inanimate_tree_3.png","stimuli/fish_uppercase.png","131"
"html-button-response-mod","138","251519","0.0-138.0","76256","","","","","","triplet","624","","","","1","stimuli/stim008_animate_bird_4.png","stimuli/tools_lowercase.png","stimuli/stim021_inanimate_tools_1.png","132"
"html-button-response-mod","139","252754","0.0-139.0","76256","","","","","","triplet","730","","","","1","stimuli/face_uppercase.png","stimuli/stim006_animate_bird_2.png","stimuli/face_lowercase.png","133"
"html-button-response-mod","140","254589","0.0-140.0","76256","","","","","","triplet","1331.5","","","","1","stimuli/stim007_animate_bird_3.png","stimuli/stim011_animate_face_3.png","stimuli/stim003_animate_fish_3.png","134"
"html-button-response-mod","141","255767","0.0-141.0","76256","","","","","","triplet","672.2999999523163","","","","2","stimuli/stim003_animate_fish_3.png","stimuli/stim007_animate_bird_3.png","stimuli/boats_lowercase.png","135"
"html-button-response-mod","142","257130","0.0-142.0","76256","","","","","","triplet","857.5","","","","2","stimuli/stim009_animate_face_1.png","stimuli/stim011_animate_face_3.png","stimuli/stim003_animate_fish_3.png","136"
"html-button-response-mod","143","258260","0.0-143.0","76256","","","","","","triplet","622","","","","1","stimuli/stim008_animate_bird_4.png","stimuli/tree_uppercase.png","stimuli/stim021_inanimate_tools_1.png","137"
"html-button-response-mod","144","259526","0.0-144.0","76256","","","","","","triplet","760.7999999523163","","","","1","stimuli/tools_lowercase.png","stimuli/stim016_inanimate_boats_4.png","stimuli/fish_uppercase.png","138"
"html-button-response-mod","145","260807","0.0-145.0","76256","","","","","","triplet","776","","","","1","stimuli/stim014_inanimate_boats_2.png","stimuli/stim015_inanimate_boats_3.png","stimuli/stim002_animate_fish_2.png","139"
"html-button-response-mod","146","262011","0.0-146.0","76256","","","","","","triplet","697.2000000476837","","","","0","stimuli/fish_uppercase.png","stimuli/stim006_animate_bird_2.png","stimuli/stim001_animate_fish_1.png","140"
"html-button-response-mod","147","263035","0.0-147.0","76256","","","","","","triplet","517.5","","","","0","stimuli/tree_uppercase.png","stimuli/stim018_inanimate_tree_2.png","stimuli/stim015_inanimate_boats_3.png","141"
"html-button-response-mod","148","264479","0.0-148.0","76256","","","","","","triplet","938","","","","1","stimuli/stim014_inanimate_boats_2.png","stimuli/stim009_animate_face_1.png","stimuli/stim021_inanimate_tools_1.png","142"
"html-button-response-mod","149","266046","0.0-149.0","76256","","","","","","triplet","1063.0999999046326","","","","2","stimuli/stim001_animate_fish_1.png","stimuli/stim010_animate_face_2.png","stimuli/stim016_inanimate_boats_4.png","143"
"html-button-response-mod","150","267210","0.0-150.0","76256","","","","","","triplet","660.5","","","","1","stimuli/stim022_inanimate_tools_2.png","stimuli/boats_uppercase.png","stimuli/stim012_animate_face_4.png","144"
"html-button-response-mod","151","268492","0.0-151.0","76256","","","","","","triplet","778.5999999046326","","","","1","stimuli/tree_lowercase.png","stimuli/stim017_inanimate_tree_1.png","stimuli/fish_lowercase.png","145"
"html-button-response-mod","152","269542","0.0-152.0","76256","","","","","","triplet","546.2000000476837","","","","1","stimuli/stim018_inanimate_tree_2.png","stimuli/tools_uppercase.png","stimuli/stim014_inanimate_boats_2.png","146"
"html-button-response-mod","153","272184","0.0-153.0","76256","","","","","","triplet","2137.899999856949","","","","2","stimuli/stim021_inanimate_tools_1.png","stimuli/stim023_inanimate_tools_3.png","stimuli/stim008_animate_bird_4.png","147"
"html-button-response-mod","154","274246","0.0-154.0","76256","","","","","","triplet","1558.4000000953674","","","","1","stimuli/stim004_animate_fish_4.png","stimuli/stim007_animate_bird_3.png","stimuli/stim002_animate_fish_2.png","148"
"html-button-response-mod","155","275417","0.0-155.0","76256","","","","","","triplet","665","","","","0","stimuli/fish_uppercase.png","stimuli/stim009_animate_face_1.png","stimuli/stim012_animate_face_4.png","149"
"html-button-response","156","277220","0.0-156.0","76256","","","","","","break","1298.4000000953674","<p>BREAK</p><p>Take a break for as long as you need</p><p>Click the button to continue</p>","0","","","","","",""
"html-button-response-mod","157","277940","0.0-157.0","76256","","","","","","triplet","717.5999999046326","","","","1","stimuli/stim022_inanimate_tools_2.png","stimuli/boats_uppercase.png","stimuli/stim017_inanimate_tree_1.png","150"
"html-button-response-mod","158","279181","0.0-158.0","76256","","","","","","triplet","737.2999999523163","","","","2","stimuli/stim005_animate_bird_1.png","stimuli/stim008_animate_bird_4.png","stimuli/stim019_inanimate_tree_3.png","151"
"html-button-response-mod","159","281105","0.0-159.0","76256","","","","","","triplet","1418.2999999523163","","","","2","stimuli/stim011_animate_face_3.png","stimuli/stim018_inanimate_tree_2.png","stimuli/tools_lowercase.png","152"
"html-button-response-mod","160","282211","0.0-160.0","76256","","","","","","triplet","600.5999999046326","","","","1","stimuli/stim001_animate_fish_1.png","stimuli/tree_uppercase.png","stimuli/stim018_inanimate_tree_2.png","153"
"html-button-response-mod","161","283341","0.0-161.0","76256","","","","","","triplet","623.0999999046326","","","","0","stimuli/boats_uppercase.png","stimuli/stim018_inanimate_tree_2.png","stimuli/stim023_inanimate_tools_3.png","154"
"html-button-response-mod","162","284439","0.0-162.0","76256","","","","","","triplet","593.3000001907349","","","","1","stimuli/stim024_inanimate_tools_4.png","stimuli/boats_uppercase.png","stimuli/stim012_animate_face_4.png","155"
"html-button-response-mod","163","286876","0.0-163.0","76256","","","","","","triplet","1931.5","","","","1","stimuli/stim007_animate_bird_3.png","stimuli/stim022_inanimate_tools_2.png","stimuli/stim003_animate_fish_3.png","156"
"html-button-response-mod","164","288069","0.0-164.0","76256","","","","","","triplet","687.9000000953674","","","","2","stimuli/stim004_animate_fish_4.png","stimuli/stim007_animate_bird_3.png","stimuli/face_uppercase.png","157"
"html-button-response-mod","165","289216","0.0-165.0","76256","","","","","","triplet","641.6000001430511","","","","1","stimuli/stim001_animate_fish_1.png","stimuli/stim024_inanimate_tools_4.png","stimuli/stim007_animate_bird_3.png","158"
"html-button-response-mod","166","290298","0.0-166.0","76256","","","","","","triplet","576","","","","0","stimuli/fish_lowercase.png","stimuli/stim019_inanimate_tree_3.png","stimuli/stim002_animate_fish_2.png","159"
"html-button-response-mod","167","291411","0.0-167.0","76256","","","","","","triplet","608.6999998092651","","","","1","stimuli/stim020_inanimate_tree_4.png","stimuli/tree_lowercase.png","stimuli/stim002_animate_fish_2.png","160"
"html-button-response-mod","168","292462","0.0-168.0","76256","","","","","","triplet","544.7999999523163","","","","1","stimuli/stim010_animate_face_2.png","stimuli/face_uppercase.png","stimuli/stim003_animate_fish_3.png","161"
"html-button-response-mod","169","293703","0.0-169.0","76256","","","","","","triplet","735.6000001430511","","","","1","stimuli/stim009_animate_face_1.png","stimuli/stim019_inanimate_tree_3.png","stimuli/stim001_animate_fish_1.png","162"
"html-button-response-mod","170","295329","0.0-170.0","76256","","","","","","triplet","1121.5","","","","1","stimuli/stim003_animate_fish_3.png","stimuli/stim016_inanimate_boats_4.png","stimuli/stim007_animate_bird_3.png","163"
"html-button-response-mod","171","298384","0.0-171.0","76256","","","","","","triplet","2549.100000143051","","","","0","stimuli/stim017_inanimate_tree_1.png","stimuli/stim007_animate_bird_3.png","stimuli/stim009_animate_face_1.png","164"
"html-button-response-mod","172","300058","0.0-172.0","76256","","","","","","triplet","1168.8000001907349","","","","0","stimuli/stim023_inanimate_tools_3.png","stimuli/stim014_inanimate_boats_2.png","stimuli/stim002_animate_fish_2.png","165"
"html-button-response-mod","173","301308","0.0-173.0","76256","","","","","","triplet","744.9000000953674","","","","2","stimuli/bird_lowercase.png","stimuli/fish_lowercase.png","stimuli/stim024_inanimate_tools_4.png","166"
"html-button-response-mod","174","302358","0.0-174.0","76256","","","","","","triplet","546.5999999046326","","","","0","stimuli/face_uppercase.png","stimuli/stim012_animate_face_4.png","stimuli/stim016_inanimate_boats_4.png","167"
"html-button-response-mod","175","303640","0.0-175.0","76256","","","","","","triplet","777.2999999523163","","","","2","stimuli/stim002_animate_fish_2.png","stimuli/stim003_animate_fish_3.png","stimuli/stim018_inanimate_tree_2.png","168"
"html-button-response-mod","176","306298","0.0-176.0","76256","","","","","","triplet","2153.7000000476837","","","","1","stimuli/stim015_inanimate_boats_3.png","stimuli/stim001_animate_fish_1.png","stimuli/stim023_inanimate_tools_3.png","169"
"html-button-response-mod","177","307527","0.0-177.0","76256","","","","","","triplet","722.5","","","","2","stimuli/fish_uppercase.png","stimuli/fish_lowercase.png","stimuli/stim011_animate_face_3.png","170"
"html-button-response-mod","178","308561","0.0-178.0","76256","","","","","","triplet","527.7000000476837","","","","0","stimuli/stim011_animate_face_3.png","stimuli/fish_lowercase.png","stimuli/bird_uppercase.png","171"
"html-button-response-mod","179","309900","0.0-179.0","76256","","","","","","triplet","835.5999999046326","","","","2","stimuli/stim001_animate_fish_1.png","stimuli/stim009_animate_face_1.png","stimuli/face_uppercase.png","172"
"html-button-response-mod","180","311358","0.0-180.0","76256","","","","","","triplet","954.2999999523163","","","","0","stimuli/stim007_animate_bird_3.png","stimuli/stim013_inanimate_boats_1.png","stimuli/stim014_inanimate_boats_2.png","173"
"html-button-response-mod","181","312552","0.0-181.0","76256","","","","","","triplet","688.2999999523163","","","","0","stimuli/stim004_animate_fish_4.png","stimuli/tools_lowercase.png","stimuli/bird_uppercase.png","174"
"html-button-response-mod","182","313961","0.0-182.0","76256","","","","","","triplet","905.5","","","","1","stimuli/stim021_inanimate_tools_1.png","stimuli/face_uppercase.png","stimuli/stim008_animate_bird_4.png","175"
"html-button-response-mod","183","315573","0.0-183.0","76256","","","","","","triplet","1108.2000000476837","","","","0","stimuli/stim010_animate_face_2.png","stimuli/stim004_animate_fish_4.png","stimuli/stim007_animate_bird_3.png","176"
"html-button-response-mod","184","316663","0.0-184.0","76256","","","","","","triplet","585.1999998092651","","","","0","stimuli/face_lowercase.png","stimuli/stim010_animate_face_2.png","stimuli/stim014_inanimate_boats_2.png","177"
"html-button-response-mod","185","318153","0.0-185.0","76256","","","","","","triplet","984.7999999523163","","","","2","stimuli/stim022_inanimate_tools_2.png","stimuli/stim021_inanimate_tools_1.png","stimuli/stim020_inanimate_tree_4.png","178"
"html-button-response-mod","186","319403","0.0-186.0","76256","","","","","","triplet","745.3999998569489","","","","0","stimuli/stim004_animate_fish_4.png","stimuli/bird_uppercase.png","stimuli/boats_lowercase.png","179"
"html-button-response-mod","187","320702","0.0-187.0","76256","","","","","","triplet","793.6999998092651","","","","1","stimuli/stim022_inanimate_tools_2.png","stimuli/stim013_inanimate_boats_1.png","stimuli/stim023_inanimate_tools_3.png","180"
"html-button-response-mod","188","321919","0.0-188.0","76256","","","","","","triplet","712.7000000476837","","","","1","stimuli/stim017_inanimate_tree_1.png","stimuli/tree_uppercase.png","stimuli/stim001_animate_fish_1.png","181"
"html-button-response-mod","189","323522","0.0-189.0","76256","","","","","","triplet","1098.7000000476837","","","","0","stimuli/stim010_animate_face_2.png","stimuli/stim022_inanimate_tools_2.png","stimuli/stim024_inanimate_tools_4.png","182"
"html-button-response-mod","190","324701","0.0-190.0","76256","","","","","","triplet","672.8999998569489","","","","1","stimuli/stim001_animate_fish_1.png","stimuli/fish_uppercase.png","stimuli/stim018_inanimate_tree_2.png","183"
"html-button-response-mod","191","326442","0.0-191.0","76256","","","","","","triplet","1238.0999999046326","","","","2","stimuli/stim021_inanimate_tools_1.png","stimuli/stim004_animate_fish_4.png","stimuli/tree_uppercase.png","184"
"html-button-response-mod","192","327569","0.0-192.0","76256","","","","","","triplet","619.7000000476837","","","","2","stimuli/stim023_inanimate_tools_3.png","stimuli/stim018_inanimate_tree_2.png","stimuli/tree_lowercase.png","185"
"html-button-response-mod","193","328676","0.0-193.0","76256","","","","","","triplet","602.1000001430511","","","","1","stimuli/stim016_inanimate_boats_4.png","stimuli/fish_uppercase.png","stimuli/stim019_inanimate_tree_3.png","186"
"html-button-response-mod","194","330176","0.0-194.0","76256","","","","","","triplet","992.6000001430511","","","","0","stimuli/stim023_inanimate_tools_3.png","stimuli/stim002_animate_fish_2.png","stimuli/stim003_animate_fish_3.png","187"
"html-button-response-mod","195","331465","0.0-195.0","76256","","","","","","triplet","781.8999998569489","","","","2","stimuli/stim013_inanimate_boats_1.png","stimuli/stim022_inanimate_tools_2.png","stimuli/stim018_inanimate_tree_2.png","188"
"html-button-response-mod","196","332539","0.0-196.0","76256","","","","","","triplet","566","","","","2","stimuli/stim024_inanimate_tools_4.png","stimuli/stim009_animate_face_1.png","stimuli/bird_uppercase.png","189"
"html-button-response-mod","197","333885","0.0-197.0","76256","","","","","","triplet","840.0999999046326","","","","0","stimuli/stim005_animate_bird_1.png","stimuli/stim024_inanimate_tools_4.png","stimuli/stim023_inanimate_tools_3.png","190"
"html-button-response-mod","198","335279","0.0-198.0","76256","","","","","","triplet","888.8000001907349","","","","1","stimuli/stim001_animate_fish_1.png","stimuli/stim018_inanimate_tree_2.png","stimuli/stim014_inanimate_boats_2.png","191"
"html-button-response-mod","199","336890","0.0-199.0","76256","","","","","","triplet","1105.6000001430511","","","","1","stimuli/stim007_animate_bird_3.png","stimuli/stim018_inanimate_tree_2.png","stimuli/stim021_inanimate_tools_1.png","192"
"html-button-response-mod","200","338762","0.0-200.0","76256","","","","","","triplet","1366.7000000476837","","","","2","stimuli/stim020_inanimate_tree_4.png","stimuli/stim019_inanimate_tree_3.png","stimuli/stim024_inanimate_tools_4.png","193"
"html-button-response-mod","201","339951","0.0-201.0","76256","","","","","","triplet","683.5999999046326","","","","2","stimuli/stim019_inanimate_tree_3.png","stimuli/stim021_inanimate_tools_1.png","stimuli/bird_uppercase.png","194"
"html-button-response-mod","202","341256","0.0-202.0","76256","","","","","","triplet","800.2999999523163","","","","2","stimuli/stim001_animate_fish_1.png","stimuli/stim004_animate_fish_4.png","stimuli/stim021_inanimate_tools_1.png","195"
"html-button-response-mod","203","342354","0.0-203.0","76256","","","","","","triplet","593.8999998569489","","","","2","stimuli/stim024_inanimate_tools_4.png","stimuli/stim002_animate_fish_2.png","stimuli/bird_uppercase.png","196"
"html-button-response-mod","204","343436","0.0-204.0","76256","","","","","","triplet","577.6000001430511","","","","2","stimuli/stim021_inanimate_tools_1.png","stimuli/stim017_inanimate_tree_1.png","stimuli/bird_uppercase.png","197"
"html-button-response-mod","205","344470","0.0-205.0","76256","","","","","","triplet","529.7999999523163","","","","2","stimuli/stim014_inanimate_boats_2.png","stimuli/stim008_animate_bird_4.png","stimuli/boats_lowercase.png","198"
"html-button-response-mod","206","345440","0.0-206.0","76256","","","","","","triplet","465.90000009536743","","","","2","stimuli/stim001_animate_fish_1.png","stimuli/stim024_inanimate_tools_4.png","stimuli/bird_lowercase.png","199"
"html-button-response","207","346826","0.0-207.0","76256","","","","","","break","881.7999999523163","<p>BREAK</p><p>Take a break for as long as you need</p><p>Click the button to continue</p>","0","","","","","",""
"html-button-response-mod","208","347852","0.0-208.0","76256","","","","","","triplet","1024.6000001430511","","","","2","stimuli/tree_lowercase.png","stimuli/bird_lowercase.png","stimuli/bird_uppercase.png","200"
"html-button-response-mod","209","349880","0.0-209.0","76256","","","","","","triplet","1524","","","","1","stimuli/stim013_inanimate_boats_1.png","stimuli/stim005_animate_bird_1.png","stimuli/stim021_inanimate_tools_1.png","201"
"html-button-response-mod","210","351663","0.0-210.0","76256","","","","","","triplet","1278.4000000953674","","","","2","stimuli/stim018_inanimate_tree_2.png","stimuli/stim020_inanimate_tree_4.png","stimuli/stim005_animate_bird_1.png","202"
"html-button-response-mod","211","353382","0.0-211.0","76256","","","","","","triplet","1214.2000000476837","","","","0","stimuli/stim013_inanimate_boats_1.png","stimuli/stim020_inanimate_tree_4.png","stimuli/stim011_animate_face_3.png","203"
"html-button-response-mod","212","354559","0.0-212.0","76256","","","","","","triplet","670.5","","","","2","stimuli/tree_uppercase.png","stimuli/fish_uppercase.png","stimuli/stim008_animate_bird_4.png","204"
"html-button-response-mod","213","355730","0.0-213.0","76256","","","","","","triplet","666.7999999523163","","","","2","stimuli/stim015_inanimate_boats_3.png","stimuli/stim023_inanimate_tools_3.png","stimuli/bird_lowercase.png","205"
"html-button-response-mod","214","356836","0.0-214.0","76256","","","","","","triplet","599.6999998092651","","","","1","stimuli/stim002_animate_fish_2.png","stimuli/tree_lowercase.png","stimuli/stim001_animate_fish_1.png","206"
"html-button-response-mod","215","358061","0.0-215.0","76256","","","","","","triplet","721.1000001430511","","","","1","stimuli/face_lowercase.png","stimuli/stim022_inanimate_tools_2.png","stimuli/fish_uppercase.png","207"
"html-button-response-mod","216","359600","0.0-216.0","76256","","","","","","triplet","1033","","","","0","stimuli/tools_uppercase.png","stimuli/stim017_inanimate_tree_1.png","stimuli/stim022_inanimate_tools_2.png","208"
"html-button-response-mod","217","360706","0.0-217.0","76256","","","","","","triplet","601.5","","","","2","stimuli/stim003_animate_fish_3.png","stimuli/stim004_animate_fish_4.png","stimuli/boats_uppercase.png","209"
"html-button-response-mod","218","362739","0.0-218.0","76256","","","","","","triplet","1528.6000001430511","","","","1","stimuli/boats_lowercase.png","stimuli/stim007_animate_bird_3.png","stimuli/face_uppercase.png","210"
"html-button-response-mod","219","364153","0.0-219.0","76256","","","","","","triplet","908.6999998092651","","","","0","stimuli/boats_lowercase.png","stimuli/stim001_animate_fish_1.png","stimuli/stim007_animate_bird_3.png","211"
"html-button-response-mod","220","365620","0.0-220.0","76256","","","","","","triplet","961.4000000953674","","","","0","stimuli/stim013_inanimate_boats_1.png","stimuli/face_uppercase.png","stimuli/fish_uppercase.png","212"
"html-button-response-mod","221","367221","0.0-221.0","76256","","","","","","triplet","1097.2000000476837","","","","1","stimuli/stim013_inanimate_boats_1.png","stimuli/boats_lowercase.png","stimuli/stim012_animate_face_4.png","213"
"html-button-response-mod","222","368552","0.0-222.0","76256","","","","","","triplet","825.5","","","","1","stimuli/stim012_animate_face_4.png","stimuli/bird_uppercase.png","stimuli/stim024_inanimate_tools_4.png","214"
"html-button-response-mod","223","370427","0.0-223.0","76256","","","","","","triplet","1370.5","","","","1","stimuli/stim005_animate_bird_1.png","stimuli/stim024_inanimate_tools_4.png","stimuli/stim011_animate_face_3.png","215"
"html-button-response-mod","224","371501","0.0-224.0","76256","","","","","","triplet","566.0999999046326","","","","0","stimuli/boats_lowercase.png","stimuli/stim006_animate_bird_2.png","stimuli/stim023_inanimate_tools_3.png","216"
"html-button-response-mod","225","373592","0.0-225.0","76256","","","","","","triplet","1585.5999999046326","","","","2","stimuli/stim021_inanimate_tools_1.png","stimuli/stim015_inanimate_boats_3.png","stimuli/stim002_animate_fish_2.png","217"
"html-button-response-mod","226","376284","0.0-226.0","76256","","","","","","triplet","2186.5","","","","1","stimuli/stim008_animate_bird_4.png","stimuli/stim021_inanimate_tools_1.png","stimuli/stim010_animate_face_2.png","218"
"html-button-response-mod","227","377390","0.0-227.0","76256","","","","","","triplet","600.6000001430511","","","","2","stimuli/stim018_inanimate_tree_2.png","stimuli/stim006_animate_bird_2.png","stimuli/fish_uppercase.png","219"
"html-button-response-mod","228","379025","0.0-228.0","76256","","","","","","triplet","1128.7000000476837","","","","2","stimuli/stim017_inanimate_tree_1.png","stimuli/stim007_animate_bird_3.png","stimuli/fish_uppercase.png","220"
"html-button-response-mod","229","380380","0.0-229.0","76256","","","","","","triplet","849.5","","","","2","stimuli/fish_lowercase.png","stimuli/face_uppercase.png","stimuli/stim006_animate_bird_2.png","221"
"html-button-response-mod","230","381510","0.0-230.0","76256","","","","","","triplet","621.2999999523163","","","","2","stimuli/boats_uppercase.png","stimuli/face_uppercase.png","stimuli/stim005_animate_bird_1.png","222"
"html-button-response-mod","231","383456","0.0-231.0","76256","","","","","","triplet","1440.8999998569489","","","","0","stimuli/stim015_inanimate_boats_3.png","stimuli/stim011_animate_face_3.png","stimuli/stim002_animate_fish_2.png","223"
"html-button-response-mod","232","385364","0.0-232.0","76256","","","","","","triplet","1403.2000000476837","","","","1","stimuli/stim013_inanimate_boats_1.png","stimuli/stim017_inanimate_tree_1.png","stimuli/stim007_animate_bird_3.png","224"
"html-button-response-mod","233","386862","0.0-233.0","76256","","","","","","triplet","994.5999999046326","","","","0","stimuli/stim014_inanimate_boats_2.png","stimuli/tree_lowercase.png","stimuli/tree_uppercase.png","225"
"html-button-response-mod","234","388039","0.0-234.0","76256","","","","","","triplet","672","","","","2","stimuli/boats_uppercase.png","stimuli/face_uppercase.png","stimuli/tools_lowercase.png","226"
"html-button-response-mod","235","392432","0.0-235.0","76256","","","","","","triplet","3887.899999856949","","","","0","stimuli/bird_uppercase.png","stimuli/stim018_inanimate_tree_2.png","stimuli/stim006_animate_bird_2.png","227"
"html-button-response-mod","236","393947","0.0-236.0","76256","","","","","","triplet","1008.8999998569489","","","","0","stimuli/bird_lowercase.png","stimuli/stim023_inanimate_tools_3.png","stimuli/stim022_inanimate_tools_2.png","228"
"html-button-response-mod","237","395157","0.0-237.0","76256","","","","","","triplet","703.3999998569489","","","","2","stimuli/stim019_inanimate_tree_3.png","stimuli/stim015_inanimate_boats_3.png","stimuli/tree_lowercase.png","229"
"html-button-response-mod","238","397119","0.0-238.0","76256","","","","","","triplet","1459.4000000953674","","","","2","stimuli/stim013_inanimate_boats_1.png","stimuli/stim014_inanimate_boats_2.png","stimuli/stim001_animate_fish_1.png","230"
"html-button-response-mod","239","398771","0.0-239.0","76256","","","","","","triplet","1147.6000001430511","","","","1","stimuli/stim014_inanimate_boats_2.png","stimuli/stim003_animate_fish_3.png","stimuli/stim016_inanimate_boats_4.png","231"
"html-button-response-mod","240","399933","0.0-240.0","76256","","","","","","triplet","658","","","","1","stimuli/fish_uppercase.png","stimuli/stim018_inanimate_tree_2.png","stimuli/tree_uppercase.png","232"
"html-button-response-mod","241","400999","0.0-241.0","76256","","","","","","triplet","561.8999998569489","","","","1","stimuli/stim020_inanimate_tree_4.png","stimuli/bird_uppercase.png","stimuli/stim018_inanimate_tree_2.png","233"
"html-button-response-mod","242","402746","0.0-242.0","76256","","","","","","triplet","1241.1000001430511","","","","0","stimuli/stim024_inanimate_tools_4.png","stimuli/stim006_animate_bird_2.png","stimuli/stim012_animate_face_4.png","234"
"html-button-response-mod","243","404437","0.0-243.0","76256","","","","","","triplet","1185.2000000476837","","","","0","stimuli/stim010_animate_face_2.png","stimuli/stim001_animate_fish_1.png","stimuli/stim007_animate_bird_3.png","235"
"html-button-response-mod","244","405623","0.0-244.0","76256","","","","","","triplet","680.2000000476837","","","","2","stimuli/stim011_animate_face_3.png","stimuli/stim007_animate_bird_3.png","stimuli/tools_uppercase.png","236"
"html-button-response-mod","245","406882","0.0-245.0","76256","","","","","","triplet","755.7999999523163","","","","2","stimuli/tree_uppercase.png","stimuli/bird_lowercase.png","stimuli/stim013_inanimate_boats_1.png","237"
"html-button-response-mod","246","408076","0.0-246.0","76256","","","","","","triplet","688.4000000953674","","","","2","stimuli/stim016_inanimate_boats_4.png","stimuli/stim017_inanimate_tree_1.png","stimuli/boats_uppercase.png","238"
"html-button-response-mod","247","409302","0.0-247.0","76256","","","","","","triplet","719.4000000953674","","","","2","stimuli/stim021_inanimate_tools_1.png","stimuli/stim005_animate_bird_1.png","stimuli/tree_uppercase.png","239"
"html-button-response-mod","248","410432","0.0-248.0","76256","","","","","","triplet","624.8000001907349","","","","1","stimuli/stim019_inanimate_tree_3.png","stimuli/face_uppercase.png","stimuli/stim014_inanimate_boats_2.png","240"
"html-button-response-mod","249","411715","0.0-249.0","76256","","","","","","triplet","775.8000001907349","","","","2","stimuli/face_lowercase.png","stimuli/bird_uppercase.png","stimuli/stim004_animate_fish_4.png","241"
"html-button-response-mod","250","412796","0.0-250.0","76256","","","","","","triplet","573.7999999523163","","","","0","stimuli/tools_lowercase.png","stimuli/stim022_inanimate_tools_2.png","stimuli/stim020_inanimate_tree_4.png","242"
"html-button-response-mod","251","414470","0.0-251.0","76256","","","","","","triplet","1166","","","","0","stimuli/stim014_inanimate_boats_2.png","stimuli/tools_uppercase.png","stimuli/fish_lowercase.png","243"
"html-button-response-mod","252","415761","0.0-252.0","76256","","","","","","triplet","785.2000000476837","","","","2","stimuli/stim008_animate_bird_4.png","stimuli/stim004_animate_fish_4.png","stimuli/tree_uppercase.png","244"
"html-button-response-mod","253","416996","0.0-253.0","76256","","","","","","triplet","727.4000000953674","","","","1","stimuli/fish_lowercase.png","stimuli/stim012_animate_face_4.png","stimuli/tools_lowercase.png","245"
"html-button-response-mod","254","418535","0.0-254.0","76256","","","","","","triplet","1033.8999998569489","","","","0","stimuli/bird_lowercase.png","stimuli/stim022_inanimate_tools_2.png","stimuli/stim021_inanimate_tools_1.png","246"
"html-button-response-mod","255","420393","0.0-255.0","76256","","","","","","triplet","1353","","","","2","stimuli/stim015_inanimate_boats_3.png","stimuli/stim004_animate_fish_4.png","stimuli/stim018_inanimate_tree_2.png","247"
"html-button-response-mod","256","422213","0.0-256.0","76256","","","","","","triplet","1314","","","","0","stimuli/stim019_inanimate_tree_3.png","stimuli/stim002_animate_fish_2.png","stimuli/stim023_inanimate_tools_3.png","248"
"html-button-response-mod","257","424430","0.0-257.0","76256","","","","","","triplet","1714.2999999523163","","","","0","stimuli/stim011_animate_face_3.png","stimuli/stim002_animate_fish_2.png","stimuli/stim005_animate_bird_1.png","249"
"html-button-response","258","425840","0.0-258.0","76256","","","","","","break","904.1000001430511","<p>BREAK</p><p>Take a break for as long as you need</p><p>Click the button to continue</p>","0","","","","","",""
"html-button-response-mod","259","426603","0.0-259.0","76256","","","","","","triplet","761","","","","1","stimuli/stim008_animate_bird_4.png","stimuli/fish_lowercase.png","stimuli/stim013_inanimate_boats_1.png","250"
"html-button-response-mod","260","428570","0.0-260.0","76256","","","","","","triplet","1464.1000001430511","","","","2","stimuli/stim019_inanimate_tree_3.png","stimuli/stim017_inanimate_tree_1.png","stimuli/stim013_inanimate_boats_1.png","251"
"html-button-response-mod","261","429816","0.0-261.0","76256","","","","","","triplet","743","","","","0","stimuli/stim024_inanimate_tools_4.png","stimuli/fish_uppercase.png","stimuli/bird_lowercase.png","252"
"html-button-response-mod","262","431843","0.0-262.0","76256","","","","","","triplet","1522","","","","1","stimuli/tools_uppercase.png","stimuli/stim002_animate_fish_2.png","stimuli/fish_lowercase.png","253"
"html-button-response-mod","263","433829","0.0-263.0","76256","","","","","","triplet","1481.1000001430511","","","","1","stimuli/stim016_inanimate_boats_4.png","stimuli/tree_lowercase.png","stimuli/stim015_inanimate_boats_3.png","254"
"html-button-response-mod","264","436076","0.0-264.0","76256","","","","","","triplet","1742.7999999523163","","","","0","stimuli/stim021_inanimate_tools_1.png","stimuli/stim019_inanimate_tree_3.png","stimuli/stim001_animate_fish_1.png","255"
"html-button-response-mod","265","437150","0.0-265.0","76256","","","","","","triplet","567.0999999046326","","","","0","stimuli/bird_uppercase.png","stimuli/stim021_inanimate_tools_1.png","stimuli/stim009_animate_face_1.png","256"
"html-button-response-mod","266","438192","0.0-266.0","76256","","","","","","triplet","537.2999999523163","","","","1","stimuli/stim022_inanimate_tools_2.png","stimuli/tree_lowercase.png","stimuli/stim003_animate_fish_3.png","257"
"html-button-response-mod","267","439385","0.0-267.0","76256","","","","","","triplet","687.2999999523163","","","","1","stimuli/tools_uppercase.png","stimuli/stim001_animate_fish_1.png","stimuli/boats_uppercase.png","258"
"html-button-response-mod","268","440427","0.0-268.0","76256","","","","","","triplet","538","","","","0","stimuli/boats_uppercase.png","stimuli/stim013_inanimate_boats_1.png","stimuli/stim001_animate_fish_1.png","259"
"html-button-response-mod","269","442126","0.0-269.0","76256","","","","","","triplet","1192.5999999046326","","","","1","stimuli/stim014_inanimate_boats_2.png","stimuli/tools_lowercase.png","stimuli/stim006_animate_bird_2.png","260"
"html-button-response-mod","270","444033","0.0-270.0","76256","","","","","","triplet","1400.7000000476837","","","","2","stimuli/stim011_animate_face_3.png","stimuli/stim023_inanimate_tools_3.png","stimuli/stim020_inanimate_tree_4.png","261"
"html-button-response-mod","271","446111","0.0-271.0","76256","","","","","","triplet","1572.8000001907349","","","","0","stimuli/stim001_animate_fish_1.png","stimuli/tree_lowercase.png","stimuli/tools_lowercase.png","262"
"html-button-response-mod","272","448987","0.0-272.0","76256","","","","","","triplet","2368.9000000953674","","","","0","stimuli/stim022_inanimate_tools_2.png","stimuli/stim006_animate_bird_2.png","stimuli/stim019_inanimate_tree_3.png","263"
"html-button-response-mod","273","450238","0.0-273.0","76256","","","","","","triplet","744.8000001907349","","","","0","stimuli/tree_uppercase.png","stimuli/stim008_animate_bird_4.png","stimuli/stim009_animate_face_1.png","264"
"html-button-response-mod","274","451887","0.0-274.0","76256","","","","","","triplet","1143.5","","","","0","stimuli/stim005_animate_bird_1.png","stimuli/stim002_animate_fish_2.png","stimuli/stim004_animate_fish_4.png","265"
"html-button-response-mod","275","453276","0.0-275.0","76256","","","","","","triplet","883.7000000476837","","","","1","stimuli/boats_lowercase.png","stimuli/stim015_inanimate_boats_3.png","stimuli/bird_uppercase.png","266"
"html-button-response-mod","276","454839","0.0-276.0","76256","","","","","","triplet","1056.5","","","","1","stimuli/tools_uppercase.png","stimuli/face_lowercase.png","stimuli/tree_uppercase.png","267"
"html-button-response-mod","277","456240","0.0-277.0","76256","","","","","","triplet","895","","","","1","stimuli/fish_lowercase.png","stimuli/stim016_inanimate_boats_4.png","stimuli/bird_uppercase.png","268"
"html-button-response-mod","278","457321","0.0-278.0","76256","","","","","","triplet","575.6000001430511","","","","1","stimuli/stim004_animate_fish_4.png","stimuli/stim023_inanimate_tools_3.png","stimuli/tree_uppercase.png","269"
"html-button-response-mod","279","460077","0.0-279.0","76256","","","","","","triplet","2250.600000143051","","","","2","stimuli/stim008_animate_bird_4.png","stimuli/stim012_animate_face_4.png","stimuli/stim020_inanimate_tree_4.png","270"
"html-button-response-mod","280","461192","0.0-280.0","76256","","","","","","triplet","607.1000001430511","","","","2","stimuli/stim013_inanimate_boats_1.png","stimuli/stim023_inanimate_tools_3.png","stimuli/tree_uppercase.png","271"
"html-button-response-mod","281","462298","0.0-281.0","76256","","","","","","triplet","598.2999999523163","","","","1","stimuli/stim008_animate_bird_4.png","stimuli/fish_uppercase.png","stimuli/stim005_animate_bird_1.png","272"
"html-button-response-mod","282","463877","0.0-282.0","76256","","","","","","triplet","1076","","","","0","stimuli/stim015_inanimate_boats_3.png","stimuli/stim023_inanimate_tools_3.png","stimuli/stim021_inanimate_tools_1.png","273"
"html-button-response-mod","283","465929","0.0-283.0","76256","","","","","","triplet","1542.7999999523163","","","","0","stimuli/stim023_inanimate_tools_3.png","stimuli/stim020_inanimate_tree_4.png","stimuli/stim003_animate_fish_3.png","274"
"html-button-response-mod","284","467321","0.0-284.0","76256","","","","","","triplet","884.9000000953674","","","","2","stimuli/stim007_animate_bird_3.png","stimuli/stim004_animate_fish_4.png","stimuli/stim017_inanimate_tree_1.png","275"
"html-button-response-mod","285","468476","0.0-285.0","76256","","","","","","triplet","649.5","","","","0","stimuli/face_uppercase.png","stimuli/stim005_animate_bird_1.png","stimuli/stim001_animate_fish_1.png","276"
"html-button-response-mod","286","470117","0.0-286.0","76256","","","","","","triplet","1135.9000000953674","","","","2","stimuli/tools_uppercase.png","stimuli/boats_uppercase.png","stimuli/stim002_animate_fish_2.png","277"
"html-button-response-mod","287","471495","0.0-287.0","76256","","","","","","triplet","874.9000000953674","","","","2","stimuli/tree_uppercase.png","stimuli/tools_lowercase.png","stimuli/stim017_inanimate_tree_1.png","278"
"html-button-response-mod","288","473596","0.0-288.0","76256","","","","","","triplet","1596.8999998569489","","","","0","stimuli/boats_uppercase.png","stimuli/stim005_animate_bird_1.png","stimuli/stim009_animate_face_1.png","279"
"html-button-response-mod","289","474957","0.0-289.0","76256","","","","","","triplet","854.7999999523163","","","","1","stimuli/stim023_inanimate_tools_3.png","stimuli/boats_uppercase.png","stimuli/stim005_animate_bird_1.png","280"
"html-button-response-mod","290","476344","0.0-290.0","76256","","","","","","triplet","881.7999999523163","","","","0","stimuli/tree_lowercase.png","stimuli/stim024_inanimate_tools_4.png","stimuli/stim022_inanimate_tools_2.png","281"
"html-button-response-mod","291","477802","0.0-291.0","76256","","","","","","triplet","952.9000000953674","","","","1","stimuli/stim016_inanimate_boats_4.png","stimuli/tree_lowercase.png","stimuli/stim002_animate_fish_2.png","282"
"html-button-response-mod","292","481477","0.0-292.0","76256","","","","","","triplet","3171.4000000953674","","","","0","stimuli/stim002_animate_fish_2.png","stimuli/stim006_animate_bird_2.png","stimuli/stim005_animate_bird_1.png","283"
"html-button-response-mod","293","482618","0.0-293.0","76256","","","","","","triplet","636.4000000953674","","","","2","stimuli/bird_uppercase.png","stimuli/boats_uppercase.png","stimuli/stim016_inanimate_boats_4.png","284"
"html-button-response-mod","294","485216","0.0-294.0","76256","","","","","","triplet","2094.800000190735","","","","1","stimuli/stim018_inanimate_tree_2.png","stimuli/stim008_animate_bird_4.png","stimuli/tree_lowercase.png","285"
"html-button-response-mod","295","487355","0.0-295.0","76256","","","","","","triplet","1634.1000001430511","","","","1","stimuli/fish_uppercase.png","stimuli/stim024_inanimate_tools_4.png","stimuli/boats_lowercase.png","286"
"html-button-response-mod","296","493605","0.0-296.0","76256","","","","","","triplet","5743.5","","","","1","stimuli/bird_uppercase.png","stimuli/face_uppercase.png","stimuli/fish_uppercase.png","287"
"html-button-response-mod","297","496458","0.0-297.0","76256","","","","","","triplet","2347.7999999523163","","","","0","stimuli/bird_uppercase.png","stimuli/stim022_inanimate_tools_2.png","stimuli/stim023_inanimate_tools_3.png","288"
"html-button-response-mod","298","497844","0.0-298.0","76256","","","","","","triplet","880.1000001430511","","","","0","stimuli/stim014_inanimate_boats_2.png","stimuli/tree_uppercase.png","stimuli/tools_lowercase.png","289"
"html-button-response-mod","299","499936","0.0-299.0","76256","","","","","","triplet","1583.8999998569489","","","","0","stimuli/tree_lowercase.png","stimuli/face_uppercase.png","stimuli/fish_uppercase.png","290"
"html-button-response-mod","300","502395","0.0-300.0","76256","","","","","","triplet","1954.0999999046326","","","","0","stimuli/stim013_inanimate_boats_1.png","stimuli/stim011_animate_face_3.png","stimuli/stim001_animate_fish_1.png","291"
"html-button-response-mod","301","504832","0.0-301.0","76256","","","","","","triplet","1929.1999998092651","","","","1","stimuli/stim014_inanimate_boats_2.png","stimuli/stim003_animate_fish_3.png","stimuli/boats_uppercase.png","292"
"html-button-response-mod","302","506762","0.0-302.0","76256","","","","","","triplet","1425.5","","","","1","stimuli/stim019_inanimate_tree_3.png","stimuli/fish_uppercase.png","stimuli/stim023_inanimate_tools_3.png","293"
"html-button-response-mod","303","508045","0.0-303.0","76256","","","","","","triplet","778.2999999523163","","","","0","stimuli/fish_lowercase.png","stimuli/stim018_inanimate_tree_2.png","stimuli/stim019_inanimate_tree_3.png","294"
"html-button-response-mod","304","509583","0.0-304.0","76256","","","","","","triplet","1031.7000000476837","","","","2","stimuli/stim017_inanimate_tree_1.png","stimuli/stim008_animate_bird_4.png","stimuli/stim022_inanimate_tools_2.png","295"
"html-button-response-mod","305","511282","0.0-305.0","76256","","","","","","triplet","1195","","","","1","stimuli/tree_lowercase.png","stimuli/stim011_animate_face_3.png","stimuli/fish_uppercase.png","296"
"html-button-response-mod","306","512653","0.0-306.0","76256","","","","","","triplet","866.2000000476837","","","","2","stimuli/stim007_animate_bird_3.png","stimuli/stim023_inanimate_tools_3.png","stimuli/stim014_inanimate_boats_2.png","297"
"html-button-response-mod","307","513815","0.0-307.0","76256","","","","","","triplet","657.3999998569489","","","","2","stimuli/stim019_inanimate_tree_3.png","stimuli/stim011_animate_face_3.png","stimuli/tree_lowercase.png","298"
"html-button-response-mod","308","515225","0.0-308.0","76256","","","","","","triplet","906.6999998092651","","","","0","stimuli/stim015_inanimate_boats_3.png","stimuli/stim023_inanimate_tools_3.png","stimuli/stim020_inanimate_tree_4.png","299"
"html-button-response","309","516556","0.0-309.0","76256","","","","","","break","825.0999999046326","<p>BREAK</p><p>Take a break for as long as you need</p><p>Click the button to continue</p>","0","","","","","",""
"html-button-response-mod","310","518062","0.0-310.0","76256","","","","","","triplet","1503.2999999523163","","","","1","stimuli/fish_uppercase.png","stimuli/face_lowercase.png","stimuli/bird_uppercase.png","300"
"html-button-response-mod","311","519457","0.0-311.0","76256","","","","","","triplet","888.5","","","","1","stimuli/boats_uppercase.png","stimuli/stim024_inanimate_tools_4.png","stimuli/tree_uppercase.png","301"
"html-button-response-mod","312","520747","0.0-312.0","76256","","","","","","triplet","784.7000000476837","","","","2","stimuli/boats_uppercase.png","stimuli/stim009_animate_face_1.png","stimuli/stim022_inanimate_tools_2.png","302"
"html-button-response-mod","313","522148","0.0-313.0","76256","","","","","","triplet","894.5","","","","2","stimuli/fish_uppercase.png","stimuli/stim019_inanimate_tree_3.png","stimuli/stim007_animate_bird_3.png","303"
"html-button-response-mod","314","523584","0.0-314.0","76256","","","","","","triplet","930.7000000476837","","","","2","stimuli/stim016_inanimate_boats_4.png","stimuli/stim023_inanimate_tools_3.png","stimuli/bird_lowercase.png","304"
"html-button-response-mod","315","524795","0.0-315.0","76256","","","","","","triplet","706.2999999523163","","","","0","stimuli/stim019_inanimate_tree_3.png","stimuli/face_uppercase.png","stimuli/fish_lowercase.png","305"
"html-button-response-mod","316","526910","0.0-316.0","76256","","","","","","triplet","1608","","","","2","stimuli/tree_uppercase.png","stimuli/tools_uppercase.png","stimuli/bird_uppercase.png","306"
"html-button-response-mod","317","529643","0.0-317.0","76256","","","","","","triplet","2227.2999999523163","","","","0","stimuli/boats_lowercase.png","stimuli/stim002_animate_fish_2.png","stimuli/bird_lowercase.png","307"
"html-button-response-mod","318","532031","0.0-318.0","76256","","","","","","triplet","1882.7999999523163","","","","1","stimuli/stim017_inanimate_tree_1.png","stimuli/stim008_animate_bird_4.png","stimuli/stim009_animate_face_1.png","308"
"html-button-response-mod","319","533818","0.0-319.0","76256","","","","","","triplet","1282.7000000476837","","","","2","stimuli/stim023_inanimate_tools_3.png","stimuli/stim004_animate_fish_4.png","stimuli/stim010_animate_face_2.png","309"
"html-button-response-mod","320","535156","0.0-320.0","76256","","","","","","triplet","832.7000000476837","","","","2","stimuli/stim015_inanimate_boats_3.png","stimuli/stim008_animate_bird_4.png","stimuli/bird_lowercase.png","310"
"html-button-response-mod","321","537128","0.0-321.0","76256","","","","","","triplet","1467","","","","2","stimuli/boats_lowercase.png","stimuli/boats_uppercase.png","stimuli/stim019_inanimate_tree_3.png","311"
"html-button-response-mod","322","539220","0.0-322.0","76256","","","","","","triplet","1586.5999999046326","","","","1","stimuli/stim018_inanimate_tree_2.png","stimuli/stim016_inanimate_boats_4.png","stimuli/stim002_animate_fish_2.png","312"
"html-button-response-mod","323","540694","0.0-323.0","76256","","","","","","triplet","968.9000000953674","","","","2","stimuli/stim021_inanimate_tools_1.png","stimuli/stim007_animate_bird_3.png","stimuli/face_lowercase.png","313"
"html-button-response-mod","324","542048","0.0-324.0","76256","","","","","","triplet","846.2000000476837","","","","2","stimuli/bird_uppercase.png","stimuli/face_uppercase.png","stimuli/boats_lowercase.png","314"
"html-button-response-mod","325","543162","0.0-325.0","76256","","","","","","triplet","608.2999999523163","","","","2","stimuli/stim007_animate_bird_3.png","stimuli/stim010_animate_face_2.png","stimuli/tools_lowercase.png","315"
"html-button-response-mod","326","544420","0.0-326.0","76256","","","","","","triplet","750.7999999523163","","","","1","stimuli/stim018_inanimate_tree_2.png","stimuli/tools_lowercase.png","stimuli/stim020_inanimate_tree_4.png","316"
"html-button-response-mod","327","545648","0.0-327.0","76256","","","","","","triplet","720.5999999046326","","","","0","stimuli/fish_lowercase.png","stimuli/stim016_inanimate_boats_4.png","stimuli/stim007_animate_bird_3.png","317"
"html-button-response-mod","328","546864","0.0-328.0","76256","","","","","","triplet","709.5","","","","0","stimuli/boats_uppercase.png","stimuli/stim001_animate_fish_1.png","stimuli/stim005_animate_bird_1.png","318"
"html-button-response-mod","329","548715","0.0-329.0","76256","","","","","","triplet","1344.5","","","","0","stimuli/stim014_inanimate_boats_2.png","stimuli/stim005_animate_bird_1.png","stimuli/stim007_animate_bird_3.png","319"
"html-button-response-mod","330","549925","0.0-330.0","76256","","","","","","triplet","704.3999998569489","","","","1","stimuli/stim007_animate_bird_3.png","stimuli/boats_lowercase.png","stimuli/stim018_inanimate_tree_2.png","320"
"html-button-response-mod","331","551592","0.0-331.0","76256","","","","","","triplet","1161.7000000476837","","","","1","stimuli/stim011_animate_face_3.png","stimuli/stim008_animate_bird_4.png","stimuli/stim012_animate_face_4.png","321"
"html-button-response-mod","332","553362","0.0-332.0","76256","","","","","","triplet","1266.9000000953674","","","","2","stimuli/stim021_inanimate_tools_1.png","stimuli/stim011_animate_face_3.png","stimuli/stim016_inanimate_boats_4.png","322"
"html-button-response-mod","333","554477","0.0-333.0","76256","","","","","","triplet","609.8999998569489","","","","1","stimuli/fish_uppercase.png","stimuli/stim003_animate_fish_3.png","stimuli/tree_uppercase.png","323"
"html-button-response-mod","334","555807","0.0-334.0","76256","","","","","","triplet","823.7999999523163","","","","2","stimuli/tools_uppercase.png","stimuli/face_uppercase.png","stimuli/boats_uppercase.png","324"
"html-button-response-mod","335","557098","0.0-335.0","76256","","","","","","triplet","786.0999999046326","","","","0","stimuli/face_uppercase.png","stimuli/stim011_animate_face_3.png","stimuli/stim016_inanimate_boats_4.png","325"
"html-button-response-mod","336","558347","0.0-336.0","76256","","","","","","triplet","744.2000000476837","","","","1","stimuli/boats_lowercase.png","stimuli/stim021_inanimate_tools_1.png","stimuli/bird_lowercase.png","326"
"html-button-response-mod","337","559950","0.0-337.0","76256","","","","","","triplet","1097.8999998569489","","","","2","stimuli/tools_lowercase.png","stimuli/boats_uppercase.png","stimuli/stim024_inanimate_tools_4.png","327"
"html-button-response-mod","338","561714","0.0-338.0","76256","","","","","","triplet","1259.2999999523163","","","","0","stimuli/stim017_inanimate_tree_1.png","stimuli/stim006_animate_bird_2.png","stimuli/stim005_animate_bird_1.png","328"
"html-button-response-mod","339","563460","0.0-339.0","76256","","","","","","triplet","1240.7000000476837","","","","1","stimuli/fish_uppercase.png","stimuli/stim007_animate_bird_3.png","stimuli/tools_lowercase.png","329"
"html-button-response-mod","340","564751","0.0-340.0","76256","","","","","","triplet","784.2000000476837","","","","2","stimuli/stim022_inanimate_tools_2.png","stimuli/stim011_animate_face_3.png","stimuli/stim017_inanimate_tree_1.png","330"
"html-button-response-mod","341","566891","0.0-341.0","76256","","","","","","triplet","1634.5","","","","0","stimuli/stim001_animate_fish_1.png","stimuli/stim007_animate_bird_3.png","stimuli/stim006_animate_bird_2.png","331"
"html-button-response-mod","342","568260","0.0-342.0","76256","","","","","","triplet","865","","","","0","stimuli/stim010_animate_face_2.png","stimuli/stim015_inanimate_boats_3.png","stimuli/stim006_animate_bird_2.png","332"
"html-button-response-mod","343","569551","0.0-343.0","76256","","","","","","triplet","785.0999999046326","","","","2","stimuli/face_uppercase.png","stimuli/boats_uppercase.png","stimuli/stim014_inanimate_boats_2.png","333"
"html-button-response-mod","344","571225","0.0-344.0","76256","","","","","","triplet","1169.6999998092651","","","","0","stimuli/tools_lowercase.png","stimuli/stim017_inanimate_tree_1.png","stimuli/stim005_animate_bird_1.png","334"
"html-button-response-mod","345","572860","0.0-345.0","76256","","","","","","triplet","1129.5999999046326","","","","0","stimuli/stim002_animate_fish_2.png","stimuli/face_lowercase.png","stimuli/stim012_animate_face_4.png","335"
"html-button-response-mod","346","574639","0.0-346.0","76256","","","","","","triplet","1271.7999999523163","","","","0","stimuli/stim014_inanimate_boats_2.png","stimuli/bird_uppercase.png","stimuli/stim019_inanimate_tree_3.png","336"
"html-button-response-mod","347","576122","0.0-347.0","76256","","","","","","triplet","977.0999999046326","","","","1","stimuli/stim007_animate_bird_3.png","stimuli/stim022_inanimate_tools_2.png","stimuli/stim008_animate_bird_4.png","337"
"html-button-response-mod","348","577605","0.0-348.0","76256","","","","","","triplet","976.6000001430511","","","","2","stimuli/stim017_inanimate_tree_1.png","stimuli/stim007_animate_bird_3.png","stimuli/tools_uppercase.png","338"
"html-button-response-mod","349","579349","0.0-349.0","76256","","","","","","triplet","1242.7999999523163","","","","0","stimuli/tools_lowercase.png","stimuli/stim008_animate_bird_4.png","stimuli/bird_lowercase.png","339"
"html-button-response-mod","350","581300","0.0-350.0","76256","","","","","","triplet","1443.8000001907349","","","","1","stimuli/stim011_animate_face_3.png","stimuli/tree_uppercase.png","stimuli/stim001_animate_fish_1.png","340"
"html-button-response-mod","351","582597","0.0-351.0","76256","","","","","","triplet","793.6000001430511","","","","0","stimuli/tree_uppercase.png","stimuli/stim023_inanimate_tools_3.png","stimuli/stim007_animate_bird_3.png","341"
"html-button-response-mod","352","584031","0.0-352.0","76256","","","","","","triplet","928.5999999046326","","","","0","stimuli/stim021_inanimate_tools_1.png","stimuli/stim016_inanimate_boats_4.png","stimuli/stim018_inanimate_tree_2.png","342"
"html-button-response-mod","353","586075","0.0-353.0","76256","","","","","","triplet","1539.1000001430511","","","","0","stimuli/face_lowercase.png","stimuli/tree_lowercase.png","stimuli/tree_uppercase.png","343"
"html-button-response-mod","354","587452","0.0-354.0","76256","","","","","","triplet","871.7000000476837","","","","0","stimuli/stim010_animate_face_2.png","stimuli/tree_uppercase.png","stimuli/boats_uppercase.png","344"
"html-button-response-mod","355","588767","0.0-355.0","76256","","","","","","triplet","811.4000000953674","","","","1","stimuli/stim009_animate_face_1.png","stimuli/stim021_inanimate_tools_1.png","stimuli/stim003_animate_fish_3.png","345"
"html-button-response-mod","356","590227","0.0-356.0","76256","","","","","","triplet","955.7000000476837","","","","1","stimuli/face_uppercase.png","stimuli/stim021_inanimate_tools_1.png","stimuli/stim012_animate_face_4.png","346"
"html-button-response-mod","357","591540","0.0-357.0","76256","","","","","","triplet","808.5","","","","1","stimuli/face_uppercase.png","stimuli/stim006_animate_bird_2.png","stimuli/boats_lowercase.png","347"
"html-button-response-mod","358","593838","0.0-358.0","76256","","","","","","triplet","1794.1999998092651","","","","2","stimuli/stim014_inanimate_boats_2.png","stimuli/fish_uppercase.png","stimuli/stim019_inanimate_tree_3.png","348"
"html-button-response-mod","359","595347","0.0-359.0","76256","","","","","","triplet","1003.1999998092651","","","","1","stimuli/boats_uppercase.png","stimuli/stim012_animate_face_4.png","stimuli/boats_lowercase.png","349"
"html-button-response","360","596726","0.0-360.0","76256","","","","","","break","874","<p>BREAK</p><p>Take a break for as long as you need</p><p>Click the button to continue</p>","0","","","","","",""
"html-button-response-mod","361","597942","0.0-361.0","76256","","","","","","triplet","1213.2999999523163","","","","0","stimuli/stim006_animate_bird_2.png","stimuli/face_uppercase.png","stimuli/stim012_animate_face_4.png","350"
"html-button-response-mod","362","599611","0.0-362.0","76256","","","","","","triplet","1162.5","","","","0","stimuli/boats_uppercase.png","stimuli/stim012_animate_face_4.png","stimuli/stim023_inanimate_tools_3.png","351"
"html-button-response-mod","363","601133","0.0-363.0","76256","","","","","","triplet","1015.9000000953674","","","","1","stimuli/stim015_inanimate_boats_3.png","stimuli/stim001_animate_fish_1.png","stimuli/stim020_inanimate_tree_4.png","352"
"html-button-response-mod","364","602423","0.0-364.0","76256","","","","","","triplet","785.9000000953674","","","","1","stimuli/stim021_inanimate_tools_1.png","stimuli/stim006_animate_bird_2.png","stimuli/stim023_inanimate_tools_3.png","353"
"html-button-response-mod","365","603785","0.0-365.0","76256","","","","","","triplet","856.2999999523163","","","","2","stimuli/stim001_animate_fish_1.png","stimuli/stim004_animate_fish_4.png","stimuli/bird_uppercase.png","354"
"html-button-response-mod","366","604980","0.0-366.0","76256","","","","","","triplet","690.4000000953674","","","","2","stimuli/stim021_inanimate_tools_1.png","stimuli/stim010_animate_face_2.png","stimuli/bird_uppercase.png","355"
"html-button-response-mod","367","606189","0.0-367.0","76256","","","","","","triplet","701.9000000953674","","","","2","stimuli/boats_lowercase.png","stimuli/tree_uppercase.png","stimuli/stim001_animate_fish_1.png","356"
"html-button-response-mod","368","607312","0.0-368.0","76256","","","","","","triplet","616.1000001430511","","","","0","stimuli/face_lowercase.png","stimuli/stim009_animate_face_1.png","stimuli/stim015_inanimate_boats_3.png","357"
"html-button-response-mod","369","608762","0.0-369.0","76256","","","","","","triplet","943.2000000476837","","","","0","stimuli/stim012_animate_face_4.png","stimuli/bird_lowercase.png","stimuli/stim006_animate_bird_2.png","358"
"html-button-response-mod","370","610373","0.0-370.0","76256","","","","","","triplet","1105.0999999046326","","","","0","stimuli/tools_uppercase.png","stimuli/stim006_animate_bird_2.png","stimuli/stim018_inanimate_tree_2.png","359"
"html-button-response-mod","371","611743","0.0-371.0","76256","","","","","","triplet","863.7999999523163","","","","2","stimuli/stim004_animate_fish_4.png","stimuli/stim002_animate_fish_2.png","stimuli/boats_lowercase.png","360"
"html-button-response-mod","372","613058","0.0-372.0","76256","","","","","","triplet","809.2000000476837","","","","0","stimuli/bird_uppercase.png","stimuli/stim018_inanimate_tree_2.png","stimuli/stim011_animate_face_3.png","361"
"html-button-response-mod","373","614420","0.0-373.0","76256","","","","","","triplet","854.5","","","","2","stimuli/stim010_animate_face_2.png","stimuli/stim017_inanimate_tree_1.png","stimuli/tools_lowercase.png","362"
"html-button-response-mod","374","615678","0.0-374.0","76256","","","","","","triplet","752.5","","","","0","stimuli/stim001_animate_fish_1.png","stimuli/stim017_inanimate_tree_1.png","stimuli/stim020_inanimate_tree_4.png","363"
"html-button-response-mod","375","617096","0.0-375.0","76256","","","","","","triplet","912.2000000476837","","","","2","stimuli/stim007_animate_bird_3.png","stimuli/stim005_animate_bird_1.png","stimuli/stim015_inanimate_boats_3.png","364"
"html-button-response-mod","376","618427","0.0-376.0","76256","","","","","","triplet","822.5","","","","0","stimuli/stim015_inanimate_boats_3.png","stimuli/fish_lowercase.png","stimuli/bird_uppercase.png","365"
"html-button-response-mod","377","620182","0.0-377.0","76256","","","","","","triplet","1247.2999999523163","","","","1","stimuli/stim004_animate_fish_4.png","stimuli/stim005_animate_bird_1.png","stimuli/stim003_animate_fish_3.png","366"
"html-button-response-mod","378","621513","0.0-378.0","76256","","","","","","triplet","824.4000000953674","","","","2","stimuli/stim020_inanimate_tree_4.png","stimuli/stim018_inanimate_tree_2.png","stimuli/stim010_animate_face_2.png","367"
"html-button-response-mod","379","622755","0.0-379.0","76256","","","","","","triplet","736.5999999046326","","","","0","stimuli/stim005_animate_bird_1.png","stimuli/tools_lowercase.png","stimuli/face_lowercase.png","368"
"html-button-response-mod","380","624678","0.0-380.0","76256","","","","","","triplet","1416.3000001907349","","","","2","stimuli/bird_uppercase.png","stimuli/stim005_animate_bird_1.png","stimuli/stim001_animate_fish_1.png","369"
"html-button-response-mod","381","626489","0.0-381.0","76256","","","","","","triplet","1304.9000000953674","","","","0","stimuli/stim002_animate_fish_2.png","stimuli/face_lowercase.png","stimuli/boats_lowercase.png","370"
"html-button-response-mod","382","628677","0.0-382.0","76256","","","","","","triplet","1680.8000001907349","","","","2","stimuli/stim003_animate_fish_3.png","stimuli/stim024_inanimate_tools_4.png","stimuli/bird_lowercase.png","371"
"html-button-response-mod","383","630239","0.0-383.0","76256","","","","","","triplet","1056.9000000953674","","","","1","stimuli/stim020_inanimate_tree_4.png","stimuli/stim013_inanimate_boats_1.png","stimuli/tree_uppercase.png","372"
"html-button-response-mod","384","631985","0.0-384.0","76256","","","","","","triplet","1242.5","","","","2","stimuli/bird_lowercase.png","stimuli/bird_uppercase.png","stimuli/tools_uppercase.png","373"
"html-button-response-mod","385","633499","0.0-385.0","76256","","","","","","triplet","1010.3999998569489","","","","0","stimuli/stim010_animate_face_2.png","stimuli/bird_lowercase.png","stimuli/stim023_inanimate_tools_3.png","374"
"html-button-response-mod","386","636826","0.0-386.0","76256","","","","","","triplet","2822.7000000476837","","","","1","stimuli/stim017_inanimate_tree_1.png","stimuli/face_uppercase.png","stimuli/stim008_animate_bird_4.png","375"
"html-button-response-mod","387","638414","0.0-387.0","76256","","","","","","triplet","1083.6000001430511","","","","0","stimuli/stim004_animate_fish_4.png","stimuli/stim010_animate_face_2.png","stimuli/face_lowercase.png","376"
"html-button-response-mod","388","640135","0.0-388.0","76256","","","","","","triplet","1215.5999999046326","","","","2","stimuli/stim006_animate_bird_2.png","stimuli/stim004_animate_fish_4.png","stimuli/boats_lowercase.png","377"
"html-button-response-mod","389","641833","0.0-389.0","76256","","","","","","triplet","1194.9000000953674","","","","2","stimuli/boats_uppercase.png","stimuli/stim016_inanimate_boats_4.png","stimuli/tree_uppercase.png","378"
"html-button-response-mod","390","645274","0.0-390.0","76256","","","","","","triplet","2936","","","","1","stimuli/stim017_inanimate_tree_1.png","stimuli/fish_lowercase.png","stimuli/stim014_inanimate_boats_2.png","379"
"html-button-response-mod","391","647949","0.0-391.0","76256","","","","","","triplet","2171.0999999046326","","","","1","stimuli/stim015_inanimate_boats_3.png","stimuli/stim002_animate_fish_2.png","stimuli/boats_uppercase.png","380"
"html-button-response-mod","392","650002","0.0-392.0","76256","","","","","","triplet","1547.2000000476837","","","","0","stimuli/stim021_inanimate_tools_1.png","stimuli/bird_uppercase.png","stimuli/fish_lowercase.png","381"
"html-button-response-mod","393","651589","0.0-393.0","76256","","","","","","triplet","1082.1000001430511","","","","0","stimuli/stim010_animate_face_2.png","stimuli/fish_lowercase.png","stimuli/stim013_inanimate_boats_1.png","382"
"html-button-response-mod","394","652959","0.0-394.0","76256","","","","","","triplet","863.7999999523163","","","","0","stimuli/tools_uppercase.png","stimuli/stim007_animate_bird_3.png","stimuli/stim016_inanimate_boats_4.png","383"
"html-button-response-mod","395","655736","0.0-395.0","76256","","","","","","triplet","2272.4000000953674","","","","0","stimuli/stim017_inanimate_tree_1.png","stimuli/stim002_animate_fish_2.png","stimuli/fish_uppercase.png","384"
"html-button-response-mod","396","657350","0.0-396.0","76256","","","","","","triplet","1109.2999999523163","","","","1","stimuli/tree_lowercase.png","stimuli/stim012_animate_face_4.png","stimuli/fish_lowercase.png","385"
"html-button-response-mod","397","658623","0.0-397.0","76256","","","","","","triplet","768.2000000476837","","","","1","stimuli/fish_uppercase.png","stimuli/stim022_inanimate_tools_2.png","stimuli/tree_uppercase.png","386"
"html-button-response-mod","398","660427","0.0-398.0","76256","","","","","","triplet","1297.2999999523163","","","","0","stimuli/tools_lowercase.png","stimuli/stim016_inanimate_boats_4.png","stimuli/stim010_animate_face_2.png","387"
"html-button-response-mod","399","662158","0.0-399.0","76256","","","","","","triplet","1223.3000001907349","","","","1","stimuli/tree_lowercase.png","stimuli/face_lowercase.png","stimuli/stim017_inanimate_tree_1.png","388"
"html-button-response-mod","400","663705","0.0-400.0","76256","","","","","","triplet","1039.1000001430511","","","","2","stimuli/stim002_animate_fish_2.png","stimuli/fish_lowercase.png","stimuli/stim009_animate_face_1.png","389"
"html-button-response-mod","401","665750","0.0-401.0","76256","","","","","","triplet","1538.3999998569489","","","","1","stimuli/face_uppercase.png","stimuli/stim008_animate_bird_4.png","stimuli/fish_lowercase.png","390"
"html-button-response-mod","402","667432","0.0-402.0","76256","","","","","","triplet","1176.2999999523163","","","","0","stimuli/stim016_inanimate_boats_4.png","stimuli/tree_lowercase.png","stimuli/bird_lowercase.png","391"
"html-button-response-mod","403","669275","0.0-403.0","76256","","","","","","triplet","1336.8999998569489","","","","1","stimuli/stim023_inanimate_tools_3.png","stimuli/stim017_inanimate_tree_1.png","stimuli/stim007_animate_bird_3.png","392"
"html-button-response-mod","404","670717","0.0-404.0","76256","","","","","","triplet","935.2000000476837","","","","2","stimuli/stim010_animate_face_2.png","stimuli/stim019_inanimate_tree_3.png","stimuli/tree_lowercase.png","393"
"html-button-response-mod","405","672329","0.0-405.0","76256","","","","","","triplet","1105.2999999523163","","","","0","stimuli/stim022_inanimate_tools_2.png","stimuli/fish_lowercase.png","stimuli/stim009_animate_face_1.png","394"
"html-button-response-mod","406","675253","0.0-406.0","76256","","","","","","triplet","2416.9000000953674","","","","0","stimuli/tree_lowercase.png","stimuli/stim007_animate_bird_3.png","stimuli/stim021_inanimate_tools_1.png","395"
"html-button-response-mod","407","677136","0.0-407.0","76256","","","","","","triplet","1380.0999999046326","","","","1","stimuli/stim016_inanimate_boats_4.png","stimuli/stim009_animate_face_1.png","stimuli/stim023_inanimate_tools_3.png","396"
"html-button-response-mod","408","679067","0.0-408.0","76256","","","","","","triplet","1426.7999999523163","","","","2","stimuli/stim013_inanimate_boats_1.png","stimuli/stim008_animate_bird_4.png","stimuli/face_lowercase.png","397"
"html-button-response-mod","409","680805","0.0-409.0","76256","","","","","","triplet","1234.9000000953674","","","","0","stimuli/stim007_animate_bird_3.png","stimuli/boats_uppercase.png","stimuli/face_uppercase.png","398"
"html-button-response-mod","410","682304","0.0-410.0","76256","","","","","","triplet","993.3999998569489","","","","0","stimuli/boats_uppercase.png","stimuli/stim004_animate_fish_4.png","stimuli/stim008_animate_bird_4.png","399"
"html-button-response","411","684148","0.0-411.0","76256","","","","","","break","1339.2999999523163","<p>BREAK</p><p>Take a break for as long as you need</p><p>Click the button to continue</p>","0","","","","","",""
"survey-text","412","798411","0.0-412.0","76256","","","","","","data_patterns","114234.79999995232","","{""Q0"":""Looked at size and other similarities, related words to images. ""}","","","","","",""
"survey-text","413","800814","0.0-413.0","76256","","","","","","age_question","2401.899999856949","","{""Age"":""20""}","","","","","",""
"html-button-response","414","803454","0.0-414.0","76256","","","","","","gender_question","2636.5","How would you like your gender to be recorded?","0","","","","","",""
"html-button-response","415","804703","0.0-415.0","76256","","","","","","debrief","1244.5999999046326","<p> Thank you for participating in this experiment! </p><p> We are investigating the dimensions along which you perceive the world </p><p>The images were all sorted according to whether they are animate or not, and </p><p> whether they are text or images. We are comparing this to some neuroimaging data to see </p> how your conscious classification relates to how your brain classifies the objects automatically. </p>","0","808835.5999999046","","","","",""
