"trial_type","trial_index","time_elapsed","internal_node_id","subject","success","timeout","failed_images","failed_audio","failed_video","test_part","rt","stimulus","response","end_time","button_pressed","stim0","stim1","stim2","trialnr"
"pavlovia","0","7","0.0-0.0","74229","","","","","","","","","","","","","","",""
"preload","1","2517","0.0-1.0","74229","true","false","[]","[]","[]","preload","","","","","","","","",""
"html-button-response","2","19255","0.0-2.0","74229","","","","","","","16734.20000000298","<p>Welcome to the experiment. To begin, please read the following and press the button at the bottom of the screen.</p><p></p><p><strong>Project Name: A study on cognitive processes involved in visual perception</p></strong><p></p><p><strong>PARTICIPANT INFORMATION STATEMENT</strong></p><p></p><strong>(1) What is the study about?</strong><br>You are invited to participate in a study that investigates the cognitive processes involved in perceiving and recognizing visual stimuli.If you decide to participate, you will be asked to complete a task in which you will view pictures, letters, numbers, or words presented on a computer screen.<br><strong>(2) Who can participate?</strong><br>Anyone aged 18 years or over with access to a computer (not a phone/tablet)<br><strong>(3) Where is the study located?</strong><br>The study will be conducted in your browser<br><strong>(4) Who is carrying out the study?</strong><br>The study is being conducted by Sophia Shatek from the Computational Cognitive Neuroscience laboratory at the University of Sydney.<br><strong>(5) What does the study involve?</strong><br>In this study, you will be asked to perform tasks where you will see different stimuli appear on the computer screen.You will respond by pressing a key or using a computer mouse.<br><strong>(6) How much time will the study take?</strong><br>The study takes about 30 minutes<br><strong>(7)	Can I withdraw from the study?</strong><br>Being in this study is completely voluntary - you are not under any obligation to consent. You can withdraw at any time without having to give a reason and without penalty.<br><strong>(8) Will anyone else know the results?</strong><br>All aspects of the study, including results, will be strictly confidential and only the researchers will have access to information on participants.The results and data from the study may be submitted for publication or shared with other research labs, but individual participants will not be identifiable.<br><strong>(9) Will the study benefit me?</strong><br>You will be awarded 0.5 credits for your participation.<br><strong>(10) Can I tell other people about the study?</strong><br>Yes, please tell them to contact Dr Thomas Carlson by email at thomas.carlson@sydney.edu.au.<br><strong>(11) What if I require further information about the study or my involvement in it?</strong><br>When you have read this information, the investigator will discuss it with you further and answer any questions you may have.If you would like to know more at any stage, please feel free to contact Dr Thomas Carlson directly by email at thomas.carlson@sydney.edu.au.If you would like to be informed about the outcomes of the study, contact Dr Thomas Carlson directly by email at thomas.carlson@sydney.edu.au.<br><strong>(12) What if I have a complaint or any concerns?</strong><br>Any person with concerns or complaints about the conduct of a research study can contact The Manager,Human Ethics Administration, University of Sydney on +61 2 8627 8176 (Telephone); +61 2 8627 8177 (Facsimile) or ro.humanethics@sydney.edu.au (Email).</p><p></p><strong>By participating in this experiment, you consent to participate in this study and acknowledge that:</strong><br>1. The procedures required for the project and the times involved have been explained to me, and any questions I have about the project have been answered to my satisfaction.<br>2.	I have read the Above Information Statement and have been given the opportunity to discuss the information and my involvement in the project with the researcher/s.<br>3. I understand that allowing my data to be used in research reports is completely voluntary - I am not under any obligation to consent.<br>4. I understand that my involvement is strictly confidential. I understand that any research data gathered from the results of the study may be publishedhowever no information about me will be used in any way that is identifiable.</p><p></p>","0","","","","","",""
"html-button-response","3","55458","0.0-3.0","74229","","","","","","opening_instructions","36201","<p>In this experiment, you will see three images appear on the screen.</p><p>You need to click the 'odd one out', or the image </p><p>that is MOST CONCEPTUALLY DIFFERENT to the other two. </p><p>(e.g., the word 'tree' and a picture of a tree are conceptually SIMILAR, </p><p> but the word 'tree' and the word 'boat' are conceptually DIFFERENT even though they look similar) </p><p>Just go with your intuition, don't spend too long thinking about each one.</p>","0","60041.70000000298","","","","",""
"html-button-response-mod","4","58034","0.0-4.0","74229","","","","","","triplet","2573.0999999940395","","","","0","stimuli/stim008_animate_bird_4.png","stimuli/tools_uppercase.png","stimuli/boats_uppercase.png","0"
"html-button-response-mod","5","63688","0.0-5.0","74229","","","","","","triplet","5148.100000008941","","","","1","stimuli/face_lowercase.png","stimuli/stim002_animate_fish_2.png","stimuli/tools_uppercase.png","1"
"html-button-response-mod","6","69980","0.0-6.0","74229","","","","","","triplet","5786.5","","","","2","stimuli/stim016_inanimate_boats_4.png","stimuli/stim012_animate_face_4.png","stimuli/bird_uppercase.png","2"
"html-button-response-mod","7","72378","0.0-7.0","74229","","","","","","triplet","1890.2000000029802","","","","1","stimuli/face_uppercase.png","stimuli/bird_lowercase.png","stimuli/stim012_animate_face_4.png","3"
"html-button-response-mod","8","74841","0.0-8.0","74229","","","","","","triplet","1958.7999999970198","","","","0","stimuli/stim022_inanimate_tools_2.png","stimuli/stim002_animate_fish_2.png","stimuli/stim001_animate_fish_1.png","4"
"html-button-response-mod","9","79454","0.0-9.0","74229","","","","","","triplet","4107.300000011921","","","","1","stimuli/face_uppercase.png","stimuli/stim019_inanimate_tree_3.png","stimuli/tools_lowercase.png","5"
"html-button-response-mod","10","81932","0.0-10.0","74229","","","","","","triplet","1970.7999999970198","","","","0","stimuli/stim020_inanimate_tree_4.png","stimuli/face_uppercase.png","stimuli/face_lowercase.png","6"
"html-button-response-mod","11","84162","0.0-11.0","74229","","","","","","triplet","1724","","","","2","stimuli/face_lowercase.png","stimuli/stim012_animate_face_4.png","stimuli/bird_uppercase.png","7"
"html-button-response-mod","12","85874","0.0-12.0","74229","","","","","","triplet","1206.4000000059605","","","","0","stimuli/stim021_inanimate_tools_1.png","stimuli/stim019_inanimate_tree_3.png","stimuli/stim017_inanimate_tree_1.png","8"
"html-button-response-mod","13","88402","0.0-13.0","74229","","","","","","triplet","2022.6000000089407","","","","0","stimuli/stim013_inanimate_boats_1.png","stimuli/stim009_animate_face_1.png","stimuli/face_lowercase.png","9"
"html-button-response-mod","14","93022","0.0-14.0","74229","","","","","","triplet","4116.20000000298","","","","2","stimuli/stim011_animate_face_3.png","stimuli/stim014_inanimate_boats_2.png","stimuli/tree_uppercase.png","10"
"html-button-response-mod","15","95107","0.0-15.0","74229","","","","","","triplet","1576.5999999940395","","","","1","stimuli/tools_lowercase.png","stimuli/face_uppercase.png","stimuli/tools_uppercase.png","11"
"html-button-response-mod","16","98483","0.0-16.0","74229","","","","","","triplet","2870","","","","2","stimuli/stim018_inanimate_tree_2.png","stimuli/stim005_animate_bird_1.png","stimuli/stim009_animate_face_1.png","12"
"html-button-response-mod","17","100422","0.0-17.0","74229","","","","","","triplet","1431.2000000029802","","","","1","stimuli/stim018_inanimate_tree_2.png","stimuli/stim012_animate_face_4.png","stimuli/bird_uppercase.png","13"
"html-button-response-mod","18","102368","0.0-18.0","74229","","","","","","triplet","1438.2000000029802","","","","1","stimuli/fish_lowercase.png","stimuli/stim023_inanimate_tools_3.png","stimuli/stim015_inanimate_boats_3.png","14"
"html-button-response-mod","19","112061","0.0-19.0","74229","","","","","","triplet","9189.60000000894","","","","1","stimuli/stim003_animate_fish_3.png","stimuli/stim009_animate_face_1.png","stimuli/bird_lowercase.png","15"
"html-button-response-mod","20","116083","0.0-20.0","74229","","","","","","triplet","3512.9000000059605","","","","1","stimuli/stim024_inanimate_tools_4.png","stimuli/stim007_animate_bird_3.png","stimuli/boats_uppercase.png","16"
"html-button-response-mod","21","118240","0.0-21.0","74229","","","","","","triplet","1652.199999988079","","","","1","stimuli/tree_lowercase.png","stimuli/stim021_inanimate_tools_1.png","stimuli/bird_uppercase.png","17"
"html-button-response-mod","22","120534","0.0-22.0","74229","","","","","","triplet","1790","","","","2","stimuli/stim015_inanimate_boats_3.png","stimuli/stim004_animate_fish_4.png","stimuli/stim010_animate_face_2.png","18"
"html-button-response-mod","23","122448","0.0-23.0","74229","","","","","","triplet","1410.2000000029802","","","","2","stimuli/face_lowercase.png","stimuli/stim011_animate_face_3.png","stimuli/tree_uppercase.png","19"
"html-button-response-mod","24","126495","0.0-24.0","74229","","","","","","triplet","3540.9000000059605","","","","0","stimuli/tools_lowercase.png","stimuli/stim022_inanimate_tools_2.png","stimuli/stim021_inanimate_tools_1.png","20"
"html-button-response-mod","25","129969","0.0-25.0","74229","","","","","","triplet","2969.9000000059605","","","","0","stimuli/stim003_animate_fish_3.png","stimuli/fish_uppercase.png","stimuli/fish_lowercase.png","21"
"html-button-response-mod","26","132222","0.0-26.0","74229","","","","","","triplet","1748.5999999940395","","","","2","stimuli/stim023_inanimate_tools_3.png","stimuli/tools_uppercase.png","stimuli/tree_lowercase.png","22"
"html-button-response-mod","27","134315","0.0-27.0","74229","","","","","","triplet","1586.4000000059605","","","","2","stimuli/stim003_animate_fish_3.png","stimuli/stim014_inanimate_boats_2.png","stimuli/stim023_inanimate_tools_3.png","23"
"html-button-response-mod","28","136769","0.0-28.0","74229","","","","","","triplet","1949.4000000059605","","","","1","stimuli/stim002_animate_fish_2.png","stimuli/stim011_animate_face_3.png","stimuli/boats_uppercase.png","24"
"html-button-response-mod","29","141002","0.0-29.0","74229","","","","","","triplet","3727.6000000089407","","","","2","stimuli/stim013_inanimate_boats_1.png","stimuli/stim004_animate_fish_4.png","stimuli/stim008_animate_bird_4.png","25"
"html-button-response-mod","30","144428","0.0-30.0","74229","","","","","","triplet","2917","","","","2","stimuli/stim008_animate_bird_4.png","stimuli/stim017_inanimate_tree_1.png","stimuli/tree_uppercase.png","26"
"html-button-response-mod","31","148224","0.0-31.0","74229","","","","","","triplet","3293.2999999970198","","","","0","stimuli/tree_uppercase.png","stimuli/stim022_inanimate_tools_2.png","stimuli/boats_lowercase.png","27"
"html-button-response-mod","32","152375","0.0-32.0","74229","","","","","","triplet","3646.0999999940395","","","","2","stimuli/stim014_inanimate_boats_2.png","stimuli/tools_lowercase.png","stimuli/stim020_inanimate_tree_4.png","28"
"html-button-response-mod","33","154297","0.0-33.0","74229","","","","","","triplet","1415.2999999970198","","","","0","stimuli/stim011_animate_face_3.png","stimuli/stim004_animate_fish_4.png","stimuli/stim002_animate_fish_2.png","29"
"html-button-response-mod","34","156616","0.0-34.0","74229","","","","","","triplet","1809.7999999970198","","","","1","stimuli/boats_lowercase.png","stimuli/face_lowercase.png","stimuli/stim013_inanimate_boats_1.png","30"
"html-button-response-mod","35","159016","0.0-35.0","74229","","","","","","triplet","1894.6000000089407","","","","1","stimuli/stim024_inanimate_tools_4.png","stimuli/face_lowercase.png","stimuli/stim008_animate_bird_4.png","31"
"html-button-response-mod","36","160631","0.0-36.0","74229","","","","","","triplet","1109.9000000059605","","","","2","stimuli/stim020_inanimate_tree_4.png","stimuli/stim018_inanimate_tree_2.png","stimuli/stim014_inanimate_boats_2.png","32"
"html-button-response-mod","37","162941","0.0-37.0","74229","","","","","","triplet","1805.0999999940395","","","","1","stimuli/stim018_inanimate_tree_2.png","stimuli/boats_uppercase.png","stimuli/bird_uppercase.png","33"
"html-button-response-mod","38","165098","0.0-38.0","74229","","","","","","triplet","1652.7999999970198","","","","0","stimuli/stim012_animate_face_4.png","stimuli/stim013_inanimate_boats_1.png","stimuli/stim004_animate_fish_4.png","34"
"html-button-response-mod","39","166826","0.0-39.0","74229","","","","","","triplet","1222.2999999970198","","","","1","stimuli/stim005_animate_bird_1.png","stimuli/stim014_inanimate_boats_2.png","stimuli/stim001_animate_fish_1.png","35"
"html-button-response-mod","40","172940","0.0-40.0","74229","","","","","","triplet","5609.70000000298","","","","1","stimuli/stim022_inanimate_tools_2.png","stimuli/stim007_animate_bird_3.png","stimuli/stim014_inanimate_boats_2.png","36"
"html-button-response-mod","41","174840","0.0-41.0","74229","","","","","","triplet","1393.6000000089407","","","","2","stimuli/stim007_animate_bird_3.png","stimuli/bird_uppercase.png","stimuli/stim011_animate_face_3.png","37"
"html-button-response-mod","42","176891","0.0-42.0","74229","","","","","","triplet","1546.3999999910593","","","","1","stimuli/stim008_animate_bird_4.png","stimuli/stim024_inanimate_tools_4.png","stimuli/stim004_animate_fish_4.png","38"
"html-button-response-mod","43","178974","0.0-43.0","74229","","","","","","triplet","1578.0999999940395","","","","0","stimuli/stim023_inanimate_tools_3.png","stimuli/stim010_animate_face_2.png","stimuli/stim012_animate_face_4.png","39"
"html-button-response-mod","44","181245","0.0-44.0","74229","","","","","","triplet","1763.5","","","","1","stimuli/tools_lowercase.png","stimuli/stim015_inanimate_boats_3.png","stimuli/stim022_inanimate_tools_2.png","40"
"html-button-response-mod","45","183765","0.0-45.0","74229","","","","","","triplet","2015.2000000029802","","","","0","stimuli/stim007_animate_bird_3.png","stimuli/stim013_inanimate_boats_1.png","stimuli/stim002_animate_fish_2.png","41"
"html-button-response-mod","46","186866","0.0-46.0","74229","","","","","","triplet","2596.5","","","","0","stimuli/stim023_inanimate_tools_3.png","stimuli/fish_lowercase.png","stimuli/boats_uppercase.png","42"
"html-button-response-mod","47","190122","0.0-47.0","74229","","","","","","triplet","2747.2000000029802","","","","0","stimuli/stim011_animate_face_3.png","stimuli/bird_uppercase.png","stimuli/boats_lowercase.png","43"
"html-button-response-mod","48","192675","0.0-48.0","74229","","","","","","triplet","2048","","","","1","stimuli/stim005_animate_bird_1.png","stimuli/stim020_inanimate_tree_4.png","stimuli/stim007_animate_bird_3.png","44"
"html-button-response-mod","49","196091","0.0-49.0","74229","","","","","","triplet","2912.5","","","","0","stimuli/stim010_animate_face_2.png","stimuli/tree_uppercase.png","stimuli/bird_lowercase.png","45"
"html-button-response-mod","50","200114","0.0-50.0","74229","","","","","","triplet","3518.5","","","","0","stimuli/stim012_animate_face_4.png","stimuli/stim020_inanimate_tree_4.png","stimuli/stim001_animate_fish_1.png","46"
"html-button-response-mod","51","203031","0.0-51.0","74229","","","","","","triplet","2406.6000000089407","","","","1","stimuli/stim024_inanimate_tools_4.png","stimuli/stim011_animate_face_3.png","stimuli/stim001_animate_fish_1.png","47"
"html-button-response-mod","52","206099","0.0-52.0","74229","","","","","","triplet","2562","","","","2","stimuli/bird_uppercase.png","stimuli/stim015_inanimate_boats_3.png","stimuli/face_lowercase.png","48"
"html-button-response-mod","53","209047","0.0-53.0","74229","","","","","","triplet","2438.0999999940395","","","","2","stimuli/stim019_inanimate_tree_3.png","stimuli/stim014_inanimate_boats_2.png","stimuli/stim011_animate_face_3.png","49"
"html-button-response","54","212602","0.0-54.0","74229","","","","","","break","3046.2000000029802","<p>BREAK</p><p>Take a break for as long as you need</p><p>Click the button to continue</p>","0","","","","","",""
"html-button-response-mod","55","214443","0.0-55.0","74229","","","","","","triplet","1838.2000000029802","","","","0","stimuli/stim013_inanimate_boats_1.png","stimuli/stim006_animate_bird_2.png","stimuli/stim017_inanimate_tree_1.png","50"
"html-button-response-mod","56","216470","0.0-56.0","74229","","","","","","triplet","1523","","","","1","stimuli/stim019_inanimate_tree_3.png","stimuli/stim015_inanimate_boats_3.png","stimuli/stim008_animate_bird_4.png","51"
"html-button-response-mod","57","218522","0.0-57.0","74229","","","","","","triplet","1547.5","","","","1","stimuli/stim008_animate_bird_4.png","stimuli/bird_lowercase.png","stimuli/stim020_inanimate_tree_4.png","52"
"html-button-response-mod","58","221228","0.0-58.0","74229","","","","","","triplet","2196.8999999910593","","","","2","stimuli/stim004_animate_fish_4.png","stimuli/stim018_inanimate_tree_2.png","stimuli/face_lowercase.png","53"
"html-button-response-mod","59","222788","0.0-59.0","74229","","","","","","triplet","1051.4000000059605","","","","1","stimuli/stim001_animate_fish_1.png","stimuli/bird_uppercase.png","stimuli/stim004_animate_fish_4.png","54"
"html-button-response-mod","60","224476","0.0-60.0","74229","","","","","","triplet","1183.5999999940395","","","","2","stimuli/stim022_inanimate_tools_2.png","stimuli/stim024_inanimate_tools_4.png","stimuli/stim012_animate_face_4.png","55"
"html-button-response-mod","61","226204","0.0-61.0","74229","","","","","","triplet","1217.5","","","","1","stimuli/stim002_animate_fish_2.png","stimuli/stim010_animate_face_2.png","stimuli/fish_uppercase.png","56"
"html-button-response-mod","62","228102","0.0-62.0","74229","","","","","","triplet","1387.9000000059605","","","","2","stimuli/stim001_animate_fish_1.png","stimuli/bird_uppercase.png","stimuli/stim014_inanimate_boats_2.png","57"
"html-button-response-mod","63","230744","0.0-63.0","74229","","","","","","triplet","2132.2999999970198","","","","1","stimuli/stim019_inanimate_tree_3.png","stimuli/face_lowercase.png","stimuli/stim004_animate_fish_4.png","58"
"html-button-response-mod","64","232504","0.0-64.0","74229","","","","","","triplet","1251.7999999970198","","","","2","stimuli/stim001_animate_fish_1.png","stimuli/stim016_inanimate_boats_4.png","stimuli/face_uppercase.png","59"
"html-button-response-mod","65","234169","0.0-65.0","74229","","","","","","triplet","1156.5","","","","2","stimuli/stim024_inanimate_tools_4.png","stimuli/stim022_inanimate_tools_2.png","stimuli/stim008_animate_bird_4.png","60"
"html-button-response-mod","66","236671","0.0-66.0","74229","","","","","","triplet","1992.9000000059605","","","","1","stimuli/stim024_inanimate_tools_4.png","stimuli/stim009_animate_face_1.png","stimuli/stim014_inanimate_boats_2.png","61"
"html-button-response-mod","67","241478","0.0-67.0","74229","","","","","","triplet","4297.70000000298","","","","2","stimuli/stim003_animate_fish_3.png","stimuli/stim009_animate_face_1.png","stimuli/tools_lowercase.png","62"
"html-button-response-mod","68","243724","0.0-68.0","74229","","","","","","triplet","1735.7000000029802","","","","2","stimuli/stim020_inanimate_tree_4.png","stimuli/stim008_animate_bird_4.png","stimuli/stim001_animate_fish_1.png","63"
"html-button-response-mod","69","246163","0.0-69.0","74229","","","","","","triplet","1929.6000000089407","","","","0","stimuli/face_uppercase.png","stimuli/tree_uppercase.png","stimuli/stim008_animate_bird_4.png","64"
"html-button-response-mod","70","248183","0.0-70.0","74229","","","","","","triplet","1511.5","","","","2","stimuli/bird_lowercase.png","stimuli/stim005_animate_bird_1.png","stimuli/stim024_inanimate_tools_4.png","65"
"html-button-response-mod","71","249797","0.0-71.0","74229","","","","","","triplet","1107.2000000029802","","","","2","stimuli/fish_uppercase.png","stimuli/fish_lowercase.png","stimuli/stim009_animate_face_1.png","66"
"html-button-response-mod","72","254685","0.0-72.0","74229","","","","","","triplet","4379.899999991059","","","","0","stimuli/stim017_inanimate_tree_1.png","stimuli/stim021_inanimate_tools_1.png","stimuli/face_lowercase.png","67"
"html-button-response-mod","73","257197","0.0-73.0","74229","","","","","","triplet","2006.4000000059605","","","","0","stimuli/tools_uppercase.png","stimuli/tree_uppercase.png","stimuli/fish_lowercase.png","68"
"html-button-response-mod","74","259208","0.0-74.0","74229","","","","","","triplet","1504.0999999940395","","","","0","stimuli/tree_lowercase.png","stimuli/stim004_animate_fish_4.png","stimuli/stim002_animate_fish_2.png","69"
"html-button-response-mod","75","260695","0.0-75.0","74229","","","","","","triplet","976.7000000029802","","","","1","stimuli/stim024_inanimate_tools_4.png","stimuli/tools_lowercase.png","stimuli/stim013_inanimate_boats_1.png","70"
"html-button-response-mod","76","262819","0.0-76.0","74229","","","","","","triplet","1613.7000000029802","","","","0","stimuli/stim005_animate_bird_1.png","stimuli/stim009_animate_face_1.png","stimuli/face_lowercase.png","71"
"html-button-response-mod","77","264240","0.0-77.0","74229","","","","","","triplet","915.7000000029802","","","","1","stimuli/stim008_animate_bird_4.png","stimuli/boats_lowercase.png","stimuli/stim007_animate_bird_3.png","72"
"html-button-response-mod","78","267625","0.0-78.0","74229","","","","","","triplet","2878.7000000029802","","","","0","stimuli/face_uppercase.png","stimuli/fish_lowercase.png","stimuli/stim014_inanimate_boats_2.png","73"
"html-button-response-mod","79","269159","0.0-79.0","74229","","","","","","triplet","1026.7000000029802","","","","1","stimuli/stim006_animate_bird_2.png","stimuli/stim021_inanimate_tools_1.png","stimuli/stim003_animate_fish_3.png","74"
"html-button-response-mod","80","270848","0.0-80.0","74229","","","","","","triplet","1178.5","","","","2","stimuli/stim021_inanimate_tools_1.png","stimuli/stim022_inanimate_tools_2.png","stimuli/fish_uppercase.png","75"
"html-button-response-mod","81","272510","0.0-81.0","74229","","","","","","triplet","1156.5","","","","1","stimuli/face_uppercase.png","stimuli/stim021_inanimate_tools_1.png","stimuli/stim011_animate_face_3.png","76"
"html-button-response-mod","82","274482","0.0-82.0","74229","","","","","","triplet","1461.9000000059605","","","","0","stimuli/stim013_inanimate_boats_1.png","stimuli/stim006_animate_bird_2.png","stimuli/stim009_animate_face_1.png","77"
"html-button-response-mod","83","277859","0.0-83.0","74229","","","","","","triplet","2872.7999999970198","","","","1","stimuli/stim008_animate_bird_4.png","stimuli/stim019_inanimate_tree_3.png","stimuli/bird_uppercase.png","78"
"html-button-response-mod","84","281792","0.0-84.0","74229","","","","","","triplet","3424","","","","2","stimuli/stim015_inanimate_boats_3.png","stimuli/stim022_inanimate_tools_2.png","stimuli/stim003_animate_fish_3.png","79"
"html-button-response-mod","85","286485","0.0-85.0","74229","","","","","","triplet","4183.800000011921","","","","0","stimuli/stim019_inanimate_tree_3.png","stimuli/stim013_inanimate_boats_1.png","stimuli/fish_lowercase.png","80"
"html-button-response-mod","86","288706","0.0-86.0","74229","","","","","","triplet","1715.2000000029802","","","","0","stimuli/stim023_inanimate_tools_3.png","stimuli/stim011_animate_face_3.png","stimuli/stim004_animate_fish_4.png","81"
"html-button-response-mod","87","290564","0.0-87.0","74229","","","","","","triplet","1353.5999999940395","","","","1","stimuli/stim018_inanimate_tree_2.png","stimuli/face_lowercase.png","stimuli/tree_uppercase.png","82"
"html-button-response-mod","88","292713","0.0-88.0","74229","","","","","","triplet","1639.7999999970198","","","","2","stimuli/stim017_inanimate_tree_1.png","stimuli/stim024_inanimate_tools_4.png","stimuli/fish_uppercase.png","83"
"html-button-response-mod","89","294723","0.0-89.0","74229","","","","","","triplet","1505.7000000029802","","","","0","stimuli/stim001_animate_fish_1.png","stimuli/tree_lowercase.png","stimuli/stim017_inanimate_tree_1.png","84"
"html-button-response-mod","90","296816","0.0-90.0","74229","","","","","","triplet","1585.7999999970198","","","","0","stimuli/bird_lowercase.png","stimuli/stim008_animate_bird_4.png","stimuli/stim006_animate_bird_2.png","85"
"html-button-response-mod","91","298545","0.0-91.0","74229","","","","","","triplet","1219.6000000089407","","","","2","stimuli/tools_uppercase.png","stimuli/stim021_inanimate_tools_1.png","stimuli/tree_lowercase.png","86"
"html-button-response-mod","92","300288","0.0-92.0","74229","","","","","","triplet","1238.199999988079","","","","2","stimuli/stim005_animate_bird_1.png","stimuli/face_uppercase.png","stimuli/stim015_inanimate_boats_3.png","87"
"html-button-response-mod","93","301855","0.0-93.0","74229","","","","","","triplet","1057","","","","2","stimuli/boats_lowercase.png","stimuli/stim015_inanimate_boats_3.png","stimuli/stim011_animate_face_3.png","88"
"html-button-response-mod","94","303786","0.0-94.0","74229","","","","","","triplet","1423.5","","","","2","stimuli/stim010_animate_face_2.png","stimuli/tools_lowercase.png","stimuli/tree_uppercase.png","89"
"html-button-response-mod","95","305749","0.0-95.0","74229","","","","","","triplet","1453.7999999970198","","","","0","stimuli/tree_uppercase.png","stimuli/stim004_animate_fish_4.png","stimuli/stim003_animate_fish_3.png","90"
"html-button-response-mod","96","307574","0.0-96.0","74229","","","","","","triplet","1315.0999999940395","","","","2","stimuli/fish_uppercase.png","stimuli/stim004_animate_fish_4.png","stimuli/stim016_inanimate_boats_4.png","91"
"html-button-response-mod","97","310135","0.0-97.0","74229","","","","","","triplet","2055.2000000029802","","","","2","stimuli/stim015_inanimate_boats_3.png","stimuli/stim020_inanimate_tree_4.png","stimuli/tools_lowercase.png","92"
"html-button-response-mod","98","312631","0.0-98.0","74229","","","","","","triplet","1985.5999999940395","","","","2","stimuli/bird_lowercase.png","stimuli/boats_lowercase.png","stimuli/stim024_inanimate_tools_4.png","93"
"html-button-response-mod","99","314343","0.0-99.0","74229","","","","","","triplet","1204.0999999940395","","","","0","stimuli/stim018_inanimate_tree_2.png","stimuli/stim013_inanimate_boats_1.png","stimuli/stim016_inanimate_boats_4.png","94"
"html-button-response-mod","100","316354","0.0-100.0","74229","","","","","","triplet","1501.0999999940395","","","","2","stimuli/stim024_inanimate_tools_4.png","stimuli/stim003_animate_fish_3.png","stimuli/face_lowercase.png","95"
"html-button-response-mod","101","318761","0.0-101.0","74229","","","","","","triplet","1899.9000000059605","","","","2","stimuli/face_lowercase.png","stimuli/boats_lowercase.png","stimuli/stim006_animate_bird_2.png","96"
"html-button-response-mod","102","320699","0.0-102.0","74229","","","","","","triplet","1428.7000000029802","","","","0","stimuli/stim015_inanimate_boats_3.png","stimuli/stim007_animate_bird_3.png","stimuli/bird_lowercase.png","97"
"html-button-response-mod","103","322799","0.0-103.0","74229","","","","","","triplet","1593.2999999970198","","","","2","stimuli/stim003_animate_fish_3.png","stimuli/stim002_animate_fish_2.png","stimuli/stim008_animate_bird_4.png","98"
"html-button-response-mod","104","324924","0.0-104.0","74229","","","","","","triplet","1616.9000000059605","","","","1","stimuli/stim016_inanimate_boats_4.png","stimuli/stim007_animate_bird_3.png","stimuli/fish_uppercase.png","99"
"html-button-response","105","327461","0.0-105.0","74229","","","","","","break","2028.0999999940395","<p>BREAK</p><p>Take a break for as long as you need</p><p>Click the button to continue</p>","0","","","","","",""
"html-button-response-mod","106","329083","0.0-106.0","74229","","","","","","triplet","1618.7000000029802","","","","0","stimuli/fish_uppercase.png","stimuli/stim006_animate_bird_2.png","stimuli/stim019_inanimate_tree_3.png","100"
"html-button-response-mod","107","330658","0.0-107.0","74229","","","","","","triplet","1070","","","","2","stimuli/tools_uppercase.png","stimuli/tools_lowercase.png","stimuli/stim017_inanimate_tree_1.png","101"
"html-button-response-mod","108","335223","0.0-108.0","74229","","","","","","triplet","4058.7999999970198","","","","1","stimuli/stim005_animate_bird_1.png","stimuli/stim004_animate_fish_4.png","stimuli/tree_uppercase.png","102"
"html-button-response-mod","109","337193","0.0-109.0","74229","","","","","","triplet","1463.4000000059605","","","","2","stimuli/stim020_inanimate_tree_4.png","stimuli/stim023_inanimate_tools_3.png","stimuli/stim009_animate_face_1.png","103"
"html-button-response-mod","110","338502","0.0-110.0","74229","","","","","","triplet","798.6000000089407","","","","1","stimuli/stim020_inanimate_tree_4.png","stimuli/bird_lowercase.png","stimuli/stim019_inanimate_tree_3.png","104"
"html-button-response-mod","111","341183","0.0-111.0","74229","","","","","","triplet","2171","","","","1","stimuli/tree_lowercase.png","stimuli/stim004_animate_fish_4.png","stimuli/stim007_animate_bird_3.png","105"
"html-button-response-mod","112","344681","0.0-112.0","74229","","","","","","triplet","2987.7000000029802","","","","1","stimuli/bird_lowercase.png","stimuli/stim001_animate_fish_1.png","stimuli/stim007_animate_bird_3.png","106"
"html-button-response-mod","113","346885","0.0-113.0","74229","","","","","","triplet","1694","","","","0","stimuli/boats_lowercase.png","stimuli/stim006_animate_bird_2.png","stimuli/stim003_animate_fish_3.png","107"
"html-button-response-mod","114","348655","0.0-114.0","74229","","","","","","triplet","1264.300000011921","","","","2","stimuli/bird_lowercase.png","stimuli/stim020_inanimate_tree_4.png","stimuli/stim012_animate_face_4.png","108"
"html-button-response-mod","115","350658","0.0-115.0","74229","","","","","","triplet","1494.5999999940395","","","","2","stimuli/stim014_inanimate_boats_2.png","stimuli/fish_uppercase.png","stimuli/stim012_animate_face_4.png","109"
"html-button-response-mod","116","352515","0.0-116.0","74229","","","","","","triplet","1345.9000000059605","","","","1","stimuli/bird_lowercase.png","stimuli/stim023_inanimate_tools_3.png","stimuli/stim007_animate_bird_3.png","110"
"html-button-response-mod","117","356012","0.0-117.0","74229","","","","","","triplet","2987.2999999970198","","","","2","stimuli/stim023_inanimate_tools_3.png","stimuli/stim018_inanimate_tree_2.png","stimuli/face_lowercase.png","111"
"html-button-response-mod","118","357998","0.0-118.0","74229","","","","","","triplet","1480.5","","","","2","stimuli/stim010_animate_face_2.png","stimuli/stim001_animate_fish_1.png","stimuli/stim024_inanimate_tools_4.png","112"
"html-button-response-mod","119","359702","0.0-119.0","74229","","","","","","triplet","1198.2000000029802","","","","1","stimuli/stim001_animate_fish_1.png","stimuli/stim009_animate_face_1.png","stimuli/fish_lowercase.png","113"
"html-button-response-mod","120","362029","0.0-120.0","74229","","","","","","triplet","1817.5","","","","0","stimuli/face_uppercase.png","stimuli/stim006_animate_bird_2.png","stimuli/stim015_inanimate_boats_3.png","114"
"html-button-response-mod","121","364388","0.0-121.0","74229","","","","","","triplet","1851.7999999970198","","","","1","stimuli/stim016_inanimate_boats_4.png","stimuli/stim020_inanimate_tree_4.png","stimuli/fish_uppercase.png","115"
"html-button-response-mod","122","366892","0.0-122.0","74229","","","","","","triplet","1998.2000000029802","","","","2","stimuli/tree_lowercase.png","stimuli/tree_uppercase.png","stimuli/stim004_animate_fish_4.png","116"
"html-button-response-mod","123","369735","0.0-123.0","74229","","","","","","triplet","2333.5","","","","2","stimuli/face_uppercase.png","stimuli/fish_lowercase.png","stimuli/tools_lowercase.png","117"
"html-button-response-mod","124","372498","0.0-124.0","74229","","","","","","triplet","2253.0999999940395","","","","0","stimuli/face_lowercase.png","stimuli/boats_uppercase.png","stimuli/stim002_animate_fish_2.png","118"
"html-button-response-mod","125","375188","0.0-125.0","74229","","","","","","triplet","2180.5","","","","0","stimuli/stim016_inanimate_boats_4.png","stimuli/stim015_inanimate_boats_3.png","stimuli/stim003_animate_fish_3.png","119"
"html-button-response-mod","126","378441","0.0-126.0","74229","","","","","","triplet","2749.2000000029802","","","","2","stimuli/fish_uppercase.png","stimuli/bird_lowercase.png","stimuli/tools_uppercase.png","120"
"html-button-response-mod","127","381123","0.0-127.0","74229","","","","","","triplet","2176.7000000029802","","","","2","stimuli/bird_lowercase.png","stimuli/tools_lowercase.png","stimuli/stim014_inanimate_boats_2.png","121"
"html-button-response-mod","128","385356","0.0-128.0","74229","","","","","","triplet","3726.0999999940395","","","","1","stimuli/stim021_inanimate_tools_1.png","stimuli/stim008_animate_bird_4.png","stimuli/stim011_animate_face_3.png","122"
"html-button-response-mod","129","388126","0.0-129.0","74229","","","","","","triplet","2260","","","","2","stimuli/tools_lowercase.png","stimuli/stim002_animate_fish_2.png","stimuli/stim010_animate_face_2.png","123"
"html-button-response-mod","130","389717","0.0-130.0","74229","","","","","","triplet","1080.300000011921","","","","2","stimuli/stim024_inanimate_tools_4.png","stimuli/stim023_inanimate_tools_3.png","stimuli/stim004_animate_fish_4.png","124"
"html-button-response-mod","131","391890","0.0-131.0","74229","","","","","","triplet","1666.5","","","","2","stimuli/stim006_animate_bird_2.png","stimuli/stim018_inanimate_tree_2.png","stimuli/fish_uppercase.png","125"
"html-button-response-mod","132","394095","0.0-132.0","74229","","","","","","triplet","1695","","","","1","stimuli/tree_lowercase.png","stimuli/stim002_animate_fish_2.png","stimuli/stim008_animate_bird_4.png","126"
"html-button-response-mod","133","396235","0.0-133.0","74229","","","","","","triplet","1630","","","","2","stimuli/stim018_inanimate_tree_2.png","stimuli/stim005_animate_bird_1.png","stimuli/face_lowercase.png","127"
"html-button-response-mod","134","399515","0.0-134.0","74229","","","","","","triplet","2775.1000000089407","","","","0","stimuli/stim004_animate_fish_4.png","stimuli/bird_uppercase.png","stimuli/stim022_inanimate_tools_2.png","128"
"html-button-response-mod","135","401437","0.0-135.0","74229","","","","","","triplet","1415.800000011921","","","","2","stimuli/tree_lowercase.png","stimuli/stim017_inanimate_tree_1.png","stimuli/stim014_inanimate_boats_2.png","129"
"html-button-response-mod","136","403399","0.0-136.0","74229","","","","","","triplet","1456.5","","","","1","stimuli/bird_uppercase.png","stimuli/tools_lowercase.png","stimuli/stim017_inanimate_tree_1.png","130"
"html-button-response-mod","137","405557","0.0-137.0","74229","","","","","","triplet","1650.7000000029802","","","","1","stimuli/stim004_animate_fish_4.png","stimuli/stim014_inanimate_boats_2.png","stimuli/stim019_inanimate_tree_3.png","131"
"html-button-response-mod","138","407866","0.0-138.0","74229","","","","","","triplet","1801.800000011921","","","","0","stimuli/tree_uppercase.png","stimuli/face_uppercase.png","stimuli/face_lowercase.png","132"
"html-button-response-mod","139","410790","0.0-139.0","74229","","","","","","triplet","2419.300000011921","","","","1","stimuli/stim016_inanimate_boats_4.png","stimuli/tools_lowercase.png","stimuli/bird_lowercase.png","133"
"html-button-response-mod","140","412792","0.0-140.0","74229","","","","","","triplet","1495.5","","","","2","stimuli/bird_lowercase.png","stimuli/stim001_animate_fish_1.png","stimuli/stim014_inanimate_boats_2.png","134"
"html-button-response-mod","141","414441","0.0-141.0","74229","","","","","","triplet","1142.9000000059605","","","","1","stimuli/stim024_inanimate_tools_4.png","stimuli/bird_uppercase.png","stimuli/stim002_animate_fish_2.png","135"
"html-button-response-mod","142","416234","0.0-142.0","74229","","","","","","triplet","1282.800000011921","","","","2","stimuli/boats_lowercase.png","stimuli/stim013_inanimate_boats_1.png","stimuli/face_uppercase.png","136"
"html-button-response-mod","143","417906","0.0-143.0","74229","","","","","","triplet","1166.2999999970198","","","","1","stimuli/stim002_animate_fish_2.png","stimuli/stim013_inanimate_boats_1.png","stimuli/stim003_animate_fish_3.png","137"
"html-button-response-mod","144","419424","0.0-144.0","74229","","","","","","triplet","1008.2000000029802","","","","1","stimuli/stim006_animate_bird_2.png","stimuli/stim022_inanimate_tools_2.png","stimuli/stim018_inanimate_tree_2.png","138"
"html-button-response-mod","145","421282","0.0-145.0","74229","","","","","","triplet","1351.7999999970198","","","","2","stimuli/stim010_animate_face_2.png","stimuli/stim016_inanimate_boats_4.png","stimuli/bird_uppercase.png","139"
"html-button-response-mod","146","423125","0.0-146.0","74229","","","","","","triplet","1332.699999988079","","","","0","stimuli/stim003_animate_fish_3.png","stimuli/stim011_animate_face_3.png","stimuli/face_uppercase.png","140"
"html-button-response-mod","147","439750","0.0-147.0","74229","","","","","","triplet","16115.59999999404","","","","1","stimuli/stim001_animate_fish_1.png","stimuli/stim022_inanimate_tools_2.png","stimuli/stim011_animate_face_3.png","141"
"html-button-response-mod","148","441808","0.0-148.0","74229","","","","","","triplet","1551.5999999940395","","","","0","stimuli/face_uppercase.png","stimuli/stim004_animate_fish_4.png","stimuli/stim013_inanimate_boats_1.png","142"
"html-button-response-mod","149","443528","0.0-149.0","74229","","","","","","triplet","1210.7999999970198","","","","1","stimuli/bird_uppercase.png","stimuli/stim001_animate_fish_1.png","stimuli/stim019_inanimate_tree_3.png","143"
"html-button-response-mod","150","445007","0.0-150.0","74229","","","","","","triplet","971.8000000119209","","","","0","stimuli/stim010_animate_face_2.png","stimuli/stim007_animate_bird_3.png","stimuli/stim005_animate_bird_1.png","144"
"html-button-response-mod","151","448262","0.0-151.0","74229","","","","","","triplet","2747.5999999940395","","","","2","stimuli/fish_uppercase.png","stimuli/stim014_inanimate_boats_2.png","stimuli/stim013_inanimate_boats_1.png","145"
"html-button-response-mod","152","449990","0.0-152.0","74229","","","","","","triplet","1219.699999988079","","","","0","stimuli/stim010_animate_face_2.png","stimuli/stim003_animate_fish_3.png","stimuli/stim008_animate_bird_4.png","146"
"html-button-response-mod","153","451847","0.0-153.0","74229","","","","","","triplet","1346.7999999970198","","","","2","stimuli/bird_lowercase.png","stimuli/tree_uppercase.png","stimuli/stim003_animate_fish_3.png","147"
"html-button-response-mod","154","453867","0.0-154.0","74229","","","","","","triplet","1511.2000000029802","","","","2","stimuli/stim014_inanimate_boats_2.png","stimuli/stim013_inanimate_boats_1.png","stimuli/stim015_inanimate_boats_3.png","148"
"html-button-response-mod","155","455514","0.0-155.0","74229","","","","","","triplet","1142.199999988079","","","","1","stimuli/fish_lowercase.png","stimuli/face_lowercase.png","stimuli/stim020_inanimate_tree_4.png","149"
"html-button-response","156","458108","0.0-156.0","74229","","","","","","break","2089.2999999970198","<p>BREAK</p><p>Take a break for as long as you need</p><p>Click the button to continue</p>","0","","","","","",""
"html-button-response-mod","157","459376","0.0-157.0","74229","","","","","","triplet","1265.1000000089407","","","","1","stimuli/stim013_inanimate_boats_1.png","stimuli/stim022_inanimate_tools_2.png","stimuli/boats_lowercase.png","150"
"html-button-response-mod","158","460716","0.0-158.0","74229","","","","","","triplet","835.3999999910593","","","","2","stimuli/stim017_inanimate_tree_1.png","stimuli/stim020_inanimate_tree_4.png","stimuli/stim013_inanimate_boats_1.png","151"
"html-button-response-mod","159","462203","0.0-159.0","74229","","","","","","triplet","977.2000000029802","","","","1","stimuli/face_lowercase.png","stimuli/stim021_inanimate_tools_1.png","stimuli/tools_uppercase.png","152"
"html-button-response-mod","160","463723","0.0-160.0","74229","","","","","","triplet","1010.3999999910593","","","","2","stimuli/stim006_animate_bird_2.png","stimuli/stim005_animate_bird_1.png","stimuli/bird_lowercase.png","153"
"html-button-response-mod","161","465878","0.0-161.0","74229","","","","","","triplet","1649.6000000089407","","","","1","stimuli/stim020_inanimate_tree_4.png","stimuli/stim009_animate_face_1.png","stimuli/stim021_inanimate_tools_1.png","154"
"html-button-response-mod","162","468277","0.0-162.0","74229","","","","","","triplet","1893.2999999970198","","","","2","stimuli/boats_lowercase.png","stimuli/stim015_inanimate_boats_3.png","stimuli/stim005_animate_bird_1.png","155"
"html-button-response-mod","163","470135","0.0-163.0","74229","","","","","","triplet","1348","","","","0","stimuli/stim022_inanimate_tools_2.png","stimuli/tree_uppercase.png","stimuli/bird_lowercase.png","156"
"html-button-response-mod","164","472413","0.0-164.0","74229","","","","","","triplet","1768.199999988079","","","","2","stimuli/stim010_animate_face_2.png","stimuli/face_uppercase.png","stimuli/bird_lowercase.png","157"
"html-button-response-mod","165","475296","0.0-165.0","74229","","","","","","triplet","2375","","","","2","stimuli/stim020_inanimate_tree_4.png","stimuli/stim006_animate_bird_2.png","stimuli/boats_lowercase.png","158"
"html-button-response-mod","166","477501","0.0-166.0","74229","","","","","","triplet","1696.1000000089407","","","","1","stimuli/face_uppercase.png","stimuli/bird_uppercase.png","stimuli/tree_uppercase.png","159"
"html-button-response-mod","167","480167","0.0-167.0","74229","","","","","","triplet","2156.7000000029802","","","","0","stimuli/stim009_animate_face_1.png","stimuli/tree_lowercase.png","stimuli/stim008_animate_bird_4.png","160"
"html-button-response-mod","168","482121","0.0-168.0","74229","","","","","","triplet","1443.8999999910593","","","","2","stimuli/bird_lowercase.png","stimuli/stim008_animate_bird_4.png","stimuli/face_lowercase.png","161"
"html-button-response-mod","169","485104","0.0-169.0","74229","","","","","","triplet","2473.7000000029802","","","","0","stimuli/face_lowercase.png","stimuli/stim013_inanimate_boats_1.png","stimuli/stim014_inanimate_boats_2.png","162"
"html-button-response-mod","170","487017","0.0-170.0","74229","","","","","","triplet","1403.4000000059605","","","","1","stimuli/stim018_inanimate_tree_2.png","stimuli/stim021_inanimate_tools_1.png","stimuli/bird_uppercase.png","163"
"html-button-response-mod","171","488834","0.0-171.0","74229","","","","","","triplet","1307.2000000029802","","","","2","stimuli/stim015_inanimate_boats_3.png","stimuli/stim003_animate_fish_3.png","stimuli/stim012_animate_face_4.png","164"
"html-button-response-mod","172","490788","0.0-172.0","74229","","","","","","triplet","1443.0999999940395","","","","1","stimuli/bird_lowercase.png","stimuli/tools_lowercase.png","stimuli/stim019_inanimate_tree_3.png","165"
"html-button-response-mod","173","492920","0.0-173.0","74229","","","","","","triplet","1625.2000000029802","","","","0","stimuli/tools_lowercase.png","stimuli/stim008_animate_bird_4.png","stimuli/bird_uppercase.png","166"
"html-button-response-mod","174","495027","0.0-174.0","74229","","","","","","triplet","1597.5","","","","1","stimuli/fish_uppercase.png","stimuli/stim013_inanimate_boats_1.png","stimuli/stim003_animate_fish_3.png","167"
"html-button-response-mod","175","498170","0.0-175.0","74229","","","","","","triplet","2633.2000000029802","","","","0","stimuli/stim024_inanimate_tools_4.png","stimuli/stim005_animate_bird_1.png","stimuli/stim015_inanimate_boats_3.png","168"
"html-button-response-mod","176","500843","0.0-176.0","74229","","","","","","triplet","2163.6000000089407","","","","0","stimuli/stim012_animate_face_4.png","stimuli/stim019_inanimate_tree_3.png","stimuli/stim013_inanimate_boats_1.png","169"
"html-button-response-mod","177","502910","0.0-177.0","74229","","","","","","triplet","1561.0999999940395","","","","2","stimuli/stim015_inanimate_boats_3.png","stimuli/stim002_animate_fish_2.png","stimuli/face_lowercase.png","170"
"html-button-response-mod","178","504962","0.0-178.0","74229","","","","","","triplet","1543.8999999910593","","","","0","stimuli/stim017_inanimate_tree_1.png","stimuli/stim003_animate_fish_3.png","stimuli/stim008_animate_bird_4.png","171"
"html-button-response-mod","179","506577","0.0-179.0","74229","","","","","","triplet","1105.300000011921","","","","1","stimuli/stim024_inanimate_tools_4.png","stimuli/tools_lowercase.png","stimuli/stim023_inanimate_tools_3.png","172"
"html-button-response-mod","180","508613","0.0-180.0","74229","","","","","","triplet","1526.2999999970198","","","","0","stimuli/stim022_inanimate_tools_2.png","stimuli/face_lowercase.png","stimuli/stim010_animate_face_2.png","173"
"html-button-response-mod","181","510939","0.0-181.0","74229","","","","","","triplet","1817.6000000089407","","","","2","stimuli/stim005_animate_bird_1.png","stimuli/stim017_inanimate_tree_1.png","stimuli/face_lowercase.png","174"
"html-button-response-mod","182","513500","0.0-182.0","74229","","","","","","triplet","2052.5999999940395","","","","0","stimuli/stim022_inanimate_tools_2.png","stimuli/stim007_animate_bird_3.png","stimuli/tools_lowercase.png","175"
"html-button-response-mod","183","515559","0.0-183.0","74229","","","","","","triplet","1551.7999999970198","","","","1","stimuli/stim003_animate_fish_3.png","stimuli/stim010_animate_face_2.png","stimuli/stim007_animate_bird_3.png","176"
"html-button-response-mod","184","517457","0.0-184.0","74229","","","","","","triplet","1393.199999988079","","","","2","stimuli/bird_uppercase.png","stimuli/stim006_animate_bird_2.png","stimuli/stim004_animate_fish_4.png","177"
"html-button-response-mod","185","519467","0.0-185.0","74229","","","","","","triplet","1505.5","","","","2","stimuli/bird_lowercase.png","stimuli/stim007_animate_bird_3.png","stimuli/stim010_animate_face_2.png","178"
"html-button-response-mod","186","521212","0.0-186.0","74229","","","","","","triplet","1235.0999999940395","","","","1","stimuli/stim003_animate_fish_3.png","stimuli/stim015_inanimate_boats_3.png","stimuli/stim017_inanimate_tree_1.png","179"
"html-button-response-mod","187","522772","0.0-187.0","74229","","","","","","triplet","1053.7999999970198","","","","1","stimuli/stim021_inanimate_tools_1.png","stimuli/stim020_inanimate_tree_4.png","stimuli/stim024_inanimate_tools_4.png","180"
"html-button-response-mod","188","528580","0.0-188.0","74229","","","","","","triplet","5297.20000000298","","","","1","stimuli/stim009_animate_face_1.png","stimuli/tree_lowercase.png","stimuli/stim022_inanimate_tools_2.png","181"
"html-button-response-mod","189","530792","0.0-189.0","74229","","","","","","triplet","1702.7000000029802","","","","2","stimuli/stim015_inanimate_boats_3.png","stimuli/stim014_inanimate_boats_2.png","stimuli/tools_lowercase.png","182"
"html-button-response-mod","190","532956","0.0-190.0","74229","","","","","","triplet","1654","","","","0","stimuli/stim023_inanimate_tools_3.png","stimuli/boats_uppercase.png","stimuli/boats_lowercase.png","183"
"html-button-response-mod","191","537092","0.0-191.0","74229","","","","","","triplet","3625.7999999970198","","","","2","stimuli/boats_lowercase.png","stimuli/stim004_animate_fish_4.png","stimuli/bird_lowercase.png","184"
"html-button-response-mod","192","539233","0.0-192.0","74229","","","","","","triplet","1630.5999999940395","","","","2","stimuli/stim024_inanimate_tools_4.png","stimuli/stim022_inanimate_tools_2.png","stimuli/stim023_inanimate_tools_3.png","185"
"html-button-response-mod","193","541591","0.0-193.0","74229","","","","","","triplet","1848.5999999940395","","","","1","stimuli/stim021_inanimate_tools_1.png","stimuli/stim017_inanimate_tree_1.png","stimuli/stim016_inanimate_boats_4.png","186"
"html-button-response-mod","194","545815","0.0-194.0","74229","","","","","","triplet","3718","","","","1","stimuli/stim014_inanimate_boats_2.png","stimuli/stim012_animate_face_4.png","stimuli/stim007_animate_bird_3.png","187"
"html-button-response-mod","195","549474","0.0-195.0","74229","","","","","","triplet","3153","","","","1","stimuli/stim014_inanimate_boats_2.png","stimuli/stim004_animate_fish_4.png","stimuli/stim015_inanimate_boats_3.png","188"
"html-button-response-mod","196","551622","0.0-196.0","74229","","","","","","triplet","1638.300000011921","","","","1","stimuli/stim005_animate_bird_1.png","stimuli/boats_uppercase.png","stimuli/bird_lowercase.png","189"
"html-button-response-mod","197","553383","0.0-197.0","74229","","","","","","triplet","1254.8999999910593","","","","2","stimuli/stim008_animate_bird_4.png","stimuli/stim018_inanimate_tree_2.png","stimuli/tree_uppercase.png","190"
"html-button-response-mod","198","556832","0.0-198.0","74229","","","","","","triplet","2938.5","","","","2","stimuli/stim021_inanimate_tools_1.png","stimuli/stim008_animate_bird_4.png","stimuli/stim010_animate_face_2.png","191"
"html-button-response-mod","199","559118","0.0-199.0","74229","","","","","","triplet","1776.9000000059605","","","","0","stimuli/stim021_inanimate_tools_1.png","stimuli/stim004_animate_fish_4.png","stimuli/stim005_animate_bird_1.png","192"
"html-button-response-mod","200","561590","0.0-200.0","74229","","","","","","triplet","1962.5999999940395","","","","2","stimuli/stim003_animate_fish_3.png","stimuli/bird_uppercase.png","stimuli/face_uppercase.png","193"
"html-button-response-mod","201","563325","0.0-201.0","74229","","","","","","triplet","1225.7000000029802","","","","2","stimuli/stim015_inanimate_boats_3.png","stimuli/stim012_animate_face_4.png","stimuli/stim004_animate_fish_4.png","194"
"html-button-response-mod","202","565830","0.0-202.0","74229","","","","","","triplet","1995.2999999970198","","","","0","stimuli/stim011_animate_face_3.png","stimuli/fish_uppercase.png","stimuli/stim002_animate_fish_2.png","195"
"html-button-response-mod","203","567550","0.0-203.0","74229","","","","","","triplet","1209.7000000029802","","","","1","stimuli/stim011_animate_face_3.png","stimuli/stim016_inanimate_boats_4.png","stimuli/stim010_animate_face_2.png","196"
"html-button-response-mod","204","569189","0.0-204.0","74229","","","","","","triplet","1129.2000000029802","","","","1","stimuli/stim007_animate_bird_3.png","stimuli/stim022_inanimate_tools_2.png","stimuli/stim005_animate_bird_1.png","197"
"html-button-response-mod","205","571281","0.0-205.0","74229","","","","","","triplet","1581.7999999970198","","","","0","stimuli/stim008_animate_bird_4.png","stimuli/face_lowercase.png","stimuli/stim009_animate_face_1.png","198"
"html-button-response-mod","206","572630","0.0-206.0","74229","","","","","","triplet","839.3000000119209","","","","1","stimuli/stim021_inanimate_tools_1.png","stimuli/stim010_animate_face_2.png","stimuli/stim023_inanimate_tools_3.png","199"
"html-button-response","207","574674","0.0-207.0","74229","","","","","","break","1534.2000000029802","<p>BREAK</p><p>Take a break for as long as you need</p><p>Click the button to continue</p>","0","","","","","",""
"html-button-response-mod","208","576870","0.0-208.0","74229","","","","","","triplet","2193.300000011921","","","","1","stimuli/stim007_animate_bird_3.png","stimuli/stim001_animate_fish_1.png","stimuli/stim006_animate_bird_2.png","200"
"html-button-response-mod","209","578259","0.0-209.0","74229","","","","","","triplet","879.5","","","","2","stimuli/stim002_animate_fish_2.png","stimuli/stim003_animate_fish_3.png","stimuli/tools_lowercase.png","201"
"html-button-response-mod","210","580352","0.0-210.0","74229","","","","","","triplet","1583.0999999940395","","","","2","stimuli/tools_uppercase.png","stimuli/stim013_inanimate_boats_1.png","stimuli/face_lowercase.png","202"
"html-button-response-mod","211","582322","0.0-211.0","74229","","","","","","triplet","1459.9000000059605","","","","0","stimuli/stim021_inanimate_tools_1.png","stimuli/stim015_inanimate_boats_3.png","stimuli/stim001_animate_fish_1.png","203"
"html-button-response-mod","212","584099","0.0-212.0","74229","","","","","","triplet","1271","","","","0","stimuli/tree_lowercase.png","stimuli/face_uppercase.png","stimuli/stim012_animate_face_4.png","204"
"html-button-response-mod","213","586466","0.0-213.0","74229","","","","","","triplet","1856.7999999970198","","","","0","stimuli/stim024_inanimate_tools_4.png","stimuli/stim006_animate_bird_2.png","stimuli/face_lowercase.png","205"
"html-button-response-mod","214","588865","0.0-214.0","74229","","","","","","triplet","1891.2000000029802","","","","1","stimuli/boats_lowercase.png","stimuli/stim022_inanimate_tools_2.png","stimuli/face_uppercase.png","206"
"html-button-response-mod","215","591708","0.0-215.0","74229","","","","","","triplet","2334.0999999940395","","","","1","stimuli/stim022_inanimate_tools_2.png","stimuli/tree_lowercase.png","stimuli/stim014_inanimate_boats_2.png","207"
"html-button-response-mod","216","593048","0.0-216.0","74229","","","","","","triplet","830.3999999910593","","","","2","stimuli/stim010_animate_face_2.png","stimuli/stim012_animate_face_4.png","stimuli/stim006_animate_bird_2.png","208"
"html-button-response-mod","217","594607","0.0-217.0","74229","","","","","","triplet","1051.1000000089407","","","","1","stimuli/stim018_inanimate_tree_2.png","stimuli/stim023_inanimate_tools_3.png","stimuli/tree_uppercase.png","209"
"html-button-response-mod","218","596489","0.0-218.0","74229","","","","","","triplet","1373","","","","2","stimuli/stim004_animate_fish_4.png","stimuli/stim016_inanimate_boats_4.png","stimuli/stim021_inanimate_tools_1.png","210"
"html-button-response-mod","219","598209","0.0-219.0","74229","","","","","","triplet","1210.7999999970198","","","","2","stimuli/face_uppercase.png","stimuli/stim010_animate_face_2.png","stimuli/stim021_inanimate_tools_1.png","211"
"html-button-response-mod","220","601448","0.0-220.0","74229","","","","","","triplet","2732.8999999910593","","","","0","stimuli/stim013_inanimate_boats_1.png","stimuli/bird_uppercase.png","stimuli/fish_lowercase.png","212"
"html-button-response-mod","221","610652","0.0-221.0","74229","","","","","","triplet","8698.5","","","","2","stimuli/stim017_inanimate_tree_1.png","stimuli/stim009_animate_face_1.png","stimuli/stim002_animate_fish_2.png","213"
"html-button-response-mod","222","613551","0.0-222.0","74229","","","","","","triplet","2389.2999999970198","","","","0","stimuli/tools_uppercase.png","stimuli/bird_uppercase.png","stimuli/stim004_animate_fish_4.png","214"
"html-button-response-mod","223","615531","0.0-223.0","74229","","","","","","triplet","1470","","","","0","stimuli/stim010_animate_face_2.png","stimuli/stim017_inanimate_tree_1.png","stimuli/stim013_inanimate_boats_1.png","215"
"html-button-response-mod","224","617381","0.0-224.0","74229","","","","","","triplet","1342.5999999940395","","","","0","stimuli/tools_uppercase.png","stimuli/stim005_animate_bird_1.png","stimuli/bird_uppercase.png","216"
"html-button-response-mod","225","620707","0.0-225.0","74229","","","","","","triplet","2816.2000000029802","","","","2","stimuli/stim005_animate_bird_1.png","stimuli/stim016_inanimate_boats_4.png","stimuli/tree_lowercase.png","217"
"html-button-response-mod","226","622159","0.0-226.0","74229","","","","","","triplet","942.5999999940395","","","","1","stimuli/stim007_animate_bird_3.png","stimuli/stim021_inanimate_tools_1.png","stimuli/stim002_animate_fish_2.png","218"
"html-button-response-mod","227","624679","0.0-227.0","74229","","","","","","triplet","2010.1000000089407","","","","2","stimuli/stim015_inanimate_boats_3.png","stimuli/stim019_inanimate_tree_3.png","stimuli/stim011_animate_face_3.png","219"
"html-button-response-mod","228","625875","0.0-228.0","74229","","","","","","triplet","686.3999999910593","","","","1","stimuli/stim020_inanimate_tree_4.png","stimuli/stim016_inanimate_boats_4.png","stimuli/stim018_inanimate_tree_2.png","220"
"html-button-response-mod","229","627281","0.0-229.0","74229","","","","","","triplet","895.7000000029802","","","","2","stimuli/stim021_inanimate_tools_1.png","stimuli/stim004_animate_fish_4.png","stimuli/tools_lowercase.png","221"
"html-button-response-mod","230","629292","0.0-230.0","74229","","","","","","triplet","1504.199999988079","","","","0","stimuli/stim023_inanimate_tools_3.png","stimuli/stim020_inanimate_tree_4.png","stimuli/bird_lowercase.png","222"
"html-button-response-mod","231","631101","0.0-231.0","74229","","","","","","triplet","1303.5","","","","1","stimuli/stim006_animate_bird_2.png","stimuli/stim016_inanimate_boats_4.png","stimuli/fish_uppercase.png","223"
"html-button-response-mod","232","633557","0.0-232.0","74229","","","","","","triplet","1946.9000000059605","","","","0","stimuli/bird_uppercase.png","stimuli/stim023_inanimate_tools_3.png","stimuli/tools_lowercase.png","224"
"html-button-response-mod","233","637159","0.0-233.0","74229","","","","","","triplet","3092.3999999910593","","","","2","stimuli/stim016_inanimate_boats_4.png","stimuli/tools_lowercase.png","stimuli/tree_uppercase.png","225"
"html-button-response-mod","234","639412","0.0-234.0","74229","","","","","","triplet","1749","","","","2","stimuli/stim021_inanimate_tools_1.png","stimuli/stim011_animate_face_3.png","stimuli/fish_lowercase.png","226"
"html-button-response-mod","235","641771","0.0-235.0","74229","","","","","","triplet","1849.5999999940395","","","","1","stimuli/stim003_animate_fish_3.png","stimuli/stim018_inanimate_tree_2.png","stimuli/boats_lowercase.png","227"
"html-button-response-mod","236","645398","0.0-236.0","74229","","","","","","triplet","3121.5","","","","2","stimuli/stim005_animate_bird_1.png","stimuli/stim018_inanimate_tree_2.png","stimuli/tree_uppercase.png","228"
"html-button-response-mod","237","647120","0.0-237.0","74229","","","","","","triplet","1211.5","","","","2","stimuli/bird_uppercase.png","stimuli/stim018_inanimate_tree_2.png","stimuli/boats_lowercase.png","229"
"html-button-response-mod","238","649672","0.0-238.0","74229","","","","","","triplet","2044","","","","1","stimuli/stim006_animate_bird_2.png","stimuli/bird_uppercase.png","stimuli/stim008_animate_bird_4.png","230"
"html-button-response-mod","239","651449","0.0-239.0","74229","","","","","","triplet","1268.5","","","","0","stimuli/tools_uppercase.png","stimuli/stim004_animate_fish_4.png","stimuli/fish_lowercase.png","231"
"html-button-response-mod","240","653273","0.0-240.0","74229","","","","","","triplet","1314.7999999970198","","","","0","stimuli/stim019_inanimate_tree_3.png","stimuli/stim012_animate_face_4.png","stimuli/stim011_animate_face_3.png","232"
"html-button-response-mod","241","655203","0.0-241.0","74229","","","","","","triplet","1424.7999999970198","","","","2","stimuli/fish_lowercase.png","stimuli/stim002_animate_fish_2.png","stimuli/stim017_inanimate_tree_1.png","233"
"html-button-response-mod","242","657602","0.0-242.0","74229","","","","","","triplet","1889.2000000029802","","","","1","stimuli/stim016_inanimate_boats_4.png","stimuli/tree_lowercase.png","stimuli/face_lowercase.png","234"
"html-button-response-mod","243","659840","0.0-243.0","74229","","","","","","triplet","1727.6000000089407","","","","2","stimuli/fish_uppercase.png","stimuli/boats_uppercase.png","stimuli/stim018_inanimate_tree_2.png","235"
"html-button-response-mod","244","661835","0.0-244.0","74229","","","","","","triplet","1487.1000000089407","","","","1","stimuli/boats_uppercase.png","stimuli/stim023_inanimate_tools_3.png","stimuli/fish_uppercase.png","236"
"html-button-response-mod","245","663499","0.0-245.0","74229","","","","","","triplet","1154","","","","1","stimuli/stim009_animate_face_1.png","stimuli/boats_lowercase.png","stimuli/face_uppercase.png","237"
"html-button-response-mod","246","665437","0.0-246.0","74229","","","","","","triplet","1428.2999999970198","","","","1","stimuli/stim001_animate_fish_1.png","stimuli/stim011_animate_face_3.png","stimuli/tools_lowercase.png","238"
"html-button-response-mod","247","668232","0.0-247.0","74229","","","","","","triplet","2284.7999999970198","","","","2","stimuli/bird_lowercase.png","stimuli/face_uppercase.png","stimuli/stim016_inanimate_boats_4.png","239"
"html-button-response-mod","248","669945","0.0-248.0","74229","","","","","","triplet","1202.7000000029802","","","","0","stimuli/stim007_animate_bird_3.png","stimuli/stim014_inanimate_boats_2.png","stimuli/tree_uppercase.png","240"
"html-button-response-mod","249","671721","0.0-249.0","74229","","","","","","triplet","1270","","","","1","stimuli/stim022_inanimate_tools_2.png","stimuli/stim011_animate_face_3.png","stimuli/tools_uppercase.png","241"
"html-button-response-mod","250","674177","0.0-250.0","74229","","","","","","triplet","1945","","","","2","stimuli/fish_lowercase.png","stimuli/tree_lowercase.png","stimuli/stim022_inanimate_tools_2.png","242"
"html-button-response-mod","251","676236","0.0-251.0","74229","","","","","","triplet","1549.2999999970198","","","","0","stimuli/stim022_inanimate_tools_2.png","stimuli/tree_uppercase.png","stimuli/stim017_inanimate_tree_1.png","243"
"html-button-response-mod","252","677650","0.0-252.0","74229","","","","","","triplet","908.1999999880791","","","","2","stimuli/stim020_inanimate_tree_4.png","stimuli/stim019_inanimate_tree_3.png","stimuli/stim001_animate_fish_1.png","244"
"html-button-response-mod","253","679918","0.0-253.0","74229","","","","","","triplet","1759","","","","1","stimuli/tree_lowercase.png","stimuli/tools_lowercase.png","stimuli/stim008_animate_bird_4.png","245"
"html-button-response-mod","254","682261","0.0-254.0","74229","","","","","","triplet","1833.3999999910593","","","","2","stimuli/stim006_animate_bird_2.png","stimuli/tree_lowercase.png","stimuli/stim024_inanimate_tools_4.png","246"
"html-button-response-mod","255","684774","0.0-255.0","74229","","","","","","triplet","2005.2000000029802","","","","2","stimuli/stim015_inanimate_boats_3.png","stimuli/face_lowercase.png","stimuli/stim021_inanimate_tools_1.png","247"
"html-button-response-mod","256","686721","0.0-256.0","74229","","","","","","triplet","1437.7999999970198","","","","0","stimuli/boats_lowercase.png","stimuli/stim001_animate_fish_1.png","stimuli/stim017_inanimate_tree_1.png","248"
"html-button-response-mod","257","690634","0.0-257.0","74229","","","","","","triplet","3407.1000000089407","","","","1","stimuli/stim004_animate_fish_4.png","stimuli/stim012_animate_face_4.png","stimuli/bird_lowercase.png","249"
"html-button-response","258","692900","0.0-258.0","74229","","","","","","break","1762.5","<p>BREAK</p><p>Take a break for as long as you need</p><p>Click the button to continue</p>","0","","","","","",""
"html-button-response-mod","259","694572","0.0-259.0","74229","","","","","","triplet","1667.7999999970198","","","","2","stimuli/boats_lowercase.png","stimuli/fish_uppercase.png","stimuli/stim010_animate_face_2.png","250"
"html-button-response-mod","260","706983","0.0-260.0","74229","","","","","","triplet","11904","","","","1","stimuli/stim012_animate_face_4.png","stimuli/tree_uppercase.png","stimuli/stim003_animate_fish_3.png","251"
"html-button-response-mod","261","709115","0.0-261.0","74229","","","","","","triplet","1622.1000000089407","","","","0","stimuli/tree_uppercase.png","stimuli/stim015_inanimate_boats_3.png","stimuli/stim016_inanimate_boats_4.png","252"
"html-button-response-mod","262","712410","0.0-262.0","74229","","","","","","triplet","2785","","","","2","stimuli/tools_uppercase.png","stimuli/stim015_inanimate_boats_3.png","stimuli/stim005_animate_bird_1.png","253"
"html-button-response-mod","263","714890","0.0-263.0","74229","","","","","","triplet","1969.4000000059605","","","","2","stimuli/stim019_inanimate_tree_3.png","stimuli/tree_lowercase.png","stimuli/stim012_animate_face_4.png","254"
"html-button-response-mod","264","716925","0.0-264.0","74229","","","","","","triplet","1525.4000000059605","","","","0","stimuli/face_uppercase.png","stimuli/stim022_inanimate_tools_2.png","stimuli/stim021_inanimate_tools_1.png","255"
"html-button-response-mod","265","718470","0.0-265.0","74229","","","","","","triplet","1036","","","","0","stimuli/stim018_inanimate_tree_2.png","stimuli/stim022_inanimate_tools_2.png","stimuli/stim023_inanimate_tools_3.png","256"
"html-button-response-mod","266","720444","0.0-266.0","74229","","","","","","triplet","1460.3999999910593","","","","1","stimuli/fish_lowercase.png","stimuli/stim018_inanimate_tree_2.png","stimuli/boats_lowercase.png","257"
"html-button-response-mod","267","722734","0.0-267.0","74229","","","","","","triplet","1780.3999999910593","","","","0","stimuli/face_uppercase.png","stimuli/stim006_animate_bird_2.png","stimuli/stim013_inanimate_boats_1.png","258"
"html-button-response-mod","268","724173","0.0-268.0","74229","","","","","","triplet","929.7000000029802","","","","0","stimuli/stim023_inanimate_tools_3.png","stimuli/stim019_inanimate_tree_3.png","stimuli/stim020_inanimate_tree_4.png","259"
"html-button-response-mod","269","725710","0.0-269.0","74229","","","","","","triplet","1024.5","","","","2","stimuli/boats_lowercase.png","stimuli/boats_uppercase.png","stimuli/stim006_animate_bird_2.png","260"
"html-button-response-mod","270","727545","0.0-270.0","74229","","","","","","triplet","1322.7000000029802","","","","2","stimuli/stim019_inanimate_tree_3.png","stimuli/stim006_animate_bird_2.png","stimuli/face_uppercase.png","261"
"html-button-response-mod","271","729719","0.0-271.0","74229","","","","","","triplet","1661.8999999910593","","","","1","stimuli/stim021_inanimate_tools_1.png","stimuli/stim020_inanimate_tree_4.png","stimuli/stim022_inanimate_tools_2.png","262"
"html-button-response-mod","272","731838","0.0-272.0","74229","","","","","","triplet","1606.9000000059605","","","","1","stimuli/stim005_animate_bird_1.png","stimuli/stim012_animate_face_4.png","stimuli/stim022_inanimate_tools_2.png","263"
"html-button-response-mod","273","734277","0.0-273.0","74229","","","","","","triplet","1929.0999999940395","","","","0","stimuli/tools_uppercase.png","stimuli/stim001_animate_fish_1.png","stimuli/fish_uppercase.png","264"
"html-button-response-mod","274","738480","0.0-274.0","74229","","","","","","triplet","3691.4000000059605","","","","2","stimuli/bird_uppercase.png","stimuli/stim005_animate_bird_1.png","stimuli/boats_lowercase.png","265"
"html-button-response-mod","275","740136","0.0-275.0","74229","","","","","","triplet","1146","","","","2","stimuli/stim005_animate_bird_1.png","stimuli/stim008_animate_bird_4.png","stimuli/fish_lowercase.png","266"
"html-button-response-mod","276","741889","0.0-276.0","74229","","","","","","triplet","1242.5","","","","2","stimuli/stim024_inanimate_tools_4.png","stimuli/stim023_inanimate_tools_3.png","stimuli/stim013_inanimate_boats_1.png","267"
"html-button-response-mod","277","744702","0.0-277.0","74229","","","","","","triplet","2302.2000000029802","","","","0","stimuli/stim017_inanimate_tree_1.png","stimuli/stim023_inanimate_tools_3.png","stimuli/stim016_inanimate_boats_4.png","268"
"html-button-response-mod","278","746479","0.0-278.0","74229","","","","","","triplet","1266.5999999940395","","","","0","stimuli/stim017_inanimate_tree_1.png","stimuli/stim005_animate_bird_1.png","stimuli/stim011_animate_face_3.png","269"
"html-button-response-mod","279","749664","0.0-279.0","74229","","","","","","triplet","2678.7000000029802","","","","0","stimuli/fish_lowercase.png","stimuli/tree_lowercase.png","stimuli/stim017_inanimate_tree_1.png","270"
"html-button-response-mod","280","751811","0.0-280.0","74229","","","","","","triplet","1641.5999999940395","","","","0","stimuli/stim022_inanimate_tools_2.png","stimuli/fish_lowercase.png","stimuli/tree_uppercase.png","271"
"html-button-response-mod","281","753646","0.0-281.0","74229","","","","","","triplet","1326.2000000029802","","","","0","stimuli/bird_lowercase.png","stimuli/stim021_inanimate_tools_1.png","stimuli/stim023_inanimate_tools_3.png","272"
"html-button-response-mod","282","755552","0.0-282.0","74229","","","","","","triplet","1396.8999999910593","","","","1","stimuli/stim013_inanimate_boats_1.png","stimuli/face_uppercase.png","stimuli/stim016_inanimate_boats_4.png","273"
"html-button-response-mod","283","757540","0.0-283.0","74229","","","","","","triplet","1476.7000000029802","","","","1","stimuli/stim009_animate_face_1.png","stimuli/stim024_inanimate_tools_4.png","stimuli/stim013_inanimate_boats_1.png","274"
"html-button-response-mod","284","759397","0.0-284.0","74229","","","","","","triplet","1351.0999999940395","","","","0","stimuli/tree_lowercase.png","stimuli/stim018_inanimate_tree_2.png","stimuli/stim017_inanimate_tree_1.png","275"
"html-button-response-mod","285","761546","0.0-285.0","74229","","","","","","triplet","1642.7999999970198","","","","1","stimuli/stim012_animate_face_4.png","stimuli/tree_uppercase.png","stimuli/stim009_animate_face_1.png","276"
"html-button-response-mod","286","763348","0.0-286.0","74229","","","","","","triplet","1291.5","","","","1","stimuli/fish_uppercase.png","stimuli/stim022_inanimate_tools_2.png","stimuli/stim013_inanimate_boats_1.png","277"
"html-button-response-mod","287","765246","0.0-287.0","74229","","","","","","triplet","1387.2999999970198","","","","1","stimuli/fish_uppercase.png","stimuli/tools_uppercase.png","stimuli/stim020_inanimate_tree_4.png","278"
"html-button-response-mod","288","767808","0.0-288.0","74229","","","","","","triplet","2052","","","","1","stimuli/stim008_animate_bird_4.png","stimuli/stim010_animate_face_2.png","stimuli/fish_uppercase.png","279"
"html-button-response-mod","289","769891","0.0-289.0","74229","","","","","","triplet","1572.5","","","","0","stimuli/stim018_inanimate_tree_2.png","stimuli/bird_lowercase.png","stimuli/stim006_animate_bird_2.png","280"
"html-button-response-mod","290","771684","0.0-290.0","74229","","","","","","triplet","1286.2999999970198","","","","0","stimuli/stim010_animate_face_2.png","stimuli/stim002_animate_fish_2.png","stimuli/bird_uppercase.png","281"
"html-button-response-mod","291","773663","0.0-291.0","74229","","","","","","triplet","1469.4000000059605","","","","2","stimuli/stim017_inanimate_tree_1.png","stimuli/stim002_animate_fish_2.png","stimuli/stim010_animate_face_2.png","282"
"html-button-response-mod","292","775755","0.0-292.0","74229","","","","","","triplet","1583.9000000059605","","","","0","stimuli/stim024_inanimate_tools_4.png","stimuli/stim006_animate_bird_2.png","stimuli/fish_uppercase.png","283"
"html-button-response-mod","293","777346","0.0-293.0","74229","","","","","","triplet","1080.5","","","","2","stimuli/stim021_inanimate_tools_1.png","stimuli/tools_uppercase.png","stimuli/stim013_inanimate_boats_1.png","284"
"html-button-response-mod","294","781006","0.0-294.0","74229","","","","","","triplet","3150.7000000029802","","","","1","stimuli/face_uppercase.png","stimuli/stim006_animate_bird_2.png","stimuli/tree_uppercase.png","285"
"html-button-response-mod","295","782637","0.0-295.0","74229","","","","","","triplet","1121.7999999970198","","","","1","stimuli/tools_uppercase.png","stimuli/stim016_inanimate_boats_4.png","stimuli/stim023_inanimate_tools_3.png","286"
"html-button-response-mod","296","784091","0.0-296.0","74229","","","","","","triplet","945.2999999970198","","","","1","stimuli/face_lowercase.png","stimuli/stim006_animate_bird_2.png","stimuli/stim009_animate_face_1.png","287"
"html-button-response-mod","297","785845","0.0-297.0","74229","","","","","","triplet","1243.699999988079","","","","1","stimuli/stim001_animate_fish_1.png","stimuli/boats_lowercase.png","stimuli/stim007_animate_bird_3.png","288"
"html-button-response-mod","298","787742","0.0-298.0","74229","","","","","","triplet","1388.1000000089407","","","","2","stimuli/stim014_inanimate_boats_2.png","stimuli/stim021_inanimate_tools_1.png","stimuli/tools_uppercase.png","289"
"html-button-response-mod","299","789535","0.0-299.0","74229","","","","","","triplet","1283","","","","1","stimuli/stim002_animate_fish_2.png","stimuli/tools_uppercase.png","stimuli/stim006_animate_bird_2.png","290"
"html-button-response-mod","300","791103","0.0-300.0","74229","","","","","","triplet","1062","","","","2","stimuli/stim013_inanimate_boats_1.png","stimuli/bird_lowercase.png","stimuli/tree_lowercase.png","291"
"html-button-response-mod","301","794132","0.0-301.0","74229","","","","","","triplet","2518.7999999970198","","","","1","stimuli/stim009_animate_face_1.png","stimuli/tree_uppercase.png","stimuli/stim024_inanimate_tools_4.png","292"
"html-button-response-mod","302","796248","0.0-302.0","74229","","","","","","triplet","1606.7999999970198","","","","0","stimuli/tools_uppercase.png","stimuli/stim006_animate_bird_2.png","stimuli/stim012_animate_face_4.png","293"
"html-button-response-mod","303","797709","0.0-303.0","74229","","","","","","triplet","953.9000000059605","","","","2","stimuli/stim007_animate_bird_3.png","stimuli/tree_lowercase.png","stimuli/tools_lowercase.png","294"
"html-button-response-mod","304","799471","0.0-304.0","74229","","","","","","triplet","1251.9000000059605","","","","0","stimuli/tree_uppercase.png","stimuli/tools_lowercase.png","stimuli/stim014_inanimate_boats_2.png","295"
"html-button-response-mod","305","801191","0.0-305.0","74229","","","","","","triplet","1212.3999999910593","","","","2","stimuli/stim020_inanimate_tree_4.png","stimuli/stim013_inanimate_boats_1.png","stimuli/stim024_inanimate_tools_4.png","296"
"html-button-response-mod","306","802887","0.0-306.0","74229","","","","","","triplet","1185.9000000059605","","","","2","stimuli/stim023_inanimate_tools_3.png","stimuli/boats_lowercase.png","stimuli/stim017_inanimate_tree_1.png","297"
"html-button-response-mod","307","804737","0.0-307.0","74229","","","","","","triplet","1339.7999999970198","","","","2","stimuli/stim007_animate_bird_3.png","stimuli/stim006_animate_bird_2.png","stimuli/bird_lowercase.png","298"
"html-button-response-mod","308","806554","0.0-308.0","74229","","","","","","triplet","1309.0999999940395","","","","2","stimuli/tools_lowercase.png","stimuli/fish_uppercase.png","stimuli/boats_uppercase.png","299"
"html-button-response","309","807695","0.0-309.0","74229","","","","","","break","633.2999999970198","<p>BREAK</p><p>Take a break for as long as you need</p><p>Click the button to continue</p>","0","","","","","",""
"html-button-response-mod","310","809398","0.0-310.0","74229","","","","","","triplet","1699.9000000059605","","","","0","stimuli/stim002_animate_fish_2.png","stimuli/boats_uppercase.png","stimuli/stim016_inanimate_boats_4.png","300"
"html-button-response-mod","311","810811","0.0-311.0","74229","","","","","","triplet","902.9000000059605","","","","1","stimuli/stim005_animate_bird_1.png","stimuli/stim009_animate_face_1.png","stimuli/bird_lowercase.png","301"
"html-button-response-mod","312","813024","0.0-312.0","74229","","","","","","triplet","1704.2999999970198","","","","0","stimuli/tools_lowercase.png","stimuli/stim011_animate_face_3.png","stimuli/stim015_inanimate_boats_3.png","302"
"html-button-response-mod","313","814616","0.0-313.0","74229","","","","","","triplet","1081","","","","2","stimuli/stim011_animate_face_3.png","stimuli/stim007_animate_bird_3.png","stimuli/tree_lowercase.png","303"
"html-button-response-mod","314","816441","0.0-314.0","74229","","","","","","triplet","1314.7000000029802","","","","0","stimuli/stim018_inanimate_tree_2.png","stimuli/face_lowercase.png","stimuli/stim007_animate_bird_3.png","304"
"html-button-response-mod","315","818470","0.0-315.0","74229","","","","","","triplet","1522.4000000059605","","","","1","stimuli/stim008_animate_bird_4.png","stimuli/fish_lowercase.png","stimuli/bird_lowercase.png","305"
"html-button-response-mod","316","820471","0.0-316.0","74229","","","","","","triplet","1491.2000000029802","","","","2","stimuli/tools_lowercase.png","stimuli/stim019_inanimate_tree_3.png","stimuli/face_lowercase.png","306"
"html-button-response-mod","317","822362","0.0-317.0","74229","","","","","","triplet","1380.5","","","","0","stimuli/tree_uppercase.png","stimuli/stim018_inanimate_tree_2.png","stimuli/stim011_animate_face_3.png","307"
"html-button-response-mod","318","824292","0.0-318.0","74229","","","","","","triplet","1422.5","","","","1","stimuli/stim012_animate_face_4.png","stimuli/boats_lowercase.png","stimuli/stim015_inanimate_boats_3.png","308"
"html-button-response-mod","319","826077","0.0-319.0","74229","","","","","","triplet","1275","","","","0","stimuli/stim022_inanimate_tools_2.png","stimuli/tree_uppercase.png","stimuli/stim014_inanimate_boats_2.png","309"
"html-button-response-mod","320","827595","0.0-320.0","74229","","","","","","triplet","1008.7000000029802","","","","2","stimuli/stim022_inanimate_tools_2.png","stimuli/stim009_animate_face_1.png","stimuli/tools_uppercase.png","310"
"html-button-response-mod","321","829405","0.0-321.0","74229","","","","","","triplet","1300.2999999970198","","","","0","stimuli/stim009_animate_face_1.png","stimuli/stim007_animate_bird_3.png","stimuli/stim014_inanimate_boats_2.png","311"
"html-button-response-mod","322","830964","0.0-322.0","74229","","","","","","triplet","1053.199999988079","","","","2","stimuli/stim022_inanimate_tools_2.png","stimuli/stim020_inanimate_tree_4.png","stimuli/bird_lowercase.png","312"
"html-button-response-mod","323","832950","0.0-323.0","74229","","","","","","triplet","1480.6000000089407","","","","2","stimuli/tree_uppercase.png","stimuli/stim023_inanimate_tools_3.png","stimuli/bird_lowercase.png","313"
"html-button-response-mod","324","835237","0.0-324.0","74229","","","","","","triplet","1776.7000000029802","","","","0","stimuli/stim019_inanimate_tree_3.png","stimuli/boats_uppercase.png","stimuli/fish_uppercase.png","314"
"html-button-response-mod","325","837385","0.0-325.0","74229","","","","","","triplet","1638.7000000029802","","","","1","stimuli/stim020_inanimate_tree_4.png","stimuli/tools_uppercase.png","stimuli/bird_uppercase.png","315"
"html-button-response-mod","326","839244","0.0-326.0","74229","","","","","","triplet","1348.2000000029802","","","","0","stimuli/stim012_animate_face_4.png","stimuli/stim003_animate_fish_3.png","stimuli/stim014_inanimate_boats_2.png","316"
"html-button-response-mod","327","843338","0.0-327.0","74229","","","","","","triplet","3584.5","","","","2","stimuli/stim022_inanimate_tools_2.png","stimuli/stim004_animate_fish_4.png","stimuli/face_lowercase.png","317"
"html-button-response-mod","328","844946","0.0-328.0","74229","","","","","","triplet","1102.800000011921","","","","2","stimuli/stim024_inanimate_tools_4.png","stimuli/stim006_animate_bird_2.png","stimuli/boats_lowercase.png","318"
"html-button-response-mod","329","846593","0.0-329.0","74229","","","","","","triplet","1140.1000000089407","","","","2","stimuli/stim002_animate_fish_2.png","stimuli/fish_uppercase.png","stimuli/stim012_animate_face_4.png","319"
"html-button-response-mod","330","848911","0.0-330.0","74229","","","","","","triplet","1809.7999999970198","","","","1","stimuli/tree_lowercase.png","stimuli/stim014_inanimate_boats_2.png","stimuli/stim006_animate_bird_2.png","320"
"html-button-response-mod","331","853055","0.0-331.0","74229","","","","","","triplet","3634.4000000059605","","","","2","stimuli/stim010_animate_face_2.png","stimuli/tools_lowercase.png","stimuli/stim006_animate_bird_2.png","321"
"html-button-response-mod","332","855236","0.0-332.0","74229","","","","","","triplet","1673.2999999970198","","","","0","stimuli/face_uppercase.png","stimuli/stim024_inanimate_tools_4.png","stimuli/stim013_inanimate_boats_1.png","322"
"html-button-response-mod","333","857529","0.0-333.0","74229","","","","","","triplet","1783.199999988079","","","","1","stimuli/bird_lowercase.png","stimuli/stim022_inanimate_tools_2.png","stimuli/tree_lowercase.png","323"
"html-button-response-mod","334","859791","0.0-334.0","74229","","","","","","triplet","1755.6000000089407","","","","2","stimuli/stim013_inanimate_boats_1.png","stimuli/stim016_inanimate_boats_4.png","stimuli/fish_lowercase.png","324"
"html-button-response-mod","335","862094","0.0-335.0","74229","","","","","","triplet","1794","","","","0","stimuli/stim012_animate_face_4.png","stimuli/tools_uppercase.png","stimuli/stim023_inanimate_tools_3.png","325"
"html-button-response-mod","336","864113","0.0-336.0","74229","","","","","","triplet","1509.2999999970198","","","","0","stimuli/face_uppercase.png","stimuli/stim019_inanimate_tree_3.png","stimuli/stim020_inanimate_tree_4.png","326"
"html-button-response-mod","337","865995","0.0-337.0","74229","","","","","","triplet","1373.2000000029802","","","","2","stimuli/stim023_inanimate_tools_3.png","stimuli/stim013_inanimate_boats_1.png","stimuli/stim012_animate_face_4.png","327"
"html-button-response-mod","338","867836","0.0-338.0","74229","","","","","","triplet","1336","","","","2","stimuli/stim018_inanimate_tree_2.png","stimuli/bird_lowercase.png","stimuli/stim016_inanimate_boats_4.png","328"
"html-button-response-mod","339","870292","0.0-339.0","74229","","","","","","triplet","1948.4000000059605","","","","0","stimuli/stim003_animate_fish_3.png","stimuli/stim010_animate_face_2.png","stimuli/stim009_animate_face_1.png","329"
"html-button-response-mod","340","872974","0.0-340.0","74229","","","","","","triplet","2173.8999999910593","","","","0","stimuli/stim002_animate_fish_2.png","stimuli/bird_lowercase.png","stimuli/stim019_inanimate_tree_3.png","330"
"html-button-response-mod","341","875381","0.0-341.0","74229","","","","","","triplet","1897.5999999940395","","","","1","stimuli/stim007_animate_bird_3.png","stimuli/tools_uppercase.png","stimuli/stim009_animate_face_1.png","331"
"html-button-response-mod","342","883815","0.0-342.0","74229","","","","","","triplet","7926.70000000298","","","","2","stimuli/boats_uppercase.png","stimuli/tools_lowercase.png","stimuli/stim010_animate_face_2.png","332"
"html-button-response-mod","343","887885","0.0-343.0","74229","","","","","","triplet","3561.2000000029802","","","","0","stimuli/stim005_animate_bird_1.png","stimuli/boats_uppercase.png","stimuli/stim017_inanimate_tree_1.png","333"
"html-button-response-mod","344","890188","0.0-344.0","74229","","","","","","triplet","1793","","","","0","stimuli/bird_uppercase.png","stimuli/stim006_animate_bird_2.png","stimuli/stim005_animate_bird_1.png","334"
"html-button-response-mod","345","892151","0.0-345.0","74229","","","","","","triplet","1453","","","","1","stimuli/stim003_animate_fish_3.png","stimuli/tools_lowercase.png","stimuli/stim008_animate_bird_4.png","335"
"html-button-response-mod","346","894550","0.0-346.0","74229","","","","","","triplet","1889.1000000089407","","","","0","stimuli/tools_uppercase.png","stimuli/stim003_animate_fish_3.png","stimuli/boats_lowercase.png","336"
"html-button-response-mod","347","896311","0.0-347.0","74229","","","","","","triplet","1252.0999999940395","","","","1","stimuli/stim022_inanimate_tools_2.png","stimuli/stim013_inanimate_boats_1.png","stimuli/stim009_animate_face_1.png","337"
"html-button-response-mod","348","897740","0.0-348.0","74229","","","","","","triplet","922.5999999940395","","","","2","stimuli/stim019_inanimate_tree_3.png","stimuli/tree_uppercase.png","stimuli/stim010_animate_face_2.png","338"
"html-button-response-mod","349","900067","0.0-349.0","74229","","","","","","triplet","1819.199999988079","","","","1","stimuli/face_uppercase.png","stimuli/stim021_inanimate_tools_1.png","stimuli/fish_uppercase.png","339"
"html-button-response-mod","350","901933","0.0-350.0","74229","","","","","","triplet","1356.9000000059605","","","","0","stimuli/stim014_inanimate_boats_2.png","stimuli/stim010_animate_face_2.png","stimuli/tree_lowercase.png","340"
"html-button-response-mod","351","903847","0.0-351.0","74229","","","","","","triplet","1406.3999999910593","","","","0","stimuli/stim010_animate_face_2.png","stimuli/stim004_animate_fish_4.png","stimuli/stim007_animate_bird_3.png","341"
"html-button-response-mod","352","905567","0.0-352.0","74229","","","","","","triplet","1209.3999999910593","","","","0","stimuli/face_lowercase.png","stimuli/boats_lowercase.png","stimuli/stim016_inanimate_boats_4.png","342"
"html-button-response-mod","353","907667","0.0-353.0","74229","","","","","","triplet","1589.7999999970198","","","","0","stimuli/stim017_inanimate_tree_1.png","stimuli/face_lowercase.png","stimuli/stim024_inanimate_tools_4.png","343"
"html-button-response-mod","354","909299","0.0-354.0","74229","","","","","","triplet","1121.5","","","","2","stimuli/stim008_animate_bird_4.png","stimuli/stim002_animate_fish_2.png","stimuli/stim010_animate_face_2.png","344"
"html-button-response-mod","355","910898","0.0-355.0","74229","","","","","","triplet","1089","","","","2","stimuli/stim018_inanimate_tree_2.png","stimuli/stim016_inanimate_boats_4.png","stimuli/fish_uppercase.png","345"
"html-button-response-mod","356","912328","0.0-356.0","74229","","","","","","triplet","923.1000000089407","","","","2","stimuli/stim003_animate_fish_3.png","stimuli/stim004_animate_fish_4.png","stimuli/boats_lowercase.png","346"
"html-button-response-mod","357","913960","0.0-357.0","74229","","","","","","triplet","1126","","","","2","stimuli/stim006_animate_bird_2.png","stimuli/bird_uppercase.png","stimuli/boats_lowercase.png","347"
"html-button-response-mod","358","915672","0.0-358.0","74229","","","","","","triplet","1204.5","","","","1","stimuli/fish_lowercase.png","stimuli/stim012_animate_face_4.png","stimuli/stim020_inanimate_tree_4.png","348"
"html-button-response-mod","359","917239","0.0-359.0","74229","","","","","","triplet","1060.1000000089407","","","","2","stimuli/boats_lowercase.png","stimuli/stim015_inanimate_boats_3.png","stimuli/tree_uppercase.png","349"
"html-button-response","360","919550","0.0-360.0","74229","","","","","","break","1800.800000011921","<p>BREAK</p><p>Take a break for as long as you need</p><p>Click the button to continue</p>","0","","","","","",""
"html-button-response-mod","361","920939","0.0-361.0","74229","","","","","","triplet","1386.2000000029802","","","","2","stimuli/stim007_animate_bird_3.png","stimuli/stim003_animate_fish_3.png","stimuli/stim016_inanimate_boats_4.png","350"
"html-button-response-mod","362","922392","0.0-362.0","74229","","","","","","triplet","947.8999999910593","","","","1","stimuli/fish_uppercase.png","stimuli/tools_lowercase.png","stimuli/stim002_animate_fish_2.png","351"
"html-button-response-mod","363","925026","0.0-363.0","74229","","","","","","triplet","2127.0999999940395","","","","2","stimuli/stim016_inanimate_boats_4.png","stimuli/stim003_animate_fish_3.png","stimuli/stim019_inanimate_tree_3.png","352"
"html-button-response-mod","364","927159","0.0-364.0","74229","","","","","","triplet","1628.2999999970198","","","","2","stimuli/bird_lowercase.png","stimuli/bird_uppercase.png","stimuli/boats_lowercase.png","353"
"html-button-response-mod","365","929194","0.0-365.0","74229","","","","","","triplet","1527.8999999910593","","","","2","stimuli/stim016_inanimate_boats_4.png","stimuli/boats_lowercase.png","stimuli/stim018_inanimate_tree_2.png","354"
"html-button-response-mod","366","932094","0.0-366.0","74229","","","","","","triplet","2390.5","","","","1","stimuli/fish_uppercase.png","stimuli/tree_lowercase.png","stimuli/tree_uppercase.png","355"
"html-button-response-mod","367","934703","0.0-367.0","74229","","","","","","triplet","2098.8999999910593","","","","1","stimuli/fish_uppercase.png","stimuli/face_uppercase.png","stimuli/stim016_inanimate_boats_4.png","356"
"html-button-response-mod","368","936505","0.0-368.0","74229","","","","","","triplet","1291.5","","","","2","stimuli/stim013_inanimate_boats_1.png","stimuli/stim004_animate_fish_4.png","stimuli/stim021_inanimate_tools_1.png","357"
"html-button-response-mod","369","938210","0.0-369.0","74229","","","","","","triplet","1194.2000000029802","","","","2","stimuli/stim001_animate_fish_1.png","stimuli/stim003_animate_fish_3.png","stimuli/tree_lowercase.png","358"
"html-button-response-mod","370","939751","0.0-370.0","74229","","","","","","triplet","1031.2000000029802","","","","2","stimuli/stim003_animate_fish_3.png","stimuli/stim019_inanimate_tree_3.png","stimuli/stim021_inanimate_tools_1.png","359"
"html-button-response-mod","371","941214","0.0-371.0","74229","","","","","","triplet","955.7999999970198","","","","0","stimuli/stim023_inanimate_tools_3.png","stimuli/stim001_animate_fish_1.png","stimuli/stim007_animate_bird_3.png","360"
"html-button-response-mod","372","943072","0.0-372.0","74229","","","","","","triplet","1348.7999999970198","","","","2","stimuli/stim018_inanimate_tree_2.png","stimuli/stim008_animate_bird_4.png","stimuli/stim015_inanimate_boats_3.png","361"
"html-button-response-mod","373","944994","0.0-373.0","74229","","","","","","triplet","1412.1000000089407","","","","2","stimuli/tools_uppercase.png","stimuli/stim010_animate_face_2.png","stimuli/stim003_animate_fish_3.png","362"
"html-button-response-mod","374","946626","0.0-374.0","74229","","","","","","triplet","1122.199999988079","","","","2","stimuli/tools_uppercase.png","stimuli/stim013_inanimate_boats_1.png","stimuli/stim001_animate_fish_1.png","363"
"html-button-response-mod","375","948647","0.0-375.0","74229","","","","","","triplet","1509.5999999940395","","","","0","stimuli/fish_uppercase.png","stimuli/stim016_inanimate_boats_4.png","stimuli/stim017_inanimate_tree_1.png","364"
"html-button-response-mod","376","950133","0.0-376.0","74229","","","","","","triplet","980.0999999940395","","","","2","stimuli/bird_uppercase.png","stimuli/stim007_animate_bird_3.png","stimuli/stim022_inanimate_tools_2.png","365"
"html-button-response-mod","377","952127","0.0-377.0","74229","","","","","","triplet","1485.2999999970198","","","","0","stimuli/boats_lowercase.png","stimuli/stim024_inanimate_tools_4.png","stimuli/stim022_inanimate_tools_2.png","366"
"html-button-response-mod","378","954171","0.0-378.0","74229","","","","","","triplet","1537.800000011921","","","","0","stimuli/stim012_animate_face_4.png","stimuli/boats_lowercase.png","stimuli/bird_uppercase.png","367"
"html-button-response-mod","379","956085","0.0-379.0","74229","","","","","","triplet","1403.0999999940395","","","","2","stimuli/bird_lowercase.png","stimuli/stim019_inanimate_tree_3.png","stimuli/tree_lowercase.png","368"
"html-button-response-mod","380","958598","0.0-380.0","74229","","","","","","triplet","2002.4000000059605","","","","2","stimuli/fish_lowercase.png","stimuli/face_lowercase.png","stimuli/stim024_inanimate_tools_4.png","369"
"html-button-response-mod","381","960512","0.0-381.0","74229","","","","","","triplet","1405.7000000029802","","","","1","stimuli/bird_uppercase.png","stimuli/stim015_inanimate_boats_3.png","stimuli/tree_lowercase.png","370"
"html-button-response-mod","382","962119","0.0-382.0","74229","","","","","","triplet","1102.7000000029802","","","","0","stimuli/stim009_animate_face_1.png","stimuli/stim006_animate_bird_2.png","stimuli/stim003_animate_fish_3.png","371"
"html-button-response-mod","383","964187","0.0-383.0","74229","","","","","","triplet","1563.5","","","","1","stimuli/boats_uppercase.png","stimuli/stim002_animate_fish_2.png","stimuli/stim014_inanimate_boats_2.png","372"
"html-button-response-mod","384","965940","0.0-384.0","74229","","","","","","triplet","1243.4000000059605","","","","1","stimuli/stim023_inanimate_tools_3.png","stimuli/stim012_animate_face_4.png","stimuli/tools_lowercase.png","373"
"html-button-response-mod","385","968299","0.0-385.0","74229","","","","","","triplet","1851","","","","0","stimuli/stim024_inanimate_tools_4.png","stimuli/fish_uppercase.png","stimuli/boats_uppercase.png","374"
"html-button-response-mod","386","970182","0.0-386.0","74229","","","","","","triplet","1374.6000000089407","","","","0","stimuli/stim008_animate_bird_4.png","stimuli/stim012_animate_face_4.png","stimuli/stim024_inanimate_tools_4.png","375"
"html-button-response-mod","387","972653","0.0-387.0","74229","","","","","","triplet","1961.5999999940395","","","","2","stimuli/tree_uppercase.png","stimuli/bird_uppercase.png","stimuli/fish_uppercase.png","376"
"html-button-response-mod","388","975886","0.0-388.0","74229","","","","","","triplet","2725.9000000059605","","","","2","stimuli/tree_uppercase.png","stimuli/tools_lowercase.png","stimuli/stim013_inanimate_boats_1.png","377"
"html-button-response-mod","389","977945","0.0-389.0","74229","","","","","","triplet","1549.9000000059605","","","","2","stimuli/stim024_inanimate_tools_4.png","stimuli/stim009_animate_face_1.png","stimuli/tree_lowercase.png","378"
"html-button-response-mod","390","980368","0.0-390.0","74229","","","","","","triplet","1917.5","","","","1","stimuli/stim001_animate_fish_1.png","stimuli/stim021_inanimate_tools_1.png","stimuli/stim008_animate_bird_4.png","379"
"html-button-response-mod","391","982525","0.0-391.0","74229","","","","","","triplet","1646.699999988079","","","","0","stimuli/stim002_animate_fish_2.png","stimuli/stim011_animate_face_3.png","stimuli/face_lowercase.png","380"
"html-button-response-mod","392","984690","0.0-392.0","74229","","","","","","triplet","1658","","","","1","stimuli/face_uppercase.png","stimuli/fish_uppercase.png","stimuli/stim009_animate_face_1.png","381"
"html-button-response-mod","393","987444","0.0-393.0","74229","","","","","","triplet","2244.1000000089407","","","","2","stimuli/boats_uppercase.png","stimuli/stim001_animate_fish_1.png","stimuli/tools_uppercase.png","382"
"html-button-response-mod","394","988996","0.0-394.0","74229","","","","","","triplet","1041.5","","","","2","stimuli/stim021_inanimate_tools_1.png","stimuli/stim022_inanimate_tools_2.png","stimuli/fish_lowercase.png","383"
"html-button-response-mod","395","990876","0.0-395.0","74229","","","","","","triplet","1373.7000000029802","","","","2","stimuli/stim003_animate_fish_3.png","stimuli/stim023_inanimate_tools_3.png","stimuli/stim012_animate_face_4.png","384"
"html-button-response-mod","396","992791","0.0-396.0","74229","","","","","","triplet","1404.2999999970198","","","","0","stimuli/tools_lowercase.png","stimuli/stim020_inanimate_tree_4.png","stimuli/stim012_animate_face_4.png","385"
"html-button-response-mod","397","994512","0.0-397.0","74229","","","","","","triplet","1211","","","","2","stimuli/bird_lowercase.png","stimuli/stim007_animate_bird_3.png","stimuli/stim013_inanimate_boats_1.png","386"
"html-button-response-mod","398","996297","0.0-398.0","74229","","","","","","triplet","1274.4000000059605","","","","2","stimuli/stim021_inanimate_tools_1.png","stimuli/fish_uppercase.png","stimuli/stim010_animate_face_2.png","387"
"html-button-response-mod","399","998130","0.0-399.0","74229","","","","","","triplet","1323","","","","2","stimuli/stim011_animate_face_3.png","stimuli/face_lowercase.png","stimuli/boats_uppercase.png","388"
"html-button-response-mod","400","1000246","0.0-400.0","74229","","","","","","triplet","1606","","","","1","stimuli/face_lowercase.png","stimuli/stim022_inanimate_tools_2.png","stimuli/boats_uppercase.png","389"
"html-button-response-mod","401","1001967","0.0-401.0","74229","","","","","","triplet","1210.5","","","","1","stimuli/face_lowercase.png","stimuli/stim004_animate_fish_4.png","stimuli/boats_lowercase.png","390"
"html-button-response-mod","402","1004730","0.0-402.0","74229","","","","","","triplet","2257.4000000059605","","","","2","stimuli/bird_lowercase.png","stimuli/stim006_animate_bird_2.png","stimuli/tree_uppercase.png","391"
"html-button-response-mod","403","1006127","0.0-403.0","74229","","","","","","triplet","886.2999999970198","","","","0","stimuli/stim014_inanimate_boats_2.png","stimuli/stim018_inanimate_tree_2.png","stimuli/stim019_inanimate_tree_3.png","392"
"html-button-response-mod","404","1007758","0.0-404.0","74229","","","","","","triplet","1121.2999999970198","","","","1","stimuli/stim008_animate_bird_4.png","stimuli/stim009_animate_face_1.png","stimuli/bird_uppercase.png","393"
"html-button-response-mod","405","1009503","0.0-405.0","74229","","","","","","triplet","1239.2999999970198","","","","1","stimuli/stim024_inanimate_tools_4.png","stimuli/stim014_inanimate_boats_2.png","stimuli/stim001_animate_fish_1.png","394"
"html-button-response-mod","406","1010950","0.0-406.0","74229","","","","","","triplet","936.2000000029802","","","","1","stimuli/stim017_inanimate_tree_1.png","stimuli/face_uppercase.png","stimuli/stim016_inanimate_boats_4.png","395"
"html-button-response-mod","407","1012872","0.0-407.0","74229","","","","","","triplet","1411.0999999940395","","","","0","stimuli/stim019_inanimate_tree_3.png","stimuli/stim009_animate_face_1.png","stimuli/stim010_animate_face_2.png","396"
"html-button-response-mod","408","1015279","0.0-408.0","74229","","","","","","triplet","1897.0999999940395","","","","2","stimuli/fish_uppercase.png","stimuli/boats_lowercase.png","stimuli/stim024_inanimate_tools_4.png","397"
"html-button-response-mod","409","1017275","0.0-409.0","74229","","","","","","triplet","1488.5","","","","1","stimuli/stim010_animate_face_2.png","stimuli/fish_uppercase.png","stimuli/face_uppercase.png","398"
"html-button-response-mod","410","1019166","0.0-410.0","74229","","","","","","triplet","1385","","","","1","stimuli/stim007_animate_bird_3.png","stimuli/stim012_animate_face_4.png","stimuli/tree_uppercase.png","399"
"html-button-response","411","1020829","0.0-411.0","74229","","","","","","break","1154.5","<p>BREAK</p><p>Take a break for as long as you need</p><p>Click the button to continue</p>","0","","","","","",""
"survey-text","412","1065584","0.0-412.0","74229","","","","","","data_patterns","44723.79999999702","","{""Q0"":""instinct""}","","","","","",""
"survey-text","413","1067942","0.0-413.0","74229","","","","","","age_question","2352.7999999970198","","{""Age"":""23""}","","","","","",""
"html-button-response","414","1071197","0.0-414.0","74229","","","","","","gender_question","3251.4000000059605","How would you like your gender to be recorded?","0","","","","","",""
"html-button-response","415","1082494","0.0-415.0","74229","","","","","","debrief","11293.90000000596","<p> Thank you for participating in this experiment! </p><p> We are investigating the dimensions along which you perceive the world </p><p>The images were all sorted according to whether they are animate or not, and </p><p> whether they are text or images. We are comparing this to some neuroimaging data to see </p> how your conscious classification relates to how your brain classifies the objects automatically. </p>","0","1087089.100000009","","","","",""
