"trial_type","trial_index","time_elapsed","internal_node_id","subject","success","timeout","failed_images","failed_audio","failed_video","test_part","rt","stimulus","response","end_time","button_pressed","stim0","stim1","stim2","trialnr"
"pavlovia","0","8","0.0-0.0","73730","","","","","","","","","","","","","","",""
"preload","1","2521","0.0-1.0","73730","true","false","[]","[]","[]","preload","","","","","","","","",""
"html-button-response","2","8286","0.0-2.0","73730","","","","","","","5762","<p>Welcome to the experiment. To begin, please read the following and press the button at the bottom of the screen.</p><p></p><p><strong>Project Name: A study on cognitive processes involved in visual perception</p></strong><p></p><p><strong>PARTICIPANT INFORMATION STATEMENT</strong></p><p></p><strong>(1) What is the study about?</strong><br>You are invited to participate in a study that investigates the cognitive processes involved in perceiving and recognizing visual stimuli.If you decide to participate, you will be asked to complete a task in which you will view pictures, letters, numbers, or words presented on a computer screen.<br><strong>(2) Who can participate?</strong><br>Anyone aged 18 years or over with access to a computer (not a phone/tablet)<br><strong>(3) Where is the study located?</strong><br>The study will be conducted in your browser<br><strong>(4) Who is carrying out the study?</strong><br>The study is being conducted by Sophia Shatek from the Computational Cognitive Neuroscience laboratory at the University of Sydney.<br><strong>(5) What does the study involve?</strong><br>In this study, you will be asked to perform tasks where you will see different stimuli appear on the computer screen.You will respond by pressing a key or using a computer mouse.<br><strong>(6) How much time will the study take?</strong><br>The study takes about 30 minutes<br><strong>(7)	Can I withdraw from the study?</strong><br>Being in this study is completely voluntary - you are not under any obligation to consent. You can withdraw at any time without having to give a reason and without penalty.<br><strong>(8) Will anyone else know the results?</strong><br>All aspects of the study, including results, will be strictly confidential and only the researchers will have access to information on participants.The results and data from the study may be submitted for publication or shared with other research labs, but individual participants will not be identifiable.<br><strong>(9) Will the study benefit me?</strong><br>You will be awarded 0.5 credits for your participation.<br><strong>(10) Can I tell other people about the study?</strong><br>Yes, please tell them to contact Dr Thomas Carlson by email at thomas.carlson@sydney.edu.au.<br><strong>(11) What if I require further information about the study or my involvement in it?</strong><br>When you have read this information, the investigator will discuss it with you further and answer any questions you may have.If you would like to know more at any stage, please feel free to contact Dr Thomas Carlson directly by email at thomas.carlson@sydney.edu.au.If you would like to be informed about the outcomes of the study, contact Dr Thomas Carlson directly by email at thomas.carlson@sydney.edu.au.<br><strong>(12) What if I have a complaint or any concerns?</strong><br>Any person with concerns or complaints about the conduct of a research study can contact The Manager,Human Ethics Administration, University of Sydney on +61 2 8627 8176 (Telephone); +61 2 8627 8177 (Facsimile) or ro.humanethics@sydney.edu.au (Email).</p><p></p><strong>By participating in this experiment, you consent to participate in this study and acknowledge that:</strong><br>1. The procedures required for the project and the times involved have been explained to me, and any questions I have about the project have been answered to my satisfaction.<br>2.	I have read the Above Information Statement and have been given the opportunity to discuss the information and my involvement in the project with the researcher/s.<br>3. I understand that allowing my data to be used in research reports is completely voluntary - I am not under any obligation to consent.<br>4. I understand that my involvement is strictly confidential. I understand that any research data gathered from the results of the study may be publishedhowever no information about me will be used in any way that is identifiable.</p><p></p>","0","","","","","",""
"html-button-response","3","33195","0.0-3.0","73730","","","","","","opening_instructions","24907.300000000745","<p>In this experiment, you will see three images appear on the screen.</p><p>You need to click the 'odd one out', or the image </p><p>that is MOST CONCEPTUALLY DIFFERENT to the other two. </p><p>(e.g., the word 'tree' and a picture of a tree are conceptually SIMILAR, </p><p> but the word 'tree' and the word 'boat' are conceptually DIFFERENT even though they look similar) </p><p>Just go with your intuition, don't spend too long thinking about each one.</p>","0","37908.300000000745","","","","",""
"html-button-response-mod","4","37620","0.0-4.0","73730","","","","","","triplet","4423.199999999255","","","","0","stimuli/stim015_inanimate_boats_3.png","stimuli/tools_lowercase.png","stimuli/stim023_inanimate_tools_3.png","0"
"html-button-response-mod","5","45138","0.0-5.0","73730","","","","","","triplet","7016.9000000003725","","","","0","stimuli/stim023_inanimate_tools_3.png","stimuli/stim004_animate_fish_4.png","stimuli/stim018_inanimate_tree_2.png","1"
"html-button-response-mod","6","49054","0.0-6.0","73730","","","","","","triplet","3412.5999999996275","","","","0","stimuli/boats_lowercase.png","stimuli/bird_uppercase.png","stimuli/stim004_animate_fish_4.png","2"
"html-button-response-mod","7","54913","0.0-7.0","73730","","","","","","triplet","5355.299999998882","","","","0","stimuli/tools_uppercase.png","stimuli/stim012_animate_face_4.png","stimuli/stim018_inanimate_tree_2.png","3"
"html-button-response-mod","8","59691","0.0-8.0","73730","","","","","","triplet","4275.0999999996275","","","","2","stimuli/tools_lowercase.png","stimuli/tools_uppercase.png","stimuli/boats_lowercase.png","4"
"html-button-response-mod","9","64180","0.0-9.0","73730","","","","","","triplet","3981.699999999255","","","","0","stimuli/stim013_inanimate_boats_1.png","stimuli/stim017_inanimate_tree_1.png","stimuli/stim012_animate_face_4.png","5"
"html-button-response-mod","10","70323","0.0-10.0","73730","","","","","","triplet","5637.0999999996275","","","","2","stimuli/face_lowercase.png","stimuli/stim008_animate_bird_4.png","stimuli/stim013_inanimate_boats_1.png","6"
"html-button-response-mod","11","73844","0.0-11.0","73730","","","","","","triplet","3018.2999999988824","","","","2","stimuli/fish_lowercase.png","stimuli/stim001_animate_fish_1.png","stimuli/tree_uppercase.png","7"
"html-button-response-mod","12","75781","0.0-12.0","73730","","","","","","triplet","1430.5","","","","1","stimuli/stim018_inanimate_tree_2.png","stimuli/stim015_inanimate_boats_3.png","stimuli/stim020_inanimate_tree_4.png","8"
"html-button-response-mod","13","81215","0.0-13.0","73730","","","","","","triplet","4927.300000000745","","","","0","stimuli/stim008_animate_bird_4.png","stimuli/boats_uppercase.png","stimuli/stim014_inanimate_boats_2.png","9"
"html-button-response-mod","14","84494","0.0-14.0","73730","","","","","","triplet","2773","","","","1","stimuli/stim018_inanimate_tree_2.png","stimuli/boats_lowercase.png","stimuli/stim001_animate_fish_1.png","10"
"html-button-response-mod","15","86535","0.0-15.0","73730","","","","","","triplet","1539.1000000014901","","","","2","stimuli/stim020_inanimate_tree_4.png","stimuli/stim018_inanimate_tree_2.png","stimuli/bird_lowercase.png","11"
"html-button-response-mod","16","88707","0.0-16.0","73730","","","","","","triplet","1665.7999999988824","","","","2","stimuli/face_lowercase.png","stimuli/stim009_animate_face_1.png","stimuli/boats_uppercase.png","12"
"html-button-response-mod","17","93858","0.0-17.0","73730","","","","","","triplet","4645.89999999851","","","","0","stimuli/stim009_animate_face_1.png","stimuli/stim018_inanimate_tree_2.png","stimuli/stim002_animate_fish_2.png","13"
"html-button-response-mod","18","98888","0.0-18.0","73730","","","","","","triplet","4523.5","","","","1","stimuli/stim009_animate_face_1.png","stimuli/boats_uppercase.png","stimuli/fish_lowercase.png","14"
"html-button-response-mod","19","107002","0.0-19.0","73730","","","","","","triplet","7611.9000000003725","","","","1","stimuli/tree_uppercase.png","stimuli/stim014_inanimate_boats_2.png","stimuli/stim012_animate_face_4.png","15"
"html-button-response-mod","20","109602","0.0-20.0","73730","","","","","","triplet","2093.7000000011176","","","","1","stimuli/stim001_animate_fish_1.png","stimuli/bird_lowercase.png","stimuli/fish_uppercase.png","16"
"html-button-response-mod","21","114939","0.0-21.0","73730","","","","","","triplet","4830","","","","0","stimuli/face_lowercase.png","stimuli/fish_lowercase.png","stimuli/bird_lowercase.png","17"
"html-button-response-mod","22","118071","0.0-22.0","73730","","","","","","triplet","2624.89999999851","","","","1","stimuli/stim003_animate_fish_3.png","stimuli/bird_lowercase.png","stimuli/stim017_inanimate_tree_1.png","18"
"html-button-response-mod","23","122956","0.0-23.0","73730","","","","","","triplet","4380.799999998882","","","","1","stimuli/stim020_inanimate_tree_4.png","stimuli/fish_lowercase.png","stimuli/stim021_inanimate_tools_1.png","19"
"html-button-response-mod","24","124906","0.0-24.0","73730","","","","","","triplet","1447.9000000003725","","","","0","stimuli/tools_lowercase.png","stimuli/fish_uppercase.png","stimuli/stim001_animate_fish_1.png","20"
"html-button-response-mod","25","128043","0.0-25.0","73730","","","","","","triplet","2633.9000000003725","","","","2","stimuli/stim010_animate_face_2.png","stimuli/stim011_animate_face_3.png","stimuli/stim004_animate_fish_4.png","21"
"html-button-response-mod","26","132458","0.0-26.0","73730","","","","","","triplet","3911.5999999996275","","","","1","stimuli/stim019_inanimate_tree_3.png","stimuli/tools_lowercase.png","stimuli/stim002_animate_fish_2.png","22"
"html-button-response-mod","27","135260","0.0-27.0","73730","","","","","","triplet","2296.5","","","","2","stimuli/fish_lowercase.png","stimuli/stim011_animate_face_3.png","stimuli/stim023_inanimate_tools_3.png","23"
"html-button-response-mod","28","137884","0.0-28.0","73730","","","","","","triplet","2120.4000000003725","","","","0","stimuli/stim017_inanimate_tree_1.png","stimuli/stim016_inanimate_boats_4.png","stimuli/boats_uppercase.png","24"
"html-button-response-mod","29","140584","0.0-29.0","73730","","","","","","triplet","2198.9000000003725","","","","2","stimuli/tools_uppercase.png","stimuli/stim013_inanimate_boats_1.png","stimuli/tree_lowercase.png","25"
"html-button-response-mod","30","144777","0.0-30.0","73730","","","","","","triplet","3690.4000000003725","","","","0","stimuli/tree_uppercase.png","stimuli/face_lowercase.png","stimuli/stim010_animate_face_2.png","26"
"html-button-response-mod","31","147378","0.0-31.0","73730","","","","","","triplet","2093.7999999988824","","","","1","stimuli/stim005_animate_bird_1.png","stimuli/stim013_inanimate_boats_1.png","stimuli/tree_lowercase.png","27"
"html-button-response-mod","32","149404","0.0-32.0","73730","","","","","","triplet","1519.699999999255","","","","1","stimuli/stim013_inanimate_boats_1.png","stimuli/stim024_inanimate_tools_4.png","stimuli/bird_lowercase.png","28"
"html-button-response-mod","33","151471","0.0-33.0","73730","","","","","","triplet","1562.2000000011176","","","","0","stimuli/face_uppercase.png","stimuli/stim015_inanimate_boats_3.png","stimuli/fish_uppercase.png","29"
"html-button-response-mod","34","153755","0.0-34.0","73730","","","","","","triplet","1780.199999999255","","","","1","stimuli/stim004_animate_fish_4.png","stimuli/tools_lowercase.png","stimuli/stim001_animate_fish_1.png","30"
"html-button-response-mod","35","157429","0.0-35.0","73730","","","","","","triplet","3169.300000000745","","","","1","stimuli/stim004_animate_fish_4.png","stimuli/stim016_inanimate_boats_4.png","stimuli/stim011_animate_face_3.png","31"
"html-button-response-mod","36","160335","0.0-36.0","73730","","","","","","triplet","2403.5999999996275","","","","2","stimuli/stim005_animate_bird_1.png","stimuli/stim015_inanimate_boats_3.png","stimuli/tools_lowercase.png","32"
"html-button-response-mod","37","161814","0.0-37.0","73730","","","","","","triplet","973.5999999996275","","","","2","stimuli/stim008_animate_bird_4.png","stimuli/stim021_inanimate_tools_1.png","stimuli/boats_lowercase.png","33"
"html-button-response-mod","38","162579","0.0-38.0","73730","","","","","","triplet","263.30000000074506","","","","2","stimuli/stim014_inanimate_boats_2.png","stimuli/stim003_animate_fish_3.png","stimuli/bird_uppercase.png","34"
"html-button-response-mod","39","163782","0.0-39.0","73730","","","","","","triplet","699.3999999985099","","","","2","stimuli/stim024_inanimate_tools_4.png","stimuli/stim014_inanimate_boats_2.png","stimuli/bird_uppercase.png","35"
"html-button-response-mod","40","164614","0.0-40.0","73730","","","","","","triplet","329","","","","2","stimuli/stim007_animate_bird_3.png","stimuli/fish_uppercase.png","stimuli/stim023_inanimate_tools_3.png","36"
"html-button-response-mod","41","165356","0.0-41.0","73730","","","","","","triplet","239","","","","2","stimuli/stim014_inanimate_boats_2.png","stimuli/stim021_inanimate_tools_1.png","stimuli/tree_lowercase.png","37"
"html-button-response-mod","42","166528","0.0-42.0","73730","","","","","","triplet","669.5","","","","2","stimuli/tree_uppercase.png","stimuli/stim002_animate_fish_2.png","stimuli/stim015_inanimate_boats_3.png","38"
"html-button-response-mod","43","167649","0.0-43.0","73730","","","","","","triplet","618.5999999996275","","","","2","stimuli/stim007_animate_bird_3.png","stimuli/tree_uppercase.png","stimuli/stim011_animate_face_3.png","39"
"html-button-response-mod","44","168675","0.0-44.0","73730","","","","","","triplet","520.1999999992549","","","","2","stimuli/tree_uppercase.png","stimuli/stim019_inanimate_tree_3.png","stimuli/stim004_animate_fish_4.png","40"
"html-button-response-mod","45","169482","0.0-45.0","73730","","","","","","triplet","305.2999999988824","","","","1","stimuli/stim023_inanimate_tools_3.png","stimuli/boats_lowercase.png","stimuli/stim009_animate_face_1.png","41"
"html-button-response-mod","46","170298","0.0-46.0","73730","","","","","","triplet","310.09999999962747","","","","1","stimuli/stim009_animate_face_1.png","stimuli/tree_lowercase.png","stimuli/stim007_animate_bird_3.png","42"
"html-button-response-mod","47","171070","0.0-47.0","73730","","","","","","triplet","266.2000000011176","","","","0","stimuli/stim001_animate_fish_1.png","stimuli/fish_uppercase.png","stimuli/bird_uppercase.png","43"
"html-button-response-mod","48","171881","0.0-48.0","73730","","","","","","triplet","308.30000000074506","","","","0","stimuli/stim008_animate_bird_4.png","stimuli/stim014_inanimate_boats_2.png","stimuli/stim010_animate_face_2.png","44"
"html-button-response-mod","49","172792","0.0-49.0","73730","","","","","","triplet","405","","","","2","stimuli/bird_uppercase.png","stimuli/stim017_inanimate_tree_1.png","stimuli/stim008_animate_bird_4.png","45"
"html-button-response-mod","50","173802","0.0-50.0","73730","","","","","","triplet","506.90000000037253","","","","1","stimuli/stim011_animate_face_3.png","stimuli/boats_uppercase.png","stimuli/stim006_animate_bird_2.png","46"
"html-button-response-mod","51","174682","0.0-51.0","73730","","","","","","triplet","377.3999999985099","","","","0","stimuli/stim005_animate_bird_1.png","stimuli/stim002_animate_fish_2.png","stimuli/stim019_inanimate_tree_3.png","47"
"html-button-response-mod","52","176526","0.0-52.0","73730","","","","","","triplet","1338.0999999996275","","","","2","stimuli/stim021_inanimate_tools_1.png","stimuli/tools_uppercase.png","stimuli/stim012_animate_face_4.png","48"
"html-button-response-mod","53","177273","0.0-53.0","73730","","","","","","triplet","243.5","","","","2","stimuli/stim009_animate_face_1.png","stimuli/stim017_inanimate_tree_1.png","stimuli/stim020_inanimate_tree_4.png","49"
"html-button-response","54","178066","0.0-54.0","73730","","","","","","break","290.69999999925494","<p>BREAK</p><p>Take a break for as long as you need</p><p>Click the button to continue</p>","0","","","","","",""
"html-button-response-mod","55","180470","0.0-55.0","73730","","","","","","triplet","2401.9000000003725","","","","1","stimuli/stim013_inanimate_boats_1.png","stimuli/stim004_animate_fish_4.png","stimuli/stim016_inanimate_boats_4.png","50"
"html-button-response-mod","56","181673","0.0-56.0","73730","","","","","","triplet","695.0999999996275","","","","2","stimuli/stim020_inanimate_tree_4.png","stimuli/bird_uppercase.png","stimuli/stim014_inanimate_boats_2.png","51"
"html-button-response-mod","57","182456","0.0-57.0","73730","","","","","","triplet","279.5","","","","1","stimuli/tree_lowercase.png","stimuli/fish_uppercase.png","stimuli/stim022_inanimate_tools_2.png","52"
"html-button-response-mod","58","183304","0.0-58.0","73730","","","","","","triplet","345.5","","","","0","stimuli/stim014_inanimate_boats_2.png","stimuli/fish_uppercase.png","stimuli/stim008_animate_bird_4.png","53"
"html-button-response-mod","59","184160","0.0-59.0","73730","","","","","","triplet","353.1000000014901","","","","1","stimuli/tree_uppercase.png","stimuli/stim020_inanimate_tree_4.png","stimuli/stim008_animate_bird_4.png","54"
"html-button-response-mod","60","185048","0.0-60.0","73730","","","","","","triplet","380.40000000037253","","","","0","stimuli/stim018_inanimate_tree_2.png","stimuli/fish_lowercase.png","stimuli/stim002_animate_fish_2.png","55"
"html-button-response-mod","61","186606","0.0-61.0","73730","","","","","","triplet","1050.7999999988824","","","","0","stimuli/face_uppercase.png","stimuli/fish_lowercase.png","stimuli/bird_lowercase.png","56"
"html-button-response-mod","62","188061","0.0-62.0","73730","","","","","","triplet","948.3999999985099","","","","0","stimuli/stim014_inanimate_boats_2.png","stimuli/stim013_inanimate_boats_1.png","stimuli/stim007_animate_bird_3.png","57"
"html-button-response-mod","63","189658","0.0-63.0","73730","","","","","","triplet","1089.800000000745","","","","1","stimuli/stim012_animate_face_4.png","stimuli/fish_uppercase.png","stimuli/stim010_animate_face_2.png","58"
"html-button-response-mod","64","192089","0.0-64.0","73730","","","","","","triplet","1925.7000000011176","","","","0","stimuli/stim008_animate_bird_4.png","stimuli/stim003_animate_fish_3.png","stimuli/stim004_animate_fish_4.png","59"
"html-button-response-mod","65","194494","0.0-65.0","73730","","","","","","triplet","1902.5","","","","0","stimuli/face_lowercase.png","stimuli/boats_lowercase.png","stimuli/stim018_inanimate_tree_2.png","60"
"html-button-response-mod","66","196691","0.0-66.0","73730","","","","","","triplet","1691.6000000014901","","","","0","stimuli/stim013_inanimate_boats_1.png","stimuli/fish_uppercase.png","stimuli/tree_lowercase.png","61"
"html-button-response-mod","67","197619","0.0-67.0","73730","","","","","","triplet","420.7999999988824","","","","0","stimuli/stim022_inanimate_tools_2.png","stimuli/fish_lowercase.png","stimuli/tools_lowercase.png","62"
"html-button-response-mod","68","199079","0.0-68.0","73730","","","","","","triplet","955.4000000003725","","","","0","stimuli/stim005_animate_bird_1.png","stimuli/stim016_inanimate_boats_4.png","stimuli/stim024_inanimate_tools_4.png","63"
"html-button-response-mod","69","200025","0.0-69.0","73730","","","","","","triplet","443.09999999962747","","","","0","stimuli/stim008_animate_bird_4.png","stimuli/stim021_inanimate_tools_1.png","stimuli/stim018_inanimate_tree_2.png","64"
"html-button-response-mod","70","200833","0.0-70.0","73730","","","","","","triplet","305","","","","0","stimuli/stim020_inanimate_tree_4.png","stimuli/tree_lowercase.png","stimuli/boats_lowercase.png","65"
"html-button-response-mod","71","201640","0.0-71.0","73730","","","","","","triplet","303.69999999925494","","","","0","stimuli/stim005_animate_bird_1.png","stimuli/tree_uppercase.png","stimuli/stim016_inanimate_boats_4.png","66"
"html-button-response-mod","72","202367","0.0-72.0","73730","","","","","","triplet","224.40000000037253","","","","1","stimuli/stim014_inanimate_boats_2.png","stimuli/stim022_inanimate_tools_2.png","stimuli/bird_lowercase.png","67"
"html-button-response-mod","73","203126","0.0-73.0","73730","","","","","","triplet","255.59999999962747","","","","0","stimuli/bird_lowercase.png","stimuli/stim015_inanimate_boats_3.png","stimuli/stim008_animate_bird_4.png","68"
"html-button-response-mod","74","203941","0.0-74.0","73730","","","","","","triplet","307.5","","","","2","stimuli/tree_lowercase.png","stimuli/stim021_inanimate_tools_1.png","stimuli/stim016_inanimate_boats_4.png","69"
"html-button-response-mod","75","204684","0.0-75.0","73730","","","","","","triplet","240.40000000037253","","","","0","stimuli/stim023_inanimate_tools_3.png","stimuli/stim011_animate_face_3.png","stimuli/stim009_animate_face_1.png","70"
"html-button-response-mod","76","205403","0.0-76.0","73730","","","","","","triplet","216.5","","","","1","stimuli/stim006_animate_bird_2.png","stimuli/stim012_animate_face_4.png","stimuli/tools_uppercase.png","71"
"html-button-response-mod","77","206145","0.0-77.0","73730","","","","","","triplet","237.19999999925494","","","","0","stimuli/fish_lowercase.png","stimuli/stim017_inanimate_tree_1.png","stimuli/stim024_inanimate_tools_4.png","72"
"html-button-response-mod","78","207404","0.0-78.0","73730","","","","","","triplet","754.8000000007451","","","","0","stimuli/stim020_inanimate_tree_4.png","stimuli/stim019_inanimate_tree_3.png","stimuli/stim022_inanimate_tools_2.png","73"
"html-button-response-mod","79","208785","0.0-79.0","73730","","","","","","triplet","876.6999999992549","","","","1","stimuli/stim002_animate_fish_2.png","stimuli/stim009_animate_face_1.png","stimuli/stim013_inanimate_boats_1.png","74"
"html-button-response-mod","80","209568","0.0-80.0","73730","","","","","","triplet","278.7999999988824","","","","2","stimuli/bird_uppercase.png","stimuli/stim005_animate_bird_1.png","stimuli/tools_uppercase.png","75"
"html-button-response-mod","81","210327","0.0-81.0","73730","","","","","","triplet","255.40000000037253","","","","2","stimuli/bird_uppercase.png","stimuli/stim023_inanimate_tools_3.png","stimuli/face_lowercase.png","76"
"html-button-response-mod","82","211021","0.0-82.0","73730","","","","","","triplet","185.90000000037253","","","","2","stimuli/stim015_inanimate_boats_3.png","stimuli/stim004_animate_fish_4.png","stimuli/stim013_inanimate_boats_1.png","77"
"html-button-response-mod","83","211740","0.0-83.0","73730","","","","","","triplet","213.59999999962747","","","","0","stimuli/tree_lowercase.png","stimuli/bird_uppercase.png","stimuli/boats_lowercase.png","78"
"html-button-response-mod","84","212450","0.0-84.0","73730","","","","","","triplet","207.90000000037253","","","","1","stimuli/stim012_animate_face_4.png","stimuli/fish_lowercase.png","stimuli/stim010_animate_face_2.png","79"
"html-button-response-mod","85","213153","0.0-85.0","73730","","","","","","triplet","196.69999999925494","","","","2","stimuli/stim024_inanimate_tools_4.png","stimuli/stim004_animate_fish_4.png","stimuli/stim021_inanimate_tools_1.png","80"
"html-button-response-mod","86","213863","0.0-86.0","73730","","","","","","triplet","206.80000000074506","","","","1","stimuli/stim009_animate_face_1.png","stimuli/stim015_inanimate_boats_3.png","stimuli/stim018_inanimate_tree_2.png","81"
"html-button-response-mod","87","215147","0.0-87.0","73730","","","","","","triplet","780.5999999996275","","","","1","stimuli/tree_lowercase.png","stimuli/stim001_animate_fish_1.png","stimuli/stim008_animate_bird_4.png","82"
"html-button-response-mod","88","215953","0.0-88.0","73730","","","","","","triplet","298.19999999925494","","","","1","stimuli/stim020_inanimate_tree_4.png","stimuli/bird_uppercase.png","stimuli/fish_lowercase.png","83"
"html-button-response-mod","89","216697","0.0-89.0","73730","","","","","","triplet","241.09999999962747","","","","2","stimuli/tools_lowercase.png","stimuli/stim004_animate_fish_4.png","stimuli/stim012_animate_face_4.png","84"
"html-button-response-mod","90","217472","0.0-90.0","73730","","","","","","triplet","267.19999999925494","","","","1","stimuli/stim006_animate_bird_2.png","stimuli/stim024_inanimate_tools_4.png","stimuli/stim008_animate_bird_4.png","85"
"html-button-response-mod","91","218190","0.0-91.0","73730","","","","","","triplet","211","","","","1","stimuli/tree_lowercase.png","stimuli/stim016_inanimate_boats_4.png","stimuli/face_lowercase.png","86"
"html-button-response-mod","92","218965","0.0-92.0","73730","","","","","","triplet","267.5","","","","2","stimuli/tools_uppercase.png","stimuli/stim008_animate_bird_4.png","stimuli/stim021_inanimate_tools_1.png","87"
"html-button-response-mod","93","219684","0.0-93.0","73730","","","","","","triplet","210.80000000074506","","","","2","stimuli/stim022_inanimate_tools_2.png","stimuli/stim015_inanimate_boats_3.png","stimuli/stim010_animate_face_2.png","88"
"html-button-response-mod","94","220378","0.0-94.0","73730","","","","","","triplet","186.59999999962747","","","","2","stimuli/stim010_animate_face_2.png","stimuli/stim006_animate_bird_2.png","stimuli/stim018_inanimate_tree_2.png","89"
"html-button-response-mod","95","221669","0.0-95.0","73730","","","","","","triplet","786.5","","","","2","stimuli/stim012_animate_face_4.png","stimuli/stim017_inanimate_tree_1.png","stimuli/stim011_animate_face_3.png","90"
"html-button-response-mod","96","222333","0.0-96.0","73730","","","","","","triplet","161.09999999962747","","","","0","stimuli/stim002_animate_fish_2.png","stimuli/stim020_inanimate_tree_4.png","stimuli/stim022_inanimate_tools_2.png","91"
"html-button-response-mod","97","223494","0.0-97.0","73730","","","","","","triplet","658.9000000003725","","","","2","stimuli/face_uppercase.png","stimuli/tools_uppercase.png","stimuli/stim013_inanimate_boats_1.png","92"
"html-button-response-mod","98","224453","0.0-98.0","73730","","","","","","triplet","456.69999999925494","","","","0","stimuli/stim013_inanimate_boats_1.png","stimuli/stim012_animate_face_4.png","stimuli/stim007_animate_bird_3.png","93"
"html-button-response-mod","99","225205","0.0-99.0","73730","","","","","","triplet","249.40000000037253","","","","0","stimuli/stim002_animate_fish_2.png","stimuli/bird_uppercase.png","stimuli/bird_lowercase.png","94"
"html-button-response-mod","100","226158","0.0-100.0","73730","","","","","","triplet","450","","","","0","stimuli/face_lowercase.png","stimuli/stim007_animate_bird_3.png","stimuli/stim012_animate_face_4.png","95"
"html-button-response-mod","101","227111","0.0-101.0","73730","","","","","","triplet","447.80000000074506","","","","2","stimuli/tools_uppercase.png","stimuli/stim013_inanimate_boats_1.png","stimuli/stim023_inanimate_tools_3.png","96"
"html-button-response-mod","102","228177","0.0-102.0","73730","","","","","","triplet","558.9000000003725","","","","1","stimuli/stim021_inanimate_tools_1.png","stimuli/fish_lowercase.png","stimuli/tools_uppercase.png","97"
"html-button-response-mod","103","229032","0.0-103.0","73730","","","","","","triplet","351.90000000037253","","","","1","stimuli/stim010_animate_face_2.png","stimuli/stim004_animate_fish_4.png","stimuli/stim016_inanimate_boats_4.png","98"
"html-button-response-mod","104","229799","0.0-104.0","73730","","","","","","triplet","259.69999999925494","","","","2","stimuli/stim004_animate_fish_4.png","stimuli/stim010_animate_face_2.png","stimuli/stim015_inanimate_boats_3.png","99"
"html-button-response","105","233440","0.0-105.0","73730","","","","","","break","3137.10000000149","<p>BREAK</p><p>Take a break for as long as you need</p><p>Click the button to continue</p>","0","","","","","",""
"html-button-response-mod","106","235362","0.0-106.0","73730","","","","","","triplet","1919.9000000003725","","","","1","stimuli/stim021_inanimate_tools_1.png","stimuli/bird_lowercase.png","stimuli/stim002_animate_fish_2.png","100"
"html-button-response-mod","107","236209","0.0-107.0","73730","","","","","","triplet","340","","","","2","stimuli/face_lowercase.png","stimuli/stim014_inanimate_boats_2.png","stimuli/stim010_animate_face_2.png","101"
"html-button-response-mod","108","236909","0.0-108.0","73730","","","","","","triplet","197.30000000074506","","","","1","stimuli/tree_uppercase.png","stimuli/fish_uppercase.png","stimuli/stim011_animate_face_3.png","102"
"html-button-response-mod","109","237635","0.0-109.0","73730","","","","","","triplet","223.59999999962747","","","","2","stimuli/boats_lowercase.png","stimuli/stim016_inanimate_boats_4.png","stimuli/stim021_inanimate_tools_1.png","103"
"html-button-response-mod","110","238341","0.0-110.0","73730","","","","","","triplet","203.2999999988824","","","","2","stimuli/bird_uppercase.png","stimuli/stim011_animate_face_3.png","stimuli/bird_lowercase.png","104"
"html-button-response-mod","111","239035","0.0-111.0","73730","","","","","","triplet","191.09999999962747","","","","1","stimuli/stim008_animate_bird_4.png","stimuli/tree_uppercase.png","stimuli/stim024_inanimate_tools_4.png","105"
"html-button-response-mod","112","239713","0.0-112.0","73730","","","","","","triplet","170.90000000037253","","","","1","stimuli/stim006_animate_bird_2.png","stimuli/stim019_inanimate_tree_3.png","stimuli/face_uppercase.png","106"
"html-button-response-mod","113","240400","0.0-113.0","73730","","","","","","triplet","183.80000000074506","","","","1","stimuli/stim006_animate_bird_2.png","stimuli/stim005_animate_bird_1.png","stimuli/face_uppercase.png","107"
"html-button-response-mod","114","241077","0.0-114.0","73730","","","","","","triplet","170.40000000037253","","","","2","stimuli/face_lowercase.png","stimuli/stim007_animate_bird_3.png","stimuli/boats_uppercase.png","108"
"html-button-response-mod","115","243023","0.0-115.0","73730","","","","","","triplet","1440.8999999985099","","","","2","stimuli/stim018_inanimate_tree_2.png","stimuli/stim003_animate_fish_3.png","stimuli/stim021_inanimate_tools_1.png","109"
"html-button-response-mod","116","245462","0.0-116.0","73730","","","","","","triplet","1936.5","","","","1","stimuli/tools_lowercase.png","stimuli/stim012_animate_face_4.png","stimuli/tree_lowercase.png","110"
"html-button-response-mod","117","247779","0.0-117.0","73730","","","","","","triplet","1813.7999999988824","","","","0","stimuli/fish_lowercase.png","stimuli/stim010_animate_face_2.png","stimuli/stim022_inanimate_tools_2.png","111"
"html-button-response-mod","118","249014","0.0-118.0","73730","","","","","","triplet","730.8000000007451","","","","0","stimuli/stim012_animate_face_4.png","stimuli/stim024_inanimate_tools_4.png","stimuli/stim013_inanimate_boats_1.png","112"
"html-button-response-mod","119","250435","0.0-119.0","73730","","","","","","triplet","915.1000000014901","","","","0","stimuli/stim015_inanimate_boats_3.png","stimuli/stim010_animate_face_2.png","stimuli/stim018_inanimate_tree_2.png","113"
"html-button-response-mod","120","251218","0.0-120.0","73730","","","","","","triplet","275.5","","","","0","stimuli/fish_lowercase.png","stimuli/face_lowercase.png","stimuli/stim004_animate_fish_4.png","114"
"html-button-response-mod","121","251945","0.0-121.0","73730","","","","","","triplet","222.90000000037253","","","","0","stimuli/stim018_inanimate_tree_2.png","stimuli/tools_lowercase.png","stimuli/stim009_animate_face_1.png","115"
"html-button-response-mod","122","254311","0.0-122.0","73730","","","","","","triplet","1861.199999999255","","","","0","stimuli/stim024_inanimate_tools_4.png","stimuli/tree_lowercase.png","stimuli/stim007_animate_bird_3.png","116"
"html-button-response-mod","123","255441","0.0-123.0","73730","","","","","","triplet","626.5999999996275","","","","0","stimuli/stim023_inanimate_tools_3.png","stimuli/stim001_animate_fish_1.png","stimuli/fish_uppercase.png","117"
"html-button-response-mod","124","256200","0.0-124.0","73730","","","","","","triplet","251.30000000074506","","","","0","stimuli/stim014_inanimate_boats_2.png","stimuli/stim012_animate_face_4.png","stimuli/stim009_animate_face_1.png","118"
"html-button-response-mod","125","256918","0.0-125.0","73730","","","","","","triplet","215.5","","","","0","stimuli/stim024_inanimate_tools_4.png","stimuli/stim019_inanimate_tree_3.png","stimuli/stim023_inanimate_tools_3.png","119"
"html-button-response-mod","126","257669","0.0-126.0","73730","","","","","","triplet","245.40000000037253","","","","0","stimuli/stim012_animate_face_4.png","stimuli/stim002_animate_fish_2.png","stimuli/stim020_inanimate_tree_4.png","120"
"html-button-response-mod","127","258404","0.0-127.0","73730","","","","","","triplet","230.7000000011176","","","","0","stimuli/stim016_inanimate_boats_4.png","stimuli/fish_uppercase.png","stimuli/stim018_inanimate_tree_2.png","121"
"html-button-response-mod","128","259071","0.0-128.0","73730","","","","","","triplet","162.5","","","","0","stimuli/tree_lowercase.png","stimuli/boats_lowercase.png","stimuli/stim005_animate_bird_1.png","122"
"html-button-response-mod","129","259792","0.0-129.0","73730","","","","","","triplet","217.90000000037253","","","","0","stimuli/stim024_inanimate_tools_4.png","stimuli/stim021_inanimate_tools_1.png","stimuli/stim019_inanimate_tree_3.png","123"
"html-button-response-mod","130","260495","0.0-130.0","73730","","","","","","triplet","199.19999999925494","","","","0","stimuli/stim003_animate_fish_3.png","stimuli/stim024_inanimate_tools_4.png","stimuli/face_uppercase.png","124"
"html-button-response-mod","131","261206","0.0-131.0","73730","","","","","","triplet","206.90000000037253","","","","0","stimuli/stim001_animate_fish_1.png","stimuli/bird_uppercase.png","stimuli/stim015_inanimate_boats_3.png","125"
"html-button-response-mod","132","261924","0.0-132.0","73730","","","","","","triplet","215.7000000011176","","","","0","stimuli/stim016_inanimate_boats_4.png","stimuli/fish_uppercase.png","stimuli/stim007_animate_bird_3.png","126"
"html-button-response-mod","133","262618","0.0-133.0","73730","","","","","","triplet","189.59999999962747","","","","0","stimuli/boats_lowercase.png","stimuli/stim004_animate_fish_4.png","stimuli/stim008_animate_bird_4.png","127"
"html-button-response-mod","134","263296","0.0-134.0","73730","","","","","","triplet","171.2000000011176","","","","0","stimuli/stim005_animate_bird_1.png","stimuli/stim014_inanimate_boats_2.png","stimuli/stim010_animate_face_2.png","128"
"html-button-response-mod","135","264726","0.0-135.0","73730","","","","","","triplet","925.3999999985099","","","","0","stimuli/tree_uppercase.png","stimuli/stim012_animate_face_4.png","stimuli/stim022_inanimate_tools_2.png","129"
"html-button-response-mod","136","265532","0.0-136.0","73730","","","","","","triplet","304.5","","","","0","stimuli/stim004_animate_fish_4.png","stimuli/stim017_inanimate_tree_1.png","stimuli/stim022_inanimate_tools_2.png","130"
"html-button-response-mod","137","266267","0.0-137.0","73730","","","","","","triplet","227.2999999988824","","","","0","stimuli/stim002_animate_fish_2.png","stimuli/stim022_inanimate_tools_2.png","stimuli/stim023_inanimate_tools_3.png","131"
"html-button-response-mod","138","266946","0.0-138.0","73730","","","","","","triplet","170.59999999962747","","","","0","stimuli/stim007_animate_bird_3.png","stimuli/stim014_inanimate_boats_2.png","stimuli/stim018_inanimate_tree_2.png","132"
"html-button-response-mod","139","267640","0.0-139.0","73730","","","","","","triplet","191.40000000037253","","","","0","stimuli/stim009_animate_face_1.png","stimuli/bird_lowercase.png","stimuli/tools_uppercase.png","133"
"html-button-response-mod","140","268310","0.0-140.0","73730","","","","","","triplet","166.2999999988824","","","","0","stimuli/stim011_animate_face_3.png","stimuli/stim004_animate_fish_4.png","stimuli/tools_lowercase.png","134"
"html-button-response-mod","141","268988","0.0-141.0","73730","","","","","","triplet","173.09999999962747","","","","0","stimuli/stim016_inanimate_boats_4.png","stimuli/stim010_animate_face_2.png","stimuli/stim022_inanimate_tools_2.png","135"
"html-button-response-mod","142","269691","0.0-142.0","73730","","","","","","triplet","198.7000000011176","","","","0","stimuli/stim006_animate_bird_2.png","stimuli/stim010_animate_face_2.png","stimuli/stim008_animate_bird_4.png","136"
"html-button-response-mod","143","270321","0.0-143.0","73730","","","","","","triplet","122.39999999850988","","","","0","stimuli/stim023_inanimate_tools_3.png","stimuli/stim014_inanimate_boats_2.png","stimuli/stim016_inanimate_boats_4.png","137"
"html-button-response-mod","144","270982","0.0-144.0","73730","","","","","","triplet","154.39999999850988","","","","0","stimuli/face_lowercase.png","stimuli/stim015_inanimate_boats_3.png","stimuli/stim011_animate_face_3.png","138"
"html-button-response-mod","145","272194","0.0-145.0","73730","","","","","","triplet","708.5999999996275","","","","0","stimuli/stim014_inanimate_boats_2.png","stimuli/tools_lowercase.png","stimuli/face_uppercase.png","139"
"html-button-response-mod","146","272976","0.0-146.0","73730","","","","","","triplet","278.2999999988824","","","","0","stimuli/stim023_inanimate_tools_3.png","stimuli/stim002_animate_fish_2.png","stimuli/boats_lowercase.png","140"
"html-button-response-mod","147","273704","0.0-147.0","73730","","","","","","triplet","221.60000000149012","","","","0","stimuli/face_uppercase.png","stimuli/stim020_inanimate_tree_4.png","stimuli/tools_uppercase.png","141"
"html-button-response-mod","148","274438","0.0-148.0","73730","","","","","","triplet","227.2999999988824","","","","0","stimuli/stim020_inanimate_tree_4.png","stimuli/stim002_animate_fish_2.png","stimuli/stim005_animate_bird_1.png","142"
"html-button-response-mod","149","275149","0.0-149.0","73730","","","","","","triplet","202.7000000011176","","","","0","stimuli/stim004_animate_fish_4.png","stimuli/bird_uppercase.png","stimuli/stim017_inanimate_tree_1.png","143"
"html-button-response-mod","150","275851","0.0-150.0","73730","","","","","","triplet","199.30000000074506","","","","0","stimuli/stim016_inanimate_boats_4.png","stimuli/face_uppercase.png","stimuli/stim003_animate_fish_3.png","144"
"html-button-response-mod","151","276553","0.0-151.0","73730","","","","","","triplet","194.89999999850988","","","","0","stimuli/stim006_animate_bird_2.png","stimuli/stim023_inanimate_tools_3.png","stimuli/stim009_animate_face_1.png","145"
"html-button-response-mod","152","277232","0.0-152.0","73730","","","","","","triplet","174.09999999962747","","","","0","stimuli/stim007_animate_bird_3.png","stimuli/stim009_animate_face_1.png","stimuli/face_lowercase.png","146"
"html-button-response-mod","153","277918","0.0-153.0","73730","","","","","","triplet","183.7000000011176","","","","0","stimuli/boats_uppercase.png","stimuli/stim010_animate_face_2.png","stimuli/stim002_animate_fish_2.png","147"
"html-button-response-mod","154","278637","0.0-154.0","73730","","","","","","triplet","216.5","","","","0","stimuli/bird_uppercase.png","stimuli/stim017_inanimate_tree_1.png","stimuli/fish_lowercase.png","148"
"html-button-response-mod","155","279291","0.0-155.0","73730","","","","","","triplet","146.19999999925494","","","","0","stimuli/stim009_animate_face_1.png","stimuli/stim015_inanimate_boats_3.png","stimuli/stim004_animate_fish_4.png","149"
"html-button-response","156","280905","0.0-156.0","73730","","","","","","break","1107.800000000745","<p>BREAK</p><p>Take a break for as long as you need</p><p>Click the button to continue</p>","0","","","","","",""
"html-button-response-mod","157","281527","0.0-157.0","73730","","","","","","triplet","619.2999999988824","","","","2","stimuli/tree_uppercase.png","stimuli/bird_uppercase.png","stimuli/face_lowercase.png","150"
"html-button-response-mod","158","282835","0.0-158.0","73730","","","","","","triplet","805.2000000011176","","","","1","stimuli/stim022_inanimate_tools_2.png","stimuli/boats_lowercase.png","stimuli/stim006_animate_bird_2.png","151"
"html-button-response-mod","159","283570","0.0-159.0","73730","","","","","","triplet","232.90000000037253","","","","1","stimuli/stim006_animate_bird_2.png","stimuli/stim015_inanimate_boats_3.png","stimuli/tools_lowercase.png","152"
"html-button-response-mod","160","284813","0.0-160.0","73730","","","","","","triplet","739.0999999996275","","","","0","stimuli/stim010_animate_face_2.png","stimuli/face_uppercase.png","stimuli/tools_lowercase.png","153"
"html-button-response-mod","161","286177","0.0-161.0","73730","","","","","","triplet","860.5999999996275","","","","1","stimuli/tree_lowercase.png","stimuli/fish_lowercase.png","stimuli/stim008_animate_bird_4.png","154"
"html-button-response-mod","162","287405","0.0-162.0","73730","","","","","","triplet","720.3000000007451","","","","1","stimuli/tree_uppercase.png","stimuli/stim017_inanimate_tree_1.png","stimuli/tools_uppercase.png","155"
"html-button-response-mod","163","291813","0.0-163.0","73730","","","","","","triplet","3900.5999999996275","","","","1","stimuli/stim014_inanimate_boats_2.png","stimuli/stim017_inanimate_tree_1.png","stimuli/tools_uppercase.png","156"
"html-button-response-mod","164","293009","0.0-164.0","73730","","","","","","triplet","691.8000000007451","","","","1","stimuli/stim008_animate_bird_4.png","stimuli/stim023_inanimate_tools_3.png","stimuli/boats_uppercase.png","157"
"html-button-response-mod","165","293749","0.0-165.0","73730","","","","","","triplet","237.2999999988824","","","","2","stimuli/stim024_inanimate_tools_4.png","stimuli/fish_uppercase.png","stimuli/stim023_inanimate_tools_3.png","158"
"html-button-response-mod","166","295527","0.0-166.0","73730","","","","","","triplet","1275.300000000745","","","","1","stimuli/tools_lowercase.png","stimuli/tree_lowercase.png","stimuli/tools_uppercase.png","159"
"html-button-response-mod","167","296770","0.0-167.0","73730","","","","","","triplet","740.6999999992549","","","","2","stimuli/stim011_animate_face_3.png","stimuli/stim002_animate_fish_2.png","stimuli/stim012_animate_face_4.png","160"
"html-button-response-mod","168","297893","0.0-168.0","73730","","","","","","triplet","615.0999999996275","","","","0","stimuli/boats_lowercase.png","stimuli/face_uppercase.png","stimuli/stim022_inanimate_tools_2.png","161"
"html-button-response-mod","169","298765","0.0-169.0","73730","","","","","","triplet","365.90000000037253","","","","0","stimuli/stim011_animate_face_3.png","stimuli/stim003_animate_fish_3.png","stimuli/stim017_inanimate_tree_1.png","162"
"html-button-response-mod","170","299589","0.0-170.0","73730","","","","","","triplet","320.7999999988824","","","","0","stimuli/fish_uppercase.png","stimuli/tools_uppercase.png","stimuli/stim008_animate_bird_4.png","163"
"html-button-response-mod","171","300436","0.0-171.0","73730","","","","","","triplet","342.7999999988824","","","","1","stimuli/stim001_animate_fish_1.png","stimuli/stim007_animate_bird_3.png","stimuli/stim012_animate_face_4.png","164"
"html-button-response-mod","172","301292","0.0-172.0","73730","","","","","","triplet","353.40000000037253","","","","1","stimuli/stim010_animate_face_2.png","stimuli/stim022_inanimate_tools_2.png","stimuli/stim021_inanimate_tools_1.png","165"
"html-button-response-mod","173","302095","0.0-173.0","73730","","","","","","triplet","296.90000000037253","","","","1","stimuli/stim017_inanimate_tree_1.png","stimuli/boats_lowercase.png","stimuli/stim012_animate_face_4.png","166"
"html-button-response-mod","174","302874","0.0-174.0","73730","","","","","","triplet","276.30000000074506","","","","1","stimuli/face_uppercase.png","stimuli/stim001_animate_fish_1.png","stimuli/stim021_inanimate_tools_1.png","167"
"html-button-response-mod","175","303739","0.0-175.0","73730","","","","","","triplet","360.7000000011176","","","","0","stimuli/stim008_animate_bird_4.png","stimuli/stim002_animate_fish_2.png","stimuli/stim020_inanimate_tree_4.png","168"
"html-button-response-mod","176","312652","0.0-176.0","73730","","","","","","triplet","8408.900000000373","","","","0","stimuli/face_lowercase.png","stimuli/stim014_inanimate_boats_2.png","stimuli/face_uppercase.png","169"
"html-button-response-mod","177","313419","0.0-177.0","73730","","","","","","triplet","264.2999999988824","","","","0","stimuli/stim011_animate_face_3.png","stimuli/bird_uppercase.png","stimuli/tools_uppercase.png","170"
"html-button-response-mod","178","314129","0.0-178.0","73730","","","","","","triplet","207.59999999962747","","","","0","stimuli/stim013_inanimate_boats_1.png","stimuli/stim008_animate_bird_4.png","stimuli/stim007_animate_bird_3.png","171"
"html-button-response-mod","179","314799","0.0-179.0","73730","","","","","","triplet","163.59999999962747","","","","0","stimuli/tree_lowercase.png","stimuli/stim017_inanimate_tree_1.png","stimuli/fish_lowercase.png","172"
"html-button-response-mod","180","315486","0.0-180.0","73730","","","","","","triplet","183.7000000011176","","","","0","stimuli/stim006_animate_bird_2.png","stimuli/bird_lowercase.png","stimuli/stim013_inanimate_boats_1.png","173"
"html-button-response-mod","181","316737","0.0-181.0","73730","","","","","","triplet","747.4000000003725","","","","0","stimuli/tree_uppercase.png","stimuli/stim015_inanimate_boats_3.png","stimuli/boats_uppercase.png","174"
"html-button-response-mod","182","317948","0.0-182.0","73730","","","","","","triplet","708.4000000003725","","","","1","stimuli/stim010_animate_face_2.png","stimuli/boats_uppercase.png","stimuli/stim009_animate_face_1.png","175"
"html-button-response-mod","183","319022","0.0-183.0","73730","","","","","","triplet","569.7000000011176","","","","1","stimuli/stim016_inanimate_boats_4.png","stimuli/tools_lowercase.png","stimuli/stim024_inanimate_tools_4.png","176"
"html-button-response-mod","184","319838","0.0-184.0","73730","","","","","","triplet","312.3999999985099","","","","2","stimuli/stim017_inanimate_tree_1.png","stimuli/stim024_inanimate_tools_4.png","stimuli/bird_uppercase.png","177"
"html-button-response-mod","185","320863","0.0-185.0","73730","","","","","","triplet","517.9000000003725","","","","2","stimuli/stim024_inanimate_tools_4.png","stimuli/bird_uppercase.png","stimuli/stim006_animate_bird_2.png","178"
"html-button-response-mod","186","321816","0.0-186.0","73730","","","","","","triplet","449.2000000011176","","","","1","stimuli/boats_lowercase.png","stimuli/stim021_inanimate_tools_1.png","stimuli/stim014_inanimate_boats_2.png","179"
"html-button-response-mod","187","322776","0.0-187.0","73730","","","","","","triplet","456.40000000037253","","","","1","stimuli/stim002_animate_fish_2.png","stimuli/stim023_inanimate_tools_3.png","stimuli/stim003_animate_fish_3.png","180"
"html-button-response-mod","188","323737","0.0-188.0","73730","","","","","","triplet","458.09999999962747","","","","2","stimuli/stim011_animate_face_3.png","stimuli/stim021_inanimate_tools_1.png","stimuli/stim001_animate_fish_1.png","181"
"html-button-response-mod","189","324423","0.0-189.0","73730","","","","","","triplet","178.5","","","","2","stimuli/stim002_animate_fish_2.png","stimuli/face_lowercase.png","stimuli/stim009_animate_face_1.png","182"
"html-button-response-mod","190","325085","0.0-190.0","73730","","","","","","triplet","156.69999999925494","","","","2","stimuli/stim022_inanimate_tools_2.png","stimuli/stim019_inanimate_tree_3.png","stimuli/stim003_animate_fish_3.png","183"
"html-button-response-mod","191","325755","0.0-191.0","73730","","","","","","triplet","162.69999999925494","","","","2","stimuli/stim020_inanimate_tree_4.png","stimuli/face_lowercase.png","stimuli/stim011_animate_face_3.png","184"
"html-button-response-mod","192","326724","0.0-192.0","73730","","","","","","triplet","465","","","","2","stimuli/stim018_inanimate_tree_2.png","stimuli/stim001_animate_fish_1.png","stimuli/stim004_animate_fish_4.png","185"
"html-button-response-mod","193","327362","0.0-193.0","73730","","","","","","triplet","133.60000000149012","","","","1","stimuli/face_uppercase.png","stimuli/stim003_animate_fish_3.png","stimuli/tools_uppercase.png","186"
"html-button-response-mod","194","328250","0.0-194.0","73730","","","","","","triplet","385.90000000037253","","","","1","stimuli/stim020_inanimate_tree_4.png","stimuli/face_lowercase.png","stimuli/stim001_animate_fish_1.png","187"
"html-button-response-mod","195","329106","0.0-195.0","73730","","","","","","triplet","351.7999999988824","","","","2","stimuli/stim017_inanimate_tree_1.png","stimuli/stim002_animate_fish_2.png","stimuli/stim013_inanimate_boats_1.png","188"
"html-button-response-mod","196","329970","0.0-196.0","73730","","","","","","triplet","361.59999999962747","","","","2","stimuli/tools_uppercase.png","stimuli/stim018_inanimate_tree_2.png","stimuli/stim010_animate_face_2.png","189"
"html-button-response-mod","197","330858","0.0-197.0","73730","","","","","","triplet","380.7000000011176","","","","2","stimuli/boats_uppercase.png","stimuli/face_lowercase.png","stimuli/stim023_inanimate_tools_3.png","190"
"html-button-response-mod","198","331698","0.0-198.0","73730","","","","","","triplet","332.5","","","","2","stimuli/stim012_animate_face_4.png","stimuli/stim019_inanimate_tree_3.png","stimuli/fish_lowercase.png","191"
"html-button-response-mod","199","332514","0.0-199.0","73730","","","","","","triplet","311.7999999988824","","","","1","stimuli/stim021_inanimate_tools_1.png","stimuli/stim017_inanimate_tree_1.png","stimuli/stim019_inanimate_tree_3.png","192"
"html-button-response-mod","200","333273","0.0-200.0","73730","","","","","","triplet","254.19999999925494","","","","1","stimuli/stim019_inanimate_tree_3.png","stimuli/tools_lowercase.png","stimuli/fish_uppercase.png","193"
"html-button-response-mod","201","334056","0.0-201.0","73730","","","","","","triplet","280.69999999925494","","","","2","stimuli/face_lowercase.png","stimuli/stim016_inanimate_boats_4.png","stimuli/stim013_inanimate_boats_1.png","194"
"html-button-response-mod","202","334823","0.0-202.0","73730","","","","","","triplet","260.80000000074506","","","","1","stimuli/stim006_animate_bird_2.png","stimuli/stim009_animate_face_1.png","stimuli/stim002_animate_fish_2.png","195"
"html-button-response-mod","203","335533","0.0-203.0","73730","","","","","","triplet","208.40000000037253","","","","2","stimuli/stim007_animate_bird_3.png","stimuli/stim021_inanimate_tools_1.png","stimuli/stim001_animate_fish_1.png","196"
"html-button-response-mod","204","336203","0.0-204.0","73730","","","","","","triplet","167.40000000037253","","","","1","stimuli/tree_lowercase.png","stimuli/tools_uppercase.png","stimuli/stim001_animate_fish_1.png","197"
"html-button-response-mod","205","336850","0.0-205.0","73730","","","","","","triplet","139.09999999962747","","","","2","stimuli/boats_uppercase.png","stimuli/stim016_inanimate_boats_4.png","stimuli/boats_lowercase.png","198"
"html-button-response-mod","206","337503","0.0-206.0","73730","","","","","","triplet","149.90000000037253","","","","2","stimuli/stim016_inanimate_boats_4.png","stimuli/face_lowercase.png","stimuli/tree_uppercase.png","199"
"html-button-response","207","339554","0.0-207.0","73730","","","","","","break","1548.800000000745","<p>BREAK</p><p>Take a break for as long as you need</p><p>Click the button to continue</p>","0","","","","","",""
"html-button-response-mod","208","340022","0.0-208.0","73730","","","","","","triplet","465.8999999985099","","","","0","stimuli/stim001_animate_fish_1.png","stimuli/bird_uppercase.png","stimuli/stim014_inanimate_boats_2.png","200"
"html-button-response-mod","209","340741","0.0-209.0","73730","","","","","","triplet","216.2000000011176","","","","0","stimuli/bird_lowercase.png","stimuli/stim024_inanimate_tools_4.png","stimuli/stim019_inanimate_tree_3.png","201"
"html-button-response-mod","210","341427","0.0-210.0","73730","","","","","","triplet","183.69999999925494","","","","0","stimuli/fish_uppercase.png","stimuli/stim014_inanimate_boats_2.png","stimuli/stim003_animate_fish_3.png","202"
"html-button-response-mod","211","342113","0.0-211.0","73730","","","","","","triplet","181.19999999925494","","","","0","stimuli/fish_lowercase.png","stimuli/stim022_inanimate_tools_2.png","stimuli/stim020_inanimate_tree_4.png","203"
"html-button-response-mod","212","342840","0.0-212.0","73730","","","","","","triplet","223.80000000074506","","","","0","stimuli/boats_lowercase.png","stimuli/stim021_inanimate_tools_1.png","stimuli/stim009_animate_face_1.png","204"
"html-button-response-mod","213","343543","0.0-213.0","73730","","","","","","triplet","195.5","","","","0","stimuli/stim014_inanimate_boats_2.png","stimuli/face_uppercase.png","stimuli/stim024_inanimate_tools_4.png","205"
"html-button-response-mod","214","344317","0.0-214.0","73730","","","","","","triplet","267.90000000037253","","","","0","stimuli/stim017_inanimate_tree_1.png","stimuli/stim022_inanimate_tools_2.png","stimuli/stim002_animate_fish_2.png","206"
"html-button-response-mod","215","345052","0.0-215.0","73730","","","","","","triplet","227","","","","0","stimuli/face_uppercase.png","stimuli/stim001_animate_fish_1.png","stimuli/bird_uppercase.png","207"
"html-button-response-mod","216","345851","0.0-216.0","73730","","","","","","triplet","295.69999999925494","","","","0","stimuli/stim018_inanimate_tree_2.png","stimuli/stim003_animate_fish_3.png","stimuli/stim023_inanimate_tools_3.png","208"
"html-button-response-mod","217","346740","0.0-217.0","73730","","","","","","triplet","384.80000000074506","","","","0","stimuli/tools_lowercase.png","stimuli/stim002_animate_fish_2.png","stimuli/boats_lowercase.png","209"
"html-button-response-mod","218","347514","0.0-218.0","73730","","","","","","triplet","271.59999999962747","","","","0","stimuli/stim001_animate_fish_1.png","stimuli/stim016_inanimate_boats_4.png","stimuli/fish_lowercase.png","210"
"html-button-response-mod","219","348347","0.0-219.0","73730","","","","","","triplet","328.69999999925494","","","","0","stimuli/fish_uppercase.png","stimuli/tree_uppercase.png","stimuli/bird_lowercase.png","211"
"html-button-response-mod","220","349097","0.0-220.0","73730","","","","","","triplet","248.5","","","","0","stimuli/stim002_animate_fish_2.png","stimuli/stim022_inanimate_tools_2.png","stimuli/stim014_inanimate_boats_2.png","212"
"html-button-response-mod","221","349872","0.0-221.0","73730","","","","","","triplet","272.69999999925494","","","","0","stimuli/stim024_inanimate_tools_4.png","stimuli/stim014_inanimate_boats_2.png","stimuli/tools_lowercase.png","213"
"html-button-response-mod","222","350631","0.0-222.0","73730","","","","","","triplet","256.80000000074506","","","","0","stimuli/bird_lowercase.png","stimuli/stim011_animate_face_3.png","stimuli/stim013_inanimate_boats_1.png","214"
"html-button-response-mod","223","351358","0.0-223.0","73730","","","","","","triplet","224.5","","","","0","stimuli/stim007_animate_bird_3.png","stimuli/boats_uppercase.png","stimuli/stim013_inanimate_boats_1.png","215"
"html-button-response-mod","224","352238","0.0-224.0","73730","","","","","","triplet","377.40000000037253","","","","0","stimuli/boats_lowercase.png","stimuli/stim019_inanimate_tree_3.png","stimuli/stim008_animate_bird_4.png","216"
"html-button-response-mod","225","352945","0.0-225.0","73730","","","","","","triplet","201.80000000074506","","","","0","stimuli/stim007_animate_bird_3.png","stimuli/stim012_animate_face_4.png","stimuli/stim006_animate_bird_2.png","217"
"html-button-response-mod","226","353933","0.0-226.0","73730","","","","","","triplet","485.3999999985099","","","","0","stimuli/tree_uppercase.png","stimuli/fish_lowercase.png","stimuli/stim014_inanimate_boats_2.png","218"
"html-button-response-mod","227","354692","0.0-227.0","73730","","","","","","triplet","254.69999999925494","","","","0","stimuli/stim018_inanimate_tree_2.png","stimuli/stim016_inanimate_boats_4.png","stimuli/stim005_animate_bird_1.png","219"
"html-button-response-mod","228","355323","0.0-228.0","73730","","","","","","triplet","128.7000000011176","","","","0","stimuli/stim022_inanimate_tools_2.png","stimuli/stim004_animate_fish_4.png","stimuli/bird_uppercase.png","220"
"html-button-response-mod","229","356097","0.0-229.0","73730","","","","","","triplet","269.90000000037253","","","","0","stimuli/stim015_inanimate_boats_3.png","stimuli/stim023_inanimate_tools_3.png","stimuli/face_uppercase.png","221"
"html-button-response-mod","230","356831","0.0-230.0","73730","","","","","","triplet","232.40000000037253","","","","0","stimuli/stim022_inanimate_tools_2.png","stimuli/stim004_animate_fish_4.png","stimuli/stim007_animate_bird_3.png","222"
"html-button-response-mod","231","357547","0.0-231.0","73730","","","","","","triplet","212.7999999988824","","","","0","stimuli/stim020_inanimate_tree_4.png","stimuli/face_lowercase.png","stimuli/stim024_inanimate_tools_4.png","223"
"html-button-response-mod","232","358261","0.0-232.0","73730","","","","","","triplet","211.2999999988824","","","","0","stimuli/stim005_animate_bird_1.png","stimuli/stim014_inanimate_boats_2.png","stimuli/stim008_animate_bird_4.png","224"
"html-button-response-mod","233","358947","0.0-233.0","73730","","","","","","triplet","179.80000000074506","","","","0","stimuli/stim011_animate_face_3.png","stimuli/tree_lowercase.png","stimuli/boats_lowercase.png","225"
"html-button-response-mod","234","359689","0.0-234.0","73730","","","","","","triplet","238.19999999925494","","","","0","stimuli/boats_lowercase.png","stimuli/stim017_inanimate_tree_1.png","stimuli/stim013_inanimate_boats_1.png","226"
"html-button-response-mod","235","360618","0.0-235.0","73730","","","","","","triplet","425.40000000037253","","","","0","stimuli/stim003_animate_fish_3.png","stimuli/stim013_inanimate_boats_1.png","stimuli/stim017_inanimate_tree_1.png","227"
"html-button-response-mod","236","361257","0.0-236.0","73730","","","","","","triplet","135.59999999962747","","","","0","stimuli/stim002_animate_fish_2.png","stimuli/stim024_inanimate_tools_4.png","stimuli/stim009_animate_face_1.png","228"
"html-button-response-mod","237","361918","0.0-237.0","73730","","","","","","triplet","158.30000000074506","","","","0","stimuli/stim009_animate_face_1.png","stimuli/bird_uppercase.png","stimuli/stim010_animate_face_2.png","229"
"html-button-response-mod","238","362636","0.0-238.0","73730","","","","","","triplet","211","","","","0","stimuli/fish_lowercase.png","stimuli/stim015_inanimate_boats_3.png","stimuli/fish_uppercase.png","230"
"html-button-response-mod","239","363356","0.0-239.0","73730","","","","","","triplet","212.59999999962747","","","","0","stimuli/tree_lowercase.png","stimuli/bird_lowercase.png","stimuli/boats_uppercase.png","231"
"html-button-response-mod","240","364050","0.0-240.0","73730","","","","","","triplet","187.2000000011176","","","","0","stimuli/stim005_animate_bird_1.png","stimuli/stim021_inanimate_tools_1.png","stimuli/stim022_inanimate_tools_2.png","232"
"html-button-response-mod","241","364825","0.0-241.0","73730","","","","","","triplet","272.40000000037253","","","","0","stimuli/stim018_inanimate_tree_2.png","stimuli/tools_lowercase.png","stimuli/stim023_inanimate_tools_3.png","233"
"html-button-response-mod","242","365519","0.0-242.0","73730","","","","","","triplet","190.5","","","","0","stimuli/stim003_animate_fish_3.png","stimuli/stim024_inanimate_tools_4.png","stimuli/bird_lowercase.png","234"
"html-button-response-mod","243","366261","0.0-243.0","73730","","","","","","triplet","234.80000000074506","","","","0","stimuli/stim017_inanimate_tree_1.png","stimuli/stim015_inanimate_boats_3.png","stimuli/stim008_animate_bird_4.png","235"
"html-button-response-mod","244","367029","0.0-244.0","73730","","","","","","triplet","262.5","","","","0","stimuli/stim005_animate_bird_1.png","stimuli/tools_uppercase.png","stimuli/stim011_animate_face_3.png","236"
"html-button-response-mod","245","367845","0.0-245.0","73730","","","","","","triplet","311.40000000037253","","","","0","stimuli/stim023_inanimate_tools_3.png","stimuli/stim009_animate_face_1.png","stimuli/stim005_animate_bird_1.png","237"
"html-button-response-mod","246","368619","0.0-246.0","73730","","","","","","triplet","268.69999999925494","","","","0","stimuli/stim004_animate_fish_4.png","stimuli/tree_lowercase.png","stimuli/boats_uppercase.png","238"
"html-button-response-mod","247","369354","0.0-247.0","73730","","","","","","triplet","232","","","","0","stimuli/fish_lowercase.png","stimuli/tree_lowercase.png","stimuli/tree_uppercase.png","239"
"html-button-response-mod","248","370058","0.0-248.0","73730","","","","","","triplet","200.09999999962747","","","","0","stimuli/fish_lowercase.png","stimuli/stim019_inanimate_tree_3.png","stimuli/stim013_inanimate_boats_1.png","240"
"html-button-response-mod","249","370791","0.0-249.0","73730","","","","","","triplet","227.09999999962747","","","","0","stimuli/stim015_inanimate_boats_3.png","stimuli/stim004_animate_fish_4.png","stimuli/stim019_inanimate_tree_3.png","241"
"html-button-response-mod","250","371582","0.0-250.0","73730","","","","","","triplet","288.7000000011176","","","","0","stimuli/stim007_animate_bird_3.png","stimuli/stim023_inanimate_tools_3.png","stimuli/stim001_animate_fish_1.png","242"
"html-button-response-mod","251","372349","0.0-251.0","73730","","","","","","triplet","260.69999999925494","","","","0","stimuli/tree_lowercase.png","stimuli/stim008_animate_bird_4.png","stimuli/stim007_animate_bird_3.png","243"
"html-button-response-mod","252","373100","0.0-252.0","73730","","","","","","triplet","244.7000000011176","","","","0","stimuli/bird_lowercase.png","stimuli/stim021_inanimate_tools_1.png","stimuli/stim013_inanimate_boats_1.png","244"
"html-button-response-mod","253","373810","0.0-253.0","73730","","","","","","triplet","207.7999999988824","","","","0","stimuli/fish_uppercase.png","stimuli/fish_lowercase.png","stimuli/stim024_inanimate_tools_4.png","245"
"html-button-response-mod","254","374562","0.0-254.0","73730","","","","","","triplet","246.90000000037253","","","","0","stimuli/stim017_inanimate_tree_1.png","stimuli/boats_lowercase.png","stimuli/stim005_animate_bird_1.png","246"
"html-button-response-mod","255","375289","0.0-255.0","73730","","","","","","triplet","220.09999999962747","","","","0","stimuli/stim018_inanimate_tree_2.png","stimuli/bird_lowercase.png","stimuli/stim006_animate_bird_2.png","247"
"html-button-response-mod","256","375982","0.0-256.0","73730","","","","","","triplet","186.7999999988824","","","","0","stimuli/stim006_animate_bird_2.png","stimuli/stim005_animate_bird_1.png","stimuli/stim002_animate_fish_2.png","248"
"html-button-response-mod","257","376693","0.0-257.0","73730","","","","","","triplet","204.59999999962747","","","","0","stimuli/stim010_animate_face_2.png","stimuli/fish_lowercase.png","stimuli/stim013_inanimate_boats_1.png","249"
"html-button-response","258","378582","0.0-258.0","73730","","","","","","break","1382.2999999988824","<p>BREAK</p><p>Take a break for as long as you need</p><p>Click the button to continue</p>","0","","","","","",""
"html-button-response-mod","259","378831","0.0-259.0","73730","","","","","","triplet","247","","","","1","stimuli/stim006_animate_bird_2.png","stimuli/stim021_inanimate_tools_1.png","stimuli/stim015_inanimate_boats_3.png","250"
"html-button-response-mod","260","379575","0.0-260.0","73730","","","","","","triplet","241.40000000037253","","","","2","stimuli/stim018_inanimate_tree_2.png","stimuli/face_uppercase.png","stimuli/stim022_inanimate_tools_2.png","251"
"html-button-response-mod","261","380294","0.0-261.0","73730","","","","","","triplet","215.2000000011176","","","","1","stimuli/stim001_animate_fish_1.png","stimuli/face_uppercase.png","stimuli/stim020_inanimate_tree_4.png","252"
"html-button-response-mod","262","381005","0.0-262.0","73730","","","","","","triplet","208","","","","1","stimuli/stim016_inanimate_boats_4.png","stimuli/stim004_animate_fish_4.png","stimuli/stim003_animate_fish_3.png","253"
"html-button-response-mod","263","381707","0.0-263.0","73730","","","","","","triplet","195.5","","","","2","stimuli/boats_lowercase.png","stimuli/face_uppercase.png","stimuli/stim007_animate_bird_3.png","254"
"html-button-response-mod","264","382393","0.0-264.0","73730","","","","","","triplet","181.89999999850988","","","","2","stimuli/stim008_animate_bird_4.png","stimuli/stim018_inanimate_tree_2.png","stimuli/stim007_animate_bird_3.png","255"
"html-button-response-mod","265","383062","0.0-265.0","73730","","","","","","triplet","161.90000000037253","","","","1","stimuli/stim009_animate_face_1.png","stimuli/stim003_animate_fish_3.png","stimuli/stim021_inanimate_tools_1.png","256"
"html-button-response-mod","266","383757","0.0-266.0","73730","","","","","","triplet","191.59999999962747","","","","2","stimuli/stim017_inanimate_tree_1.png","stimuli/stim005_animate_bird_1.png","stimuli/stim007_animate_bird_3.png","257"
"html-button-response-mod","267","384484","0.0-267.0","73730","","","","","","triplet","222.7999999988824","","","","2","stimuli/tools_uppercase.png","stimuli/boats_uppercase.png","stimuli/stim020_inanimate_tree_4.png","258"
"html-button-response-mod","268","385194","0.0-268.0","73730","","","","","","triplet","207.80000000074506","","","","1","stimuli/stim015_inanimate_boats_3.png","stimuli/tools_uppercase.png","stimuli/face_lowercase.png","259"
"html-button-response-mod","269","385929","0.0-269.0","73730","","","","","","triplet","230.69999999925494","","","","2","stimuli/tree_uppercase.png","stimuli/stim013_inanimate_boats_1.png","stimuli/stim012_animate_face_4.png","260"
"html-button-response-mod","270","386687","0.0-270.0","73730","","","","","","triplet","255.5","","","","1","stimuli/bird_uppercase.png","stimuli/stim017_inanimate_tree_1.png","stimuli/face_uppercase.png","261"
"html-button-response-mod","271","387415","0.0-271.0","73730","","","","","","triplet","220.5","","","","1","stimuli/stim019_inanimate_tree_3.png","stimuli/stim008_animate_bird_4.png","stimuli/stim003_animate_fish_3.png","262"
"html-button-response-mod","272","388149","0.0-272.0","73730","","","","","","triplet","231.59999999962747","","","","2","stimuli/bird_uppercase.png","stimuli/stim017_inanimate_tree_1.png","stimuli/face_lowercase.png","263"
"html-button-response-mod","273","388885","0.0-273.0","73730","","","","","","triplet","231.69999999925494","","","","2","stimuli/tools_lowercase.png","stimuli/stim022_inanimate_tools_2.png","stimuli/face_lowercase.png","264"
"html-button-response-mod","274","389594","0.0-274.0","73730","","","","","","triplet","203.59999999962747","","","","2","stimuli/stim012_animate_face_4.png","stimuli/tools_uppercase.png","stimuli/fish_uppercase.png","265"
"html-button-response-mod","275","390313","0.0-275.0","73730","","","","","","triplet","215.2000000011176","","","","2","stimuli/stim019_inanimate_tree_3.png","stimuli/tree_lowercase.png","stimuli/stim005_animate_bird_1.png","266"
"html-button-response-mod","276","391063","0.0-276.0","73730","","","","","","triplet","247.09999999962747","","","","1","stimuli/face_uppercase.png","stimuli/stim021_inanimate_tools_1.png","stimuli/boats_lowercase.png","267"
"html-button-response-mod","277","391749","0.0-277.0","73730","","","","","","triplet","180.69999999925494","","","","1","stimuli/stim017_inanimate_tree_1.png","stimuli/stim008_animate_bird_4.png","stimuli/stim007_animate_bird_3.png","268"
"html-button-response-mod","278","392460","0.0-278.0","73730","","","","","","triplet","208","","","","1","stimuli/stim007_animate_bird_3.png","stimuli/fish_lowercase.png","stimuli/boats_uppercase.png","269"
"html-button-response-mod","279","393203","0.0-279.0","73730","","","","","","triplet","240.5","","","","2","stimuli/boats_uppercase.png","stimuli/boats_lowercase.png","stimuli/stim024_inanimate_tools_4.png","270"
"html-button-response-mod","280","393921","0.0-280.0","73730","","","","","","triplet","211.89999999850988","","","","1","stimuli/stim002_animate_fish_2.png","stimuli/bird_uppercase.png","stimuli/stim018_inanimate_tree_2.png","271"
"html-button-response-mod","281","394656","0.0-281.0","73730","","","","","","triplet","230","","","","1","stimuli/stim017_inanimate_tree_1.png","stimuli/fish_uppercase.png","stimuli/stim006_animate_bird_2.png","272"
"html-button-response-mod","282","395399","0.0-282.0","73730","","","","","","triplet","239.09999999962747","","","","1","stimuli/stim005_animate_bird_1.png","stimuli/stim016_inanimate_boats_4.png","stimuli/face_lowercase.png","273"
"html-button-response-mod","283","396110","0.0-283.0","73730","","","","","","triplet","207.30000000074506","","","","1","stimuli/stim008_animate_bird_4.png","stimuli/boats_uppercase.png","stimuli/stim018_inanimate_tree_2.png","274"
"html-button-response-mod","284","396853","0.0-284.0","73730","","","","","","triplet","241","","","","1","stimuli/stim003_animate_fish_3.png","stimuli/boats_uppercase.png","stimuli/stim006_animate_bird_2.png","275"
"html-button-response-mod","285","397918","0.0-285.0","73730","","","","","","triplet","563.3999999985099","","","","2","stimuli/stim022_inanimate_tools_2.png","stimuli/fish_lowercase.png","stimuli/stim001_animate_fish_1.png","276"
"html-button-response-mod","286","398669","0.0-286.0","73730","","","","","","triplet","244.30000000074506","","","","2","stimuli/stim020_inanimate_tree_4.png","stimuli/stim021_inanimate_tools_1.png","stimuli/tree_uppercase.png","277"
"html-button-response-mod","287","399388","0.0-287.0","73730","","","","","","triplet","214","","","","1","stimuli/stim022_inanimate_tools_2.png","stimuli/stim015_inanimate_boats_3.png","stimuli/face_uppercase.png","278"
"html-button-response-mod","288","400098","0.0-288.0","73730","","","","","","triplet","205.09999999962747","","","","2","stimuli/stim004_animate_fish_4.png","stimuli/tools_uppercase.png","stimuli/stim005_animate_bird_1.png","279"
"html-button-response-mod","289","400809","0.0-289.0","73730","","","","","","triplet","206.09999999962747","","","","2","stimuli/stim018_inanimate_tree_2.png","stimuli/stim022_inanimate_tools_2.png","stimuli/stim003_animate_fish_3.png","280"
"html-button-response-mod","290","401528","0.0-290.0","73730","","","","","","triplet","215.59999999962747","","","","1","stimuli/stim021_inanimate_tools_1.png","stimuli/stim002_animate_fish_2.png","stimuli/stim024_inanimate_tools_4.png","281"
"html-button-response-mod","291","402221","0.0-291.0","73730","","","","","","triplet","188","","","","2","stimuli/tree_lowercase.png","stimuli/stim011_animate_face_3.png","stimuli/tree_uppercase.png","282"
"html-button-response-mod","292","402948","0.0-292.0","73730","","","","","","triplet","222","","","","1","stimuli/stim006_animate_bird_2.png","stimuli/stim013_inanimate_boats_1.png","stimuli/stim012_animate_face_4.png","283"
"html-button-response-mod","293","403659","0.0-293.0","73730","","","","","","triplet","203.5","","","","2","stimuli/stim024_inanimate_tools_4.png","stimuli/stim016_inanimate_boats_4.png","stimuli/stim011_animate_face_3.png","284"
"html-button-response-mod","294","404353","0.0-294.0","73730","","","","","","triplet","191.89999999850988","","","","2","stimuli/stim007_animate_bird_3.png","stimuli/stim011_animate_face_3.png","stimuli/stim020_inanimate_tree_4.png","285"
"html-button-response-mod","295","405062","0.0-295.0","73730","","","","","","triplet","207.2999999988824","","","","2","stimuli/stim023_inanimate_tools_3.png","stimuli/stim012_animate_face_4.png","stimuli/tree_lowercase.png","286"
"html-button-response-mod","296","405774","0.0-296.0","73730","","","","","","triplet","209.7000000011176","","","","1","stimuli/stim014_inanimate_boats_2.png","stimuli/boats_uppercase.png","stimuli/stim003_animate_fish_3.png","287"
"html-button-response-mod","297","406493","0.0-297.0","73730","","","","","","triplet","216.5","","","","1","stimuli/face_uppercase.png","stimuli/tree_lowercase.png","stimuli/bird_uppercase.png","288"
"html-button-response-mod","298","407211","0.0-298.0","73730","","","","","","triplet","215.69999999925494","","","","2","stimuli/stim010_animate_face_2.png","stimuli/bird_lowercase.png","stimuli/stim005_animate_bird_1.png","289"
"html-button-response-mod","299","407922","0.0-299.0","73730","","","","","","triplet","208.30000000074506","","","","1","stimuli/face_uppercase.png","stimuli/tools_uppercase.png","stimuli/stim022_inanimate_tools_2.png","290"
"html-button-response-mod","300","408622","0.0-300.0","73730","","","","","","triplet","195.90000000037253","","","","1","stimuli/tree_uppercase.png","stimuli/stim013_inanimate_boats_1.png","stimuli/stim017_inanimate_tree_1.png","291"
"html-button-response-mod","301","409318","0.0-301.0","73730","","","","","","triplet","194.09999999962747","","","","1","stimuli/stim011_animate_face_3.png","stimuli/stim024_inanimate_tools_4.png","stimuli/stim017_inanimate_tree_1.png","292"
"html-button-response-mod","302","409988","0.0-302.0","73730","","","","","","triplet","162.7999999988824","","","","2","stimuli/stim012_animate_face_4.png","stimuli/stim023_inanimate_tools_3.png","stimuli/stim019_inanimate_tree_3.png","293"
"html-button-response-mod","303","410868","0.0-303.0","73730","","","","","","triplet","376.09999999962747","","","","1","stimuli/stim005_animate_bird_1.png","stimuli/stim008_animate_bird_4.png","stimuli/stim007_animate_bird_3.png","294"
"html-button-response-mod","304","411595","0.0-304.0","73730","","","","","","triplet","224.59999999962747","","","","2","stimuli/stim013_inanimate_boats_1.png","stimuli/stim001_animate_fish_1.png","stimuli/stim019_inanimate_tree_3.png","295"
"html-button-response-mod","305","412321","0.0-305.0","73730","","","","","","triplet","222.69999999925494","","","","2","stimuli/tree_lowercase.png","stimuli/stim008_animate_bird_4.png","stimuli/stim003_animate_fish_3.png","296"
"html-button-response-mod","306","413032","0.0-306.0","73730","","","","","","triplet","208.80000000074506","","","","2","stimuli/face_lowercase.png","stimuli/stim023_inanimate_tools_3.png","stimuli/stim009_animate_face_1.png","297"
"html-button-response-mod","307","413734","0.0-307.0","73730","","","","","","triplet","195.40000000037253","","","","2","stimuli/stim012_animate_face_4.png","stimuli/stim011_animate_face_3.png","stimuli/stim007_animate_bird_3.png","298"
"html-button-response-mod","308","414466","0.0-308.0","73730","","","","","","triplet","229.2999999988824","","","","2","stimuli/stim008_animate_bird_4.png","stimuli/stim023_inanimate_tools_3.png","stimuli/stim020_inanimate_tree_4.png","299"
"html-button-response","309","415221","0.0-309.0","73730","","","","","","break","251.5","<p>BREAK</p><p>Take a break for as long as you need</p><p>Click the button to continue</p>","0","","","","","",""
"html-button-response-mod","310","415644","0.0-310.0","73730","","","","","","triplet","422","","","","2","stimuli/stim018_inanimate_tree_2.png","stimuli/stim009_animate_face_1.png","stimuli/stim013_inanimate_boats_1.png","300"
"html-button-response-mod","311","416625","0.0-311.0","73730","","","","","","triplet","477.80000000074506","","","","2","stimuli/stim010_animate_face_2.png","stimuli/stim007_animate_bird_3.png","stimuli/stim006_animate_bird_2.png","301"
"html-button-response-mod","312","417262","0.0-312.0","73730","","","","","","triplet","131.09999999962747","","","","2","stimuli/stim020_inanimate_tree_4.png","stimuli/boats_lowercase.png","stimuli/stim018_inanimate_tree_2.png","302"
"html-button-response-mod","313","417892","0.0-313.0","73730","","","","","","triplet","127.30000000074506","","","","2","stimuli/stim017_inanimate_tree_1.png","stimuli/stim005_animate_bird_1.png","stimuli/stim020_inanimate_tree_4.png","303"
"html-button-response-mod","314","418514","0.0-314.0","73730","","","","","","triplet","116.30000000074506","","","","1","stimuli/tools_uppercase.png","stimuli/stim021_inanimate_tools_1.png","stimuli/stim014_inanimate_boats_2.png","304"
"html-button-response-mod","315","419152","0.0-315.0","73730","","","","","","triplet","131.90000000037253","","","","1","stimuli/stim019_inanimate_tree_3.png","stimuli/stim016_inanimate_boats_4.png","stimuli/stim020_inanimate_tree_4.png","305"
"html-button-response-mod","316","419765","0.0-316.0","73730","","","","","","triplet","109.5","","","","1","stimuli/stim011_animate_face_3.png","stimuli/boats_lowercase.png","stimuli/stim024_inanimate_tools_4.png","306"
"html-button-response-mod","317","421776","0.0-317.0","73730","","","","","","triplet","1504.2000000011176","","","","1","stimuli/boats_uppercase.png","stimuli/stim003_animate_fish_3.png","stimuli/stim020_inanimate_tree_4.png","307"
"html-button-response-mod","318","422808","0.0-318.0","73730","","","","","","triplet","525.0999999996275","","","","2","stimuli/face_uppercase.png","stimuli/stim015_inanimate_boats_3.png","stimuli/tools_lowercase.png","308"
"html-button-response-mod","319","423786","0.0-319.0","73730","","","","","","triplet","476","","","","1","stimuli/stim014_inanimate_boats_2.png","stimuli/stim022_inanimate_tools_2.png","stimuli/stim001_animate_fish_1.png","309"
"html-button-response-mod","320","424535","0.0-320.0","73730","","","","","","triplet","246.2000000011176","","","","1","stimuli/stim004_animate_fish_4.png","stimuli/stim012_animate_face_4.png","stimuli/tools_uppercase.png","310"
"html-button-response-mod","321","425514","0.0-321.0","73730","","","","","","triplet","476.2999999988824","","","","1","stimuli/stim019_inanimate_tree_3.png","stimuli/stim007_animate_bird_3.png","stimuli/tree_lowercase.png","311"
"html-button-response-mod","322","426547","0.0-322.0","73730","","","","","","triplet","529.7999999988824","","","","2","stimuli/stim013_inanimate_boats_1.png","stimuli/bird_lowercase.png","stimuli/stim003_animate_fish_3.png","312"
"html-button-response-mod","323","427417","0.0-323.0","73730","","","","","","triplet","362.19999999925494","","","","1","stimuli/stim010_animate_face_2.png","stimuli/stim022_inanimate_tools_2.png","stimuli/tools_uppercase.png","313"
"html-button-response-mod","324","428372","0.0-324.0","73730","","","","","","triplet","453.09999999962747","","","","2","stimuli/fish_lowercase.png","stimuli/stim010_animate_face_2.png","stimuli/boats_uppercase.png","314"
"html-button-response-mod","325","429317","0.0-325.0","73730","","","","","","triplet","441.09999999962747","","","","1","stimuli/stim009_animate_face_1.png","stimuli/stim014_inanimate_boats_2.png","stimuli/stim003_animate_fish_3.png","315"
"html-button-response-mod","326","430220","0.0-326.0","73730","","","","","","triplet","395.2000000011176","","","","2","stimuli/boats_uppercase.png","stimuli/stim002_animate_fish_2.png","stimuli/stim015_inanimate_boats_3.png","316"
"html-button-response-mod","327","431140","0.0-327.0","73730","","","","","","triplet","416.7000000011176","","","","2","stimuli/fish_lowercase.png","stimuli/stim004_animate_fish_4.png","stimuli/stim013_inanimate_boats_1.png","317"
"html-button-response-mod","328","432004","0.0-328.0","73730","","","","","","triplet","360.69999999925494","","","","1","stimuli/stim007_animate_bird_3.png","stimuli/stim016_inanimate_boats_4.png","stimuli/stim018_inanimate_tree_2.png","318"
"html-button-response-mod","329","432917","0.0-329.0","73730","","","","","","triplet","407.30000000074506","","","","2","stimuli/fish_uppercase.png","stimuli/stim020_inanimate_tree_4.png","stimuli/boats_uppercase.png","319"
"html-button-response-mod","330","433773","0.0-330.0","73730","","","","","","triplet","351","","","","1","stimuli/stim020_inanimate_tree_4.png","stimuli/stim017_inanimate_tree_1.png","stimuli/bird_lowercase.png","320"
"html-button-response-mod","331","434645","0.0-331.0","73730","","","","","","triplet","368.5","","","","1","stimuli/stim018_inanimate_tree_2.png","stimuli/tree_uppercase.png","stimuli/stim024_inanimate_tools_4.png","321"
"html-button-response-mod","332","435452","0.0-332.0","73730","","","","","","triplet","305.1000000014901","","","","2","stimuli/tree_uppercase.png","stimuli/stim006_animate_bird_2.png","stimuli/stim010_animate_face_2.png","322"
"html-button-response-mod","333","436268","0.0-333.0","73730","","","","","","triplet","313.29999999701977","","","","2","stimuli/bird_uppercase.png","stimuli/tree_uppercase.png","stimuli/stim011_animate_face_3.png","323"
"html-button-response-mod","334","437083","0.0-334.0","73730","","","","","","triplet","307.19999999925494","","","","2","stimuli/stim002_animate_fish_2.png","stimuli/face_lowercase.png","stimuli/stim023_inanimate_tools_3.png","324"
"html-button-response-mod","335","437850","0.0-335.0","73730","","","","","","triplet","260.5","","","","2","stimuli/tree_uppercase.png","stimuli/stim006_animate_bird_2.png","stimuli/stim024_inanimate_tools_4.png","325"
"html-button-response-mod","336","438865","0.0-336.0","73730","","","","","","triplet","507.69999999925494","","","","2","stimuli/stim024_inanimate_tools_4.png","stimuli/stim004_animate_fish_4.png","stimuli/stim020_inanimate_tree_4.png","326"
"html-button-response-mod","337","439594","0.0-337.0","73730","","","","","","triplet","227.30000000074506","","","","2","stimuli/stim009_animate_face_1.png","stimuli/tree_lowercase.png","stimuli/stim003_animate_fish_3.png","327"
"html-button-response-mod","338","440336","0.0-338.0","73730","","","","","","triplet","239.40000000223517","","","","1","stimuli/bird_lowercase.png","stimuli/stim014_inanimate_boats_2.png","stimuli/stim008_animate_bird_4.png","328"
"html-button-response-mod","339","441057","0.0-339.0","73730","","","","","","triplet","214.19999999925494","","","","2","stimuli/stim015_inanimate_boats_3.png","stimuli/stim021_inanimate_tools_1.png","stimuli/stim020_inanimate_tree_4.png","329"
"html-button-response-mod","340","441838","0.0-340.0","73730","","","","","","triplet","275","","","","2","stimuli/stim009_animate_face_1.png","stimuli/tree_lowercase.png","stimuli/stim015_inanimate_boats_3.png","330"
"html-button-response-mod","341","442581","0.0-341.0","73730","","","","","","triplet","237.80000000074506","","","","2","stimuli/stim020_inanimate_tree_4.png","stimuli/face_uppercase.png","stimuli/stim002_animate_fish_2.png","331"
"html-button-response-mod","342","446347","0.0-342.0","73730","","","","","","triplet","3263.699999999255","","","","0","stimuli/stim003_animate_fish_3.png","stimuli/stim009_animate_face_1.png","stimuli/fish_lowercase.png","332"
"html-button-response-mod","343","448135","0.0-343.0","73730","","","","","","triplet","1285.800000000745","","","","0","stimuli/fish_uppercase.png","stimuli/stim010_animate_face_2.png","stimuli/stim005_animate_bird_1.png","333"
"html-button-response-mod","344","449088","0.0-344.0","73730","","","","","","triplet","450","","","","0","stimuli/stim010_animate_face_2.png","stimuli/fish_uppercase.png","stimuli/stim020_inanimate_tree_4.png","334"
"html-button-response-mod","345","449932","0.0-345.0","73730","","","","","","triplet","342.3999999985099","","","","0","stimuli/stim022_inanimate_tools_2.png","stimuli/stim007_animate_bird_3.png","stimuli/bird_lowercase.png","335"
"html-button-response-mod","346","450759","0.0-346.0","73730","","","","","","triplet","324.5","","","","0","stimuli/tools_lowercase.png","stimuli/stim001_animate_fish_1.png","stimuli/fish_lowercase.png","336"
"html-button-response-mod","347","451562","0.0-347.0","73730","","","","","","triplet","300.6000000014901","","","","0","stimuli/stim016_inanimate_boats_4.png","stimuli/stim011_animate_face_3.png","stimuli/stim014_inanimate_boats_2.png","337"
"html-button-response-mod","348","452354","0.0-348.0","73730","","","","","","triplet","286.80000000074506","","","","0","stimuli/stim017_inanimate_tree_1.png","stimuli/stim024_inanimate_tools_4.png","stimuli/stim007_animate_bird_3.png","338"
"html-button-response-mod","349","453145","0.0-349.0","73730","","","","","","triplet","288.5","","","","0","stimuli/face_lowercase.png","stimuli/tools_lowercase.png","stimuli/stim004_animate_fish_4.png","339"
"html-button-response-mod","350","453920","0.0-350.0","73730","","","","","","triplet","269.3999999985099","","","","0","stimuli/stim016_inanimate_boats_4.png","stimuli/stim024_inanimate_tools_4.png","stimuli/face_uppercase.png","340"
"html-button-response-mod","351","454727","0.0-351.0","73730","","","","","","triplet","301","","","","0","stimuli/stim006_animate_bird_2.png","stimuli/stim013_inanimate_boats_1.png","stimuli/stim007_animate_bird_3.png","341"
"html-button-response-mod","352","455502","0.0-352.0","73730","","","","","","triplet","272.69999999925494","","","","0","stimuli/stim008_animate_bird_4.png","stimuli/stim014_inanimate_boats_2.png","stimuli/stim024_inanimate_tools_4.png","342"
"html-button-response-mod","353","456232","0.0-353.0","73730","","","","","","triplet","227","","","","0","stimuli/tree_lowercase.png","stimuli/stim006_animate_bird_2.png","stimuli/stim014_inanimate_boats_2.png","343"
"html-button-response-mod","354","456994","0.0-354.0","73730","","","","","","triplet","259.69999999925494","","","","0","stimuli/stim002_animate_fish_2.png","stimuli/tree_uppercase.png","stimuli/tools_uppercase.png","344"
"html-button-response-mod","355","457688","0.0-355.0","73730","","","","","","triplet","187.69999999925494","","","","0","stimuli/stim018_inanimate_tree_2.png","stimuli/stim008_animate_bird_4.png","stimuli/stim013_inanimate_boats_1.png","345"
"html-button-response-mod","356","458455","0.0-356.0","73730","","","","","","triplet","259.70000000298023","","","","0","stimuli/tree_lowercase.png","stimuli/stim007_animate_bird_3.png","stimuli/stim011_animate_face_3.png","346"
"html-button-response-mod","357","459151","0.0-357.0","73730","","","","","","triplet","190","","","","0","stimuli/stim017_inanimate_tree_1.png","stimuli/stim010_animate_face_2.png","stimuli/stim003_animate_fish_3.png","347"
"html-button-response-mod","358","459952","0.0-358.0","73730","","","","","","triplet","293.5999999977648","","","","0","stimuli/stim010_animate_face_2.png","stimuli/stim008_animate_bird_4.png","stimuli/stim005_animate_bird_1.png","348"
"html-button-response-mod","359","460768","0.0-359.0","73730","","","","","","triplet","308.6000000014901","","","","0","stimuli/stim001_animate_fish_1.png","stimuli/stim015_inanimate_boats_3.png","stimuli/fish_uppercase.png","349"
"html-button-response","360","463279","0.0-360.0","73730","","","","","","break","2003.9000000022352","<p>BREAK</p><p>Take a break for as long as you need</p><p>Click the button to continue</p>","0","","","","","",""
"html-button-response-mod","361","463553","0.0-361.0","73730","","","","","","triplet","272.5","","","","2","stimuli/bird_uppercase.png","stimuli/stim008_animate_bird_4.png","stimuli/stim013_inanimate_boats_1.png","350"
"html-button-response-mod","362","465717","0.0-362.0","73730","","","","","","triplet","1661.5","","","","1","stimuli/boats_uppercase.png","stimuli/stim015_inanimate_boats_3.png","stimuli/bird_uppercase.png","351"
"html-button-response-mod","363","466427","0.0-363.0","73730","","","","","","triplet","206.19999999925494","","","","2","stimuli/face_uppercase.png","stimuli/stim005_animate_bird_1.png","stimuli/tools_lowercase.png","352"
"html-button-response-mod","364","467259","0.0-364.0","73730","","","","","","triplet","329.1000000014901","","","","1","stimuli/tools_uppercase.png","stimuli/stim012_animate_face_4.png","stimuli/stim015_inanimate_boats_3.png","353"
"html-button-response-mod","365","468080","0.0-365.0","73730","","","","","","triplet","317.6000000014901","","","","2","stimuli/stim002_animate_fish_2.png","stimuli/stim012_animate_face_4.png","stimuli/stim018_inanimate_tree_2.png","354"
"html-button-response-mod","366","468722","0.0-366.0","73730","","","","","","triplet","139","","","","1","stimuli/boats_lowercase.png","stimuli/stim024_inanimate_tools_4.png","stimuli/stim003_animate_fish_3.png","355"
"html-button-response-mod","367","469544","0.0-367.0","73730","","","","","","triplet","316.30000000074506","","","","1","stimuli/stim016_inanimate_boats_4.png","stimuli/stim009_animate_face_1.png","stimuli/stim002_animate_fish_2.png","356"
"html-button-response-mod","368","470344","0.0-368.0","73730","","","","","","triplet","295","","","","1","stimuli/fish_lowercase.png","stimuli/stim021_inanimate_tools_1.png","stimuli/tree_lowercase.png","357"
"html-button-response-mod","369","471111","0.0-369.0","73730","","","","","","triplet","262.3999999985099","","","","1","stimuli/stim012_animate_face_4.png","stimuli/stim011_animate_face_3.png","stimuli/fish_uppercase.png","358"
"html-button-response-mod","370","471947","0.0-370.0","73730","","","","","","triplet","332","","","","2","stimuli/stim020_inanimate_tree_4.png","stimuli/tree_uppercase.png","stimuli/stim016_inanimate_boats_4.png","359"
"html-button-response-mod","371","472742","0.0-371.0","73730","","","","","","triplet","292.30000000074506","","","","2","stimuli/stim003_animate_fish_3.png","stimuli/stim022_inanimate_tools_2.png","stimuli/stim021_inanimate_tools_1.png","360"
"html-button-response-mod","372","473525","0.0-372.0","73730","","","","","","triplet","279.6000000014901","","","","2","stimuli/stim001_animate_fish_1.png","stimuli/stim007_animate_bird_3.png","stimuli/face_uppercase.png","361"
"html-button-response-mod","373","474300","0.0-373.0","73730","","","","","","triplet","268","","","","1","stimuli/stim017_inanimate_tree_1.png","stimuli/stim007_animate_bird_3.png","stimuli/stim009_animate_face_1.png","362"
"html-button-response-mod","374","475058","0.0-374.0","73730","","","","","","triplet","256","","","","1","stimuli/boats_uppercase.png","stimuli/stim008_animate_bird_4.png","stimuli/stim012_animate_face_4.png","363"
"html-button-response-mod","375","475907","0.0-375.0","73730","","","","","","triplet","342.4000000022352","","","","1","stimuli/stim010_animate_face_2.png","stimuli/tools_lowercase.png","stimuli/fish_uppercase.png","364"
"html-button-response-mod","376","476908","0.0-376.0","73730","","","","","","triplet","498.19999999925494","","","","2","stimuli/fish_lowercase.png","stimuli/stim014_inanimate_boats_2.png","stimuli/face_uppercase.png","365"
"html-button-response-mod","377","477764","0.0-377.0","73730","","","","","","triplet","353.69999999925494","","","","1","stimuli/boats_lowercase.png","stimuli/fish_uppercase.png","stimuli/tree_uppercase.png","366"
"html-button-response-mod","378","478619","0.0-378.0","73730","","","","","","triplet","349.1000000014901","","","","1","stimuli/bird_lowercase.png","stimuli/tools_uppercase.png","stimuli/stim008_animate_bird_4.png","367"
"html-button-response-mod","379","479475","0.0-379.0","73730","","","","","","triplet","353.69999999925494","","","","1","stimuli/stim018_inanimate_tree_2.png","stimuli/stim007_animate_bird_3.png","stimuli/fish_uppercase.png","368"
"html-button-response-mod","380","480323","0.0-380.0","73730","","","","","","triplet","343.1000000014901","","","","1","stimuli/boats_lowercase.png","stimuli/tree_uppercase.png","stimuli/tools_uppercase.png","369"
"html-button-response-mod","381","481163","0.0-381.0","73730","","","","","","triplet","332.80000000074506","","","","1","stimuli/fish_uppercase.png","stimuli/bird_lowercase.png","stimuli/stim011_animate_face_3.png","370"
"html-button-response-mod","382","481977","0.0-382.0","73730","","","","","","triplet","308.5999999977648","","","","2","stimuli/stim021_inanimate_tools_1.png","stimuli/stim008_animate_bird_4.png","stimuli/tree_uppercase.png","371"
"html-button-response-mod","383","482818","0.0-383.0","73730","","","","","","triplet","338.29999999701977","","","","1","stimuli/stim006_animate_bird_2.png","stimuli/stim016_inanimate_boats_4.png","stimuli/stim004_animate_fish_4.png","372"
"html-button-response-mod","384","484576","0.0-384.0","73730","","","","","","triplet","1255.7999999970198","","","","1","stimuli/stim013_inanimate_boats_1.png","stimuli/stim018_inanimate_tree_2.png","stimuli/stim016_inanimate_boats_4.png","373"
"html-button-response-mod","385","485223","0.0-385.0","73730","","","","","","triplet","145.19999999925494","","","","1","stimuli/stim024_inanimate_tools_4.png","stimuli/stim019_inanimate_tree_3.png","stimuli/stim022_inanimate_tools_2.png","374"
"html-button-response-mod","386","485878","0.0-386.0","73730","","","","","","triplet","151.30000000074506","","","","1","stimuli/stim013_inanimate_boats_1.png","stimuli/stim021_inanimate_tools_1.png","stimuli/fish_uppercase.png","375"
"html-button-response-mod","387","486814","0.0-387.0","73730","","","","","","triplet","429.19999999925494","","","","2","stimuli/stim015_inanimate_boats_3.png","stimuli/stim010_animate_face_2.png","stimuli/stim008_animate_bird_4.png","376"
"html-button-response-mod","388","488687","0.0-388.0","73730","","","","","","triplet","1369","","","","1","stimuli/stim013_inanimate_boats_1.png","stimuli/boats_lowercase.png","stimuli/stim008_animate_bird_4.png","377"
"html-button-response-mod","389","489382","0.0-389.0","73730","","","","","","triplet","191.30000000074506","","","","2","stimuli/stim005_animate_bird_1.png","stimuli/face_lowercase.png","stimuli/stim020_inanimate_tree_4.png","378"
"html-button-response-mod","390","490093","0.0-390.0","73730","","","","","","triplet","203.09999999776483","","","","2","stimuli/stim010_animate_face_2.png","stimuli/fish_uppercase.png","stimuli/tree_lowercase.png","379"
"html-button-response-mod","391","490730","0.0-391.0","73730","","","","","","triplet","130.39999999850988","","","","1","stimuli/stim002_animate_fish_2.png","stimuli/stim019_inanimate_tree_3.png","stimuli/stim001_animate_fish_1.png","380"
"html-button-response-mod","392","491424","0.0-392.0","73730","","","","","","triplet","192.29999999701977","","","","1","stimuli/tools_uppercase.png","stimuli/stim011_animate_face_3.png","stimuli/stim008_animate_bird_4.png","381"
"html-button-response-mod","393","492345","0.0-393.0","73730","","","","","","triplet","418","","","","2","stimuli/stim011_animate_face_3.png","stimuli/stim013_inanimate_boats_1.png","stimuli/stim006_animate_bird_2.png","382"
"html-button-response-mod","394","493023","0.0-394.0","73730","","","","","","triplet","175.80000000074506","","","","1","stimuli/stim012_animate_face_4.png","stimuli/stim016_inanimate_boats_4.png","stimuli/stim011_animate_face_3.png","383"
"html-button-response-mod","395","493928","0.0-395.0","73730","","","","","","triplet","401.29999999701977","","","","1","stimuli/stim011_animate_face_3.png","stimuli/tree_lowercase.png","stimuli/stim014_inanimate_boats_2.png","384"
"html-button-response-mod","396","494816","0.0-396.0","73730","","","","","","triplet","381.19999999925494","","","","2","stimuli/bird_uppercase.png","stimuli/boats_lowercase.png","stimuli/stim021_inanimate_tools_1.png","385"
"html-button-response-mod","397","495510","0.0-397.0","73730","","","","","","triplet","186.90000000223517","","","","2","stimuli/stim020_inanimate_tree_4.png","stimuli/stim012_animate_face_4.png","stimuli/stim019_inanimate_tree_3.png","386"
"html-button-response-mod","398","496269","0.0-398.0","73730","","","","","","triplet","257.29999999701977","","","","1","stimuli/stim001_animate_fish_1.png","stimuli/face_uppercase.png","stimuli/tools_lowercase.png","387"
"html-button-response-mod","399","496963","0.0-399.0","73730","","","","","","triplet","189.60000000149012","","","","2","stimuli/stim012_animate_face_4.png","stimuli/stim006_animate_bird_2.png","stimuli/stim022_inanimate_tools_2.png","388"
"html-button-response-mod","400","497714","0.0-400.0","73730","","","","","","triplet","248","","","","1","stimuli/boats_lowercase.png","stimuli/stim001_animate_fish_1.png","stimuli/boats_uppercase.png","389"
"html-button-response-mod","401","498416","0.0-401.0","73730","","","","","","triplet","199.69999999925494","","","","2","stimuli/stim016_inanimate_boats_4.png","stimuli/stim013_inanimate_boats_1.png","stimuli/stim011_animate_face_3.png","390"
"html-button-response-mod","402","499353","0.0-402.0","73730","","","","","","triplet","433.80000000074506","","","","2","stimuli/stim024_inanimate_tools_4.png","stimuli/stim001_animate_fish_1.png","stimuli/fish_lowercase.png","391"
"html-button-response-mod","403","500063","0.0-403.0","73730","","","","","","triplet","206.20000000298023","","","","2","stimuli/stim014_inanimate_boats_2.png","stimuli/boats_lowercase.png","stimuli/stim008_animate_bird_4.png","392"
"html-button-response-mod","404","500758","0.0-404.0","73730","","","","","","triplet","189.19999999925494","","","","2","stimuli/bird_lowercase.png","stimuli/stim022_inanimate_tools_2.png","stimuli/boats_uppercase.png","393"
"html-button-response-mod","405","501444","0.0-405.0","73730","","","","","","triplet","178.70000000298023","","","","2","stimuli/stim005_animate_bird_1.png","stimuli/stim014_inanimate_boats_2.png","stimuli/face_lowercase.png","394"
"html-button-response-mod","406","502098","0.0-406.0","73730","","","","","","triplet","146.5","","","","2","stimuli/stim002_animate_fish_2.png","stimuli/bird_lowercase.png","stimuli/tree_lowercase.png","395"
"html-button-response-mod","407","502784","0.0-407.0","73730","","","","","","triplet","181.80000000074506","","","","1","stimuli/boats_uppercase.png","stimuli/stim001_animate_fish_1.png","stimuli/stim002_animate_fish_2.png","396"
"html-button-response-mod","408","503487","0.0-408.0","73730","","","","","","triplet","200.80000000074506","","","","1","stimuli/bird_lowercase.png","stimuli/face_uppercase.png","stimuli/fish_uppercase.png","397"
"html-button-response-mod","409","504496","0.0-409.0","73730","","","","","","triplet","501.69999999925494","","","","1","stimuli/face_lowercase.png","stimuli/stim014_inanimate_boats_2.png","stimuli/stim012_animate_face_4.png","398"
"html-button-response-mod","410","505134","0.0-410.0","73730","","","","","","triplet","134.80000000074506","","","","2","stimuli/stim002_animate_fish_2.png","stimuli/stim018_inanimate_tree_2.png","stimuli/stim011_animate_face_3.png","399"
"html-button-response","411","507363","0.0-411.0","73730","","","","","","break","1726.2000000029802","<p>BREAK</p><p>Take a break for as long as you need</p><p>Click the button to continue</p>","0","","","","","",""
"survey-text","412","512764","0.0-412.0","73730","","","","","","data_patterns","5382.89999999851","","{""Q0"":""""}","","","","","",""
"survey-text","413","518695","0.0-413.0","73730","","","","","","age_question","5928.5","","{""Age"":""21""}","","","","","",""
"html-button-response","414","521799","0.0-414.0","73730","","","","","","gender_question","3102.300000000745","How would you like your gender to be recorded?","4","","","","","",""
