"trial_type","trial_index","time_elapsed","internal_node_id","subject","success","timeout","failed_images","failed_audio","failed_video","test_part","rt","stimulus","response","end_time","button_pressed","stim0","stim1","stim2","trialnr"
"pavlovia","0","6","0.0-0.0","74121","","","","","","","","","","","","","","",""
"preload","1","1667","0.0-1.0","74121","true","false","[]","[]","[]","preload","","","","","","","","",""
"html-button-response","2","9697","0.0-2.0","74121","","","","","","","8029","<p>Welcome to the experiment. To begin, please read the following and press the button at the bottom of the screen.</p><p></p><p><strong>Project Name: A study on cognitive processes involved in visual perception</p></strong><p></p><p><strong>PARTICIPANT INFORMATION STATEMENT</strong></p><p></p><strong>(1) What is the study about?</strong><br>You are invited to participate in a study that investigates the cognitive processes involved in perceiving and recognizing visual stimuli.If you decide to participate, you will be asked to complete a task in which you will view pictures, letters, numbers, or words presented on a computer screen.<br><strong>(2) Who can participate?</strong><br>Anyone aged 18 years or over with access to a computer (not a phone/tablet)<br><strong>(3) Where is the study located?</strong><br>The study will be conducted in your browser<br><strong>(4) Who is carrying out the study?</strong><br>The study is being conducted by Sophia Shatek from the Computational Cognitive Neuroscience laboratory at the University of Sydney.<br><strong>(5) What does the study involve?</strong><br>In this study, you will be asked to perform tasks where you will see different stimuli appear on the computer screen.You will respond by pressing a key or using a computer mouse.<br><strong>(6) How much time will the study take?</strong><br>The study takes about 30 minutes<br><strong>(7)	Can I withdraw from the study?</strong><br>Being in this study is completely voluntary - you are not under any obligation to consent. You can withdraw at any time without having to give a reason and without penalty.<br><strong>(8) Will anyone else know the results?</strong><br>All aspects of the study, including results, will be strictly confidential and only the researchers will have access to information on participants.The results and data from the study may be submitted for publication or shared with other research labs, but individual participants will not be identifiable.<br><strong>(9) Will the study benefit me?</strong><br>You will be awarded 0.5 credits for your participation.<br><strong>(10) Can I tell other people about the study?</strong><br>Yes, please tell them to contact Dr Thomas Carlson by email at thomas.carlson@sydney.edu.au.<br><strong>(11) What if I require further information about the study or my involvement in it?</strong><br>When you have read this information, the investigator will discuss it with you further and answer any questions you may have.If you would like to know more at any stage, please feel free to contact Dr Thomas Carlson directly by email at thomas.carlson@sydney.edu.au.If you would like to be informed about the outcomes of the study, contact Dr Thomas Carlson directly by email at thomas.carlson@sydney.edu.au.<br><strong>(12) What if I have a complaint or any concerns?</strong><br>Any person with concerns or complaints about the conduct of a research study can contact The Manager,Human Ethics Administration, University of Sydney on +61 2 8627 8176 (Telephone); +61 2 8627 8177 (Facsimile) or ro.humanethics@sydney.edu.au (Email).</p><p></p><strong>By participating in this experiment, you consent to participate in this study and acknowledge that:</strong><br>1. The procedures required for the project and the times involved have been explained to me, and any questions I have about the project have been answered to my satisfaction.<br>2.	I have read the Above Information Statement and have been given the opportunity to discuss the information and my involvement in the project with the researcher/s.<br>3. I understand that allowing my data to be used in research reports is completely voluntary - I am not under any obligation to consent.<br>4. I understand that my involvement is strictly confidential. I understand that any research data gathered from the results of the study may be publishedhowever no information about me will be used in any way that is identifiable.</p><p></p>","0","","","","","",""
"html-button-response","3","27379","0.0-3.0","74121","","","","","","opening_instructions","17681","<p>In this experiment, you will see three images appear on the screen.</p><p>You need to click the 'odd one out', or the image </p><p>that is MOST CONCEPTUALLY DIFFERENT to the other two. </p><p>(e.g., the word 'tree' and a picture of a tree are conceptually SIMILAR, </p><p> but the word 'tree' and the word 'boat' are conceptually DIFFERENT even though they look similar) </p><p>Just go with your intuition, don't spend too long thinking about each one.</p>","0","31051.000000000004","","","","",""
"html-button-response-mod","4","28763","0.0-4.0","74121","","","","","","triplet","1384","","","","0","stimuli/stim022_inanimate_tools_2.png","stimuli/stim008_animate_bird_4.png","stimuli/stim007_animate_bird_3.png","0"
"html-button-response-mod","5","30880","0.0-5.0","74121","","","","","","triplet","1614","","","","0","stimuli/stim024_inanimate_tools_4.png","stimuli/stim007_animate_bird_3.png","stimuli/boats_uppercase.png","1"
"html-button-response-mod","6","33996","0.0-6.0","74121","","","","","","triplet","2613","","","","0","stimuli/stim018_inanimate_tree_2.png","stimuli/stim010_animate_face_2.png","stimuli/stim011_animate_face_3.png","2"
"html-button-response-mod","7","37229","0.0-7.0","74121","","","","","","triplet","2731","","","","2","stimuli/fish_uppercase.png","stimuli/stim014_inanimate_boats_2.png","stimuli/bird_uppercase.png","3"
"html-button-response-mod","8","39513","0.0-8.0","74121","","","","","","triplet","1781","","","","2","stimuli/stim016_inanimate_boats_4.png","stimuli/stim004_animate_fish_4.png","stimuli/tree_uppercase.png","4"
"html-button-response-mod","9","41863","0.0-9.0","74121","","","","","","triplet","1848","","","","1","stimuli/stim007_animate_bird_3.png","stimuli/stim012_animate_face_4.png","stimuli/stim002_animate_fish_2.png","5"
"html-button-response-mod","10","45579","0.0-10.0","74121","","","","","","triplet","3214","","","","0","stimuli/fish_uppercase.png","stimuli/boats_lowercase.png","stimuli/boats_uppercase.png","6"
"html-button-response-mod","11","48879","0.0-11.0","74121","","","","","","triplet","2797.0000000000073","","","","0","stimuli/stim024_inanimate_tools_4.png","stimuli/bird_uppercase.png","stimuli/stim006_animate_bird_2.png","7"
"html-button-response-mod","12","51929","0.0-12.0","74121","","","","","","triplet","2546.9999999999927","","","","1","stimuli/stim010_animate_face_2.png","stimuli/stim023_inanimate_tools_3.png","stimuli/stim005_animate_bird_1.png","8"
"html-button-response-mod","13","53879","0.0-13.0","74121","","","","","","triplet","1448","","","","1","stimuli/fish_uppercase.png","stimuli/tree_lowercase.png","stimuli/stim002_animate_fish_2.png","9"
"html-button-response-mod","14","56162","0.0-14.0","74121","","","","","","triplet","1780","","","","0","stimuli/stim009_animate_face_1.png","stimuli/stim003_animate_fish_3.png","stimuli/stim016_inanimate_boats_4.png","10"
"html-button-response-mod","15","61062","0.0-15.0","74121","","","","","","triplet","4397.999999999993","","","","0","stimuli/stim011_animate_face_3.png","stimuli/stim004_animate_fish_4.png","stimuli/stim018_inanimate_tree_2.png","11"
"html-button-response-mod","16","65712","0.0-16.0","74121","","","","","","triplet","4147.999999999993","","","","0","stimuli/stim013_inanimate_boats_1.png","stimuli/tree_lowercase.png","stimuli/tree_uppercase.png","12"
"html-button-response-mod","17","68078","0.0-17.0","74121","","","","","","triplet","1863","","","","2","stimuli/stim010_animate_face_2.png","stimuli/face_lowercase.png","stimuli/stim016_inanimate_boats_4.png","13"
"html-button-response-mod","18","70511","0.0-18.0","74121","","","","","","triplet","1931","","","","1","stimuli/stim001_animate_fish_1.png","stimuli/stim016_inanimate_boats_4.png","stimuli/stim006_animate_bird_2.png","14"
"html-button-response-mod","19","73895","0.0-19.0","74121","","","","","","triplet","2881","","","","1","stimuli/tree_uppercase.png","stimuli/stim009_animate_face_1.png","stimuli/boats_lowercase.png","15"
"html-button-response-mod","20","76211","0.0-20.0","74121","","","","","","triplet","1814","","","","0","stimuli/stim012_animate_face_4.png","stimuli/stim004_animate_fish_4.png","stimuli/stim005_animate_bird_1.png","16"
"html-button-response-mod","21","80378","0.0-21.0","74121","","","","","","triplet","3665","","","","2","stimuli/stim011_animate_face_3.png","stimuli/bird_lowercase.png","stimuli/tree_uppercase.png","17"
"html-button-response-mod","22","83494","0.0-22.0","74121","","","","","","triplet","2613","","","","0","stimuli/stim012_animate_face_4.png","stimuli/fish_uppercase.png","stimuli/stim005_animate_bird_1.png","18"
"html-button-response-mod","23","88493","0.0-23.0","74121","","","","","","triplet","4497","","","","0","stimuli/stim011_animate_face_3.png","stimuli/tools_lowercase.png","stimuli/stim015_inanimate_boats_3.png","19"
"html-button-response-mod","24","91294","0.0-24.0","74121","","","","","","triplet","2299.0000000000146","","","","1","stimuli/stim019_inanimate_tree_3.png","stimuli/stim024_inanimate_tools_4.png","stimuli/tree_uppercase.png","20"
"html-button-response-mod","25","97294","0.0-25.0","74121","","","","","","triplet","5498.000000000015","","","","2","stimuli/tree_lowercase.png","stimuli/boats_lowercase.png","stimuli/tools_lowercase.png","21"
"html-button-response-mod","26","101527","0.0-26.0","74121","","","","","","triplet","3731","","","","1","stimuli/tree_lowercase.png","stimuli/stim006_animate_bird_2.png","stimuli/boats_uppercase.png","22"
"html-button-response-mod","27","103577","0.0-27.0","74121","","","","","","triplet","1547","","","","1","stimuli/tree_lowercase.png","stimuli/face_uppercase.png","stimuli/stim024_inanimate_tools_4.png","23"
"html-button-response-mod","28","108776","0.0-28.0","74121","","","","","","triplet","4697.000000000015","","","","0","stimuli/stim014_inanimate_boats_2.png","stimuli/stim006_animate_bird_2.png","stimuli/stim004_animate_fish_4.png","24"
"html-button-response-mod","29","110427","0.0-29.0","74121","","","","","","triplet","1150","","","","1","stimuli/face_uppercase.png","stimuli/stim024_inanimate_tools_4.png","stimuli/stim011_animate_face_3.png","25"
"html-button-response-mod","30","112377","0.0-30.0","74121","","","","","","triplet","1447","","","","0","stimuli/bird_uppercase.png","stimuli/stim011_animate_face_3.png","stimuli/stim013_inanimate_boats_1.png","26"
"html-button-response-mod","31","115110","0.0-31.0","74121","","","","","","triplet","2230","","","","2","stimuli/bird_uppercase.png","stimuli/stim004_animate_fish_4.png","stimuli/face_lowercase.png","27"
"html-button-response-mod","32","117143","0.0-32.0","74121","","","","","","triplet","1530","","","","2","stimuli/face_lowercase.png","stimuli/stim003_animate_fish_3.png","stimuli/boats_lowercase.png","28"
"html-button-response-mod","33","121743","0.0-33.0","74121","","","","","","triplet","4098","","","","2","stimuli/bird_lowercase.png","stimuli/stim005_animate_bird_1.png","stimuli/fish_uppercase.png","29"
"html-button-response-mod","34","126026","0.0-34.0","74121","","","","","","triplet","3782.0000000000146","","","","2","stimuli/tree_uppercase.png","stimuli/stim012_animate_face_4.png","stimuli/stim024_inanimate_tools_4.png","30"
"html-button-response-mod","35","128460","0.0-35.0","74121","","","","","","triplet","1931","","","","1","stimuli/boats_uppercase.png","stimuli/stim006_animate_bird_2.png","stimuli/stim015_inanimate_boats_3.png","31"
"html-button-response-mod","36","132793","0.0-36.0","74121","","","","","","triplet","3830","","","","1","stimuli/stim008_animate_bird_4.png","stimuli/stim012_animate_face_4.png","stimuli/stim019_inanimate_tree_3.png","32"
"html-button-response-mod","37","136760","0.0-37.0","74121","","","","","","triplet","3464.000000000029","","","","2","stimuli/stim013_inanimate_boats_1.png","stimuli/tree_uppercase.png","stimuli/bird_uppercase.png","33"
"html-button-response-mod","38","139326","0.0-38.0","74121","","","","","","triplet","2063","","","","2","stimuli/stim008_animate_bird_4.png","stimuli/stim007_animate_bird_3.png","stimuli/stim014_inanimate_boats_2.png","34"
"html-button-response-mod","39","141475","0.0-39.0","74121","","","","","","triplet","1647","","","","0","stimuli/fish_lowercase.png","stimuli/stim022_inanimate_tools_2.png","stimuli/tools_lowercase.png","35"
"html-button-response-mod","40","146559","0.0-40.0","74121","","","","","","triplet","4582","","","","2","stimuli/stim011_animate_face_3.png","stimuli/fish_uppercase.png","stimuli/stim024_inanimate_tools_4.png","36"
"html-button-response-mod","41","149659","0.0-41.0","74121","","","","","","triplet","2597.000000000029","","","","0","stimuli/stim017_inanimate_tree_1.png","stimuli/stim002_animate_fish_2.png","stimuli/bird_lowercase.png","37"
"html-button-response-mod","42","151625","0.0-42.0","74121","","","","","","triplet","1465","","","","1","stimuli/stim008_animate_bird_4.png","stimuli/stim014_inanimate_boats_2.png","stimuli/stim017_inanimate_tree_1.png","38"
"html-button-response-mod","43","157126","0.0-43.0","74121","","","","","","triplet","4998","","","","0","stimuli/stim021_inanimate_tools_1.png","stimuli/stim014_inanimate_boats_2.png","stimuli/stim016_inanimate_boats_4.png","39"
"html-button-response-mod","44","159492","0.0-44.0","74121","","","","","","triplet","1865","","","","0","stimuli/stim022_inanimate_tools_2.png","stimuli/stim005_animate_bird_1.png","stimuli/stim002_animate_fish_2.png","40"
"html-button-response-mod","45","161925","0.0-45.0","74121","","","","","","triplet","1931","","","","0","stimuli/face_uppercase.png","stimuli/stim005_animate_bird_1.png","stimuli/stim001_animate_fish_1.png","41"
"html-button-response-mod","46","164225","0.0-46.0","74121","","","","","","triplet","1798","","","","1","stimuli/face_uppercase.png","stimuli/tree_uppercase.png","stimuli/stim011_animate_face_3.png","42"
"html-button-response-mod","47","166592","0.0-47.0","74121","","","","","","triplet","1865.000000000029","","","","0","stimuli/tools_uppercase.png","stimuli/stim002_animate_fish_2.png","stimuli/stim006_animate_bird_2.png","43"
"html-button-response-mod","48","170325","0.0-48.0","74121","","","","","","triplet","3232","","","","1","stimuli/stim013_inanimate_boats_1.png","stimuli/stim023_inanimate_tools_3.png","stimuli/stim018_inanimate_tree_2.png","44"
"html-button-response-mod","49","172625","0.0-49.0","74121","","","","","","triplet","1798","","","","0","stimuli/tools_lowercase.png","stimuli/face_lowercase.png","stimuli/stim010_animate_face_2.png","45"
"html-button-response-mod","50","176924","0.0-50.0","74121","","","","","","triplet","3797","","","","0","stimuli/stim024_inanimate_tools_4.png","stimuli/stim010_animate_face_2.png","stimuli/stim011_animate_face_3.png","46"
"html-button-response-mod","51","180224","0.0-51.0","74121","","","","","","triplet","2797.999999999971","","","","1","stimuli/stim004_animate_fish_4.png","stimuli/stim021_inanimate_tools_1.png","stimuli/stim011_animate_face_3.png","47"
"html-button-response-mod","52","183558","0.0-52.0","74121","","","","","","triplet","2833","","","","0","stimuli/tools_lowercase.png","stimuli/stim005_animate_bird_1.png","stimuli/fish_lowercase.png","48"
"html-button-response-mod","53","187708","0.0-53.0","74121","","","","","","triplet","3648","","","","0","stimuli/stim004_animate_fish_4.png","stimuli/stim012_animate_face_4.png","stimuli/face_lowercase.png","49"
"html-button-response","54","228440","0.0-54.0","74121","","","","","","break","40230","<p>BREAK</p><p>Take a break for as long as you need</p><p>Click the button to continue</p>","0","","","","","",""
"html-button-response-mod","55","230523","0.0-55.0","74121","","","","","","triplet","2082","","","","1","stimuli/stim007_animate_bird_3.png","stimuli/fish_uppercase.png","stimuli/bird_lowercase.png","50"
"html-button-response-mod","56","237556","0.0-56.0","74121","","","","","","triplet","6530","","","","0","stimuli/stim018_inanimate_tree_2.png","stimuli/stim005_animate_bird_1.png","stimuli/stim002_animate_fish_2.png","51"
"html-button-response-mod","57","239706","0.0-57.0","74121","","","","","","triplet","1647.000000000029","","","","2","stimuli/stim011_animate_face_3.png","stimuli/stim020_inanimate_tree_4.png","stimuli/stim024_inanimate_tools_4.png","52"
"html-button-response-mod","58","241506","0.0-58.0","74121","","","","","","triplet","1298","","","","1","stimuli/stim003_animate_fish_3.png","stimuli/stim015_inanimate_boats_3.png","stimuli/stim010_animate_face_2.png","53"
"html-button-response-mod","59","243106","0.0-59.0","74121","","","","","","triplet","1096.999999999971","","","","0","stimuli/stim024_inanimate_tools_4.png","stimuli/stim006_animate_bird_2.png","stimuli/stim008_animate_bird_4.png","54"
"html-button-response-mod","60","244639","0.0-60.0","74121","","","","","","triplet","1030","","","","2","stimuli/stim012_animate_face_4.png","stimuli/stim009_animate_face_1.png","stimuli/bird_lowercase.png","55"
"html-button-response-mod","61","248721","0.0-61.0","74121","","","","","","triplet","3580","","","","1","stimuli/stim022_inanimate_tools_2.png","stimuli/fish_uppercase.png","stimuli/boats_lowercase.png","56"
"html-button-response-mod","62","253239","0.0-62.0","74121","","","","","","triplet","4014.999999999971","","","","2","stimuli/stim018_inanimate_tree_2.png","stimuli/stim014_inanimate_boats_2.png","stimuli/stim021_inanimate_tools_1.png","57"
"html-button-response-mod","63","255422","0.0-63.0","74121","","","","","","triplet","1681.000000000029","","","","0","stimuli/stim009_animate_face_1.png","stimuli/stim014_inanimate_boats_2.png","stimuli/stim015_inanimate_boats_3.png","58"
"html-button-response-mod","64","257622","0.0-64.0","74121","","","","","","triplet","1698","","","","1","stimuli/boats_uppercase.png","stimuli/stim011_animate_face_3.png","stimuli/tree_uppercase.png","59"
"html-button-response-mod","65","260572","0.0-65.0","74121","","","","","","triplet","2447","","","","0","stimuli/fish_lowercase.png","stimuli/boats_lowercase.png","stimuli/stim013_inanimate_boats_1.png","60"
"html-button-response-mod","66","264572","0.0-66.0","74121","","","","","","triplet","3498","","","","1","stimuli/stim023_inanimate_tools_3.png","stimuli/stim008_animate_bird_4.png","stimuli/stim016_inanimate_boats_4.png","61"
"html-button-response-mod","67","267239","0.0-67.0","74121","","","","","","triplet","2166","","","","2","stimuli/stim002_animate_fish_2.png","stimuli/stim019_inanimate_tree_3.png","stimuli/stim014_inanimate_boats_2.png","62"
"html-button-response-mod","68","275538","0.0-68.0","74121","","","","","","triplet","7798","","","","0","stimuli/stim011_animate_face_3.png","stimuli/stim004_animate_fish_4.png","stimuli/stim005_animate_bird_1.png","63"
"html-button-response-mod","69","277804","0.0-69.0","74121","","","","","","triplet","1764.0000000000582","","","","1","stimuli/stim015_inanimate_boats_3.png","stimuli/face_uppercase.png","stimuli/stim013_inanimate_boats_1.png","64"
"html-button-response-mod","70","284121","0.0-70.0","74121","","","","","","triplet","5815","","","","0","stimuli/stim003_animate_fish_3.png","stimuli/tree_lowercase.png","stimuli/stim019_inanimate_tree_3.png","65"
"html-button-response-mod","71","290488","0.0-71.0","74121","","","","","","triplet","5865","","","","1","stimuli/stim005_animate_bird_1.png","stimuli/stim016_inanimate_boats_4.png","stimuli/stim012_animate_face_4.png","66"
"html-button-response-mod","72","292771","0.0-72.0","74121","","","","","","triplet","1781","","","","2","stimuli/stim005_animate_bird_1.png","stimuli/stim001_animate_fish_1.png","stimuli/tree_lowercase.png","67"
"html-button-response-mod","73","293639","0.0-73.0","74121","","","","","","triplet","366","","","","2","stimuli/stim019_inanimate_tree_3.png","stimuli/fish_lowercase.png","stimuli/stim013_inanimate_boats_1.png","68"
"html-button-response-mod","74","296389","0.0-74.0","74121","","","","","","triplet","2247","","","","2","stimuli/face_lowercase.png","stimuli/fish_lowercase.png","stimuli/tree_uppercase.png","69"
"html-button-response-mod","75","300522","0.0-75.0","74121","","","","","","triplet","3631","","","","0","stimuli/bird_uppercase.png","stimuli/stim019_inanimate_tree_3.png","stimuli/stim016_inanimate_boats_4.png","70"
"html-button-response-mod","76","302555","0.0-76.0","74121","","","","","","triplet","1531","","","","0","stimuli/tree_uppercase.png","stimuli/bird_lowercase.png","stimuli/stim004_animate_fish_4.png","71"
"html-button-response-mod","77","307955","0.0-77.0","74121","","","","","","triplet","4899","","","","0","stimuli/stim017_inanimate_tree_1.png","stimuli/face_lowercase.png","stimuli/stim001_animate_fish_1.png","72"
"html-button-response-mod","78","311936","0.0-78.0","74121","","","","","","triplet","3479","","","","2","stimuli/stim013_inanimate_boats_1.png","stimuli/stim015_inanimate_boats_3.png","stimuli/fish_lowercase.png","73"
"html-button-response-mod","79","314553","0.0-79.0","74121","","","","","","triplet","2115.000000000058","","","","1","stimuli/fish_lowercase.png","stimuli/stim009_animate_face_1.png","stimuli/stim007_animate_bird_3.png","74"
"html-button-response-mod","80","316371","0.0-80.0","74121","","","","","","triplet","1317","","","","1","stimuli/tree_uppercase.png","stimuli/stim021_inanimate_tools_1.png","stimuli/face_lowercase.png","75"
"html-button-response-mod","81","320119","0.0-81.0","74121","","","","","","triplet","3245","","","","2","stimuli/stim017_inanimate_tree_1.png","stimuli/tree_uppercase.png","stimuli/stim021_inanimate_tools_1.png","76"
"html-button-response-mod","82","326586","0.0-82.0","74121","","","","","","triplet","5965","","","","0","stimuli/stim016_inanimate_boats_4.png","stimuli/stim002_animate_fish_2.png","stimuli/stim005_animate_bird_1.png","77"
"html-button-response-mod","83","329202","0.0-83.0","74121","","","","","","triplet","2115.000000000058","","","","0","stimuli/stim021_inanimate_tools_1.png","stimuli/stim010_animate_face_2.png","stimuli/fish_lowercase.png","78"
"html-button-response-mod","84","331721","0.0-84.0","74121","","","","","","triplet","2017","","","","0","stimuli/stim014_inanimate_boats_2.png","stimuli/stim004_animate_fish_4.png","stimuli/fish_lowercase.png","79"
"html-button-response-mod","85","333902","0.0-85.0","74121","","","","","","triplet","1679","","","","1","stimuli/stim002_animate_fish_2.png","stimuli/tools_uppercase.png","stimuli/stim020_inanimate_tree_4.png","80"
"html-button-response-mod","86","336471","0.0-86.0","74121","","","","","","triplet","2066.999999999942","","","","1","stimuli/tools_lowercase.png","stimuli/stim015_inanimate_boats_3.png","stimuli/tools_uppercase.png","81"
"html-button-response-mod","87","342086","0.0-87.0","74121","","","","","","triplet","5113","","","","1","stimuli/fish_lowercase.png","stimuli/stim019_inanimate_tree_3.png","stimuli/stim008_animate_bird_4.png","82"
"html-button-response-mod","88","345237","0.0-88.0","74121","","","","","","triplet","2647.999999999942","","","","2","stimuli/stim002_animate_fish_2.png","stimuli/stim007_animate_bird_3.png","stimuli/stim013_inanimate_boats_1.png","83"
"html-button-response-mod","89","347787","0.0-89.0","74121","","","","","","triplet","2048","","","","1","stimuli/stim003_animate_fish_3.png","stimuli/bird_lowercase.png","stimuli/stim001_animate_fish_1.png","84"
"html-button-response-mod","90","350885","0.0-90.0","74121","","","","","","triplet","2596","","","","2","stimuli/stim017_inanimate_tree_1.png","stimuli/stim009_animate_face_1.png","stimuli/stim024_inanimate_tools_4.png","85"
"html-button-response-mod","91","353935","0.0-91.0","74121","","","","","","triplet","2550","","","","0","stimuli/stim010_animate_face_2.png","stimuli/fish_lowercase.png","stimuli/bird_uppercase.png","86"
"html-button-response-mod","92","356319","0.0-92.0","74121","","","","","","triplet","1881","","","","2","stimuli/boats_lowercase.png","stimuli/stim013_inanimate_boats_1.png","stimuli/stim021_inanimate_tools_1.png","87"
"html-button-response-mod","93","358135","0.0-93.0","74121","","","","","","triplet","1313","","","","2","stimuli/stim014_inanimate_boats_2.png","stimuli/stim015_inanimate_boats_3.png","stimuli/stim021_inanimate_tools_1.png","88"
"html-button-response-mod","94","364820","0.0-94.0","74121","","","","","","triplet","6182","","","","2","stimuli/stim004_animate_fish_4.png","stimuli/face_uppercase.png","stimuli/stim019_inanimate_tree_3.png","89"
"html-button-response-mod","95","369034","0.0-95.0","74121","","","","","","triplet","3713","","","","2","stimuli/stim013_inanimate_boats_1.png","stimuli/tree_uppercase.png","stimuli/stim024_inanimate_tools_4.png","90"
"html-button-response-mod","96","375400","0.0-96.0","74121","","","","","","triplet","5865","","","","1","stimuli/bird_uppercase.png","stimuli/stim005_animate_bird_1.png","stimuli/bird_lowercase.png","91"
"html-button-response-mod","97","377335","0.0-97.0","74121","","","","","","triplet","1433","","","","2","stimuli/stim007_animate_bird_3.png","stimuli/stim008_animate_bird_4.png","stimuli/stim010_animate_face_2.png","92"
"html-button-response-mod","98","380552","0.0-98.0","74121","","","","","","triplet","2714","","","","1","stimuli/stim018_inanimate_tree_2.png","stimuli/face_uppercase.png","stimuli/boats_uppercase.png","93"
"html-button-response-mod","99","384002","0.0-99.0","74121","","","","","","triplet","2948","","","","2","stimuli/boats_lowercase.png","stimuli/stim023_inanimate_tools_3.png","stimuli/stim007_animate_bird_3.png","94"
"html-button-response-mod","100","386750","0.0-100.0","74121","","","","","","triplet","2247","","","","0","stimuli/stim017_inanimate_tree_1.png","stimuli/stim001_animate_fish_1.png","stimuli/stim004_animate_fish_4.png","95"
"html-button-response-mod","101","390968","0.0-101.0","74121","","","","","","triplet","3716","","","","2","stimuli/bird_lowercase.png","stimuli/stim001_animate_fish_1.png","stimuli/stim021_inanimate_tools_1.png","96"
"html-button-response-mod","102","395784","0.0-102.0","74121","","","","","","triplet","4316","","","","1","stimuli/stim022_inanimate_tools_2.png","stimuli/stim019_inanimate_tree_3.png","stimuli/stim013_inanimate_boats_1.png","97"
"html-button-response-mod","103","398667","0.0-103.0","74121","","","","","","triplet","2381.999999999942","","","","2","stimuli/stim024_inanimate_tools_4.png","stimuli/stim022_inanimate_tools_2.png","stimuli/stim009_animate_face_1.png","98"
"html-button-response-mod","104","400716","0.0-104.0","74121","","","","","","triplet","1547","","","","0","stimuli/stim014_inanimate_boats_2.png","stimuli/stim011_animate_face_3.png","stimuli/stim009_animate_face_1.png","99"
"html-button-response","105","463214","0.0-105.0","74121","","","","","","break","61998","<p>BREAK</p><p>Take a break for as long as you need</p><p>Click the button to continue</p>","0","","","","","",""
"html-button-response-mod","106","465614","0.0-106.0","74121","","","","","","triplet","2399","","","","2","stimuli/stim012_animate_face_4.png","stimuli/stim003_animate_fish_3.png","stimuli/stim014_inanimate_boats_2.png","100"
"html-button-response-mod","107","467447","0.0-107.0","74121","","","","","","triplet","1332","","","","0","stimuli/tools_uppercase.png","stimuli/stim010_animate_face_2.png","stimuli/fish_lowercase.png","101"
"html-button-response-mod","108","469031","0.0-108.0","74121","","","","","","triplet","1084","","","","1","stimuli/bird_uppercase.png","stimuli/stim024_inanimate_tools_4.png","stimuli/stim008_animate_bird_4.png","102"
"html-button-response-mod","109","471697","0.0-109.0","74121","","","","","","triplet","2163","","","","1","stimuli/stim003_animate_fish_3.png","stimuli/stim017_inanimate_tree_1.png","stimuli/bird_lowercase.png","103"
"html-button-response-mod","110","474197","0.0-110.0","74121","","","","","","triplet","1998","","","","2","stimuli/stim018_inanimate_tree_2.png","stimuli/stim001_animate_fish_1.png","stimuli/stim022_inanimate_tools_2.png","104"
"html-button-response-mod","111","477197","0.0-111.0","74121","","","","","","triplet","2498","","","","1","stimuli/stim021_inanimate_tools_1.png","stimuli/stim020_inanimate_tree_4.png","stimuli/stim013_inanimate_boats_1.png","105"
"html-button-response-mod","112","479230","0.0-112.0","74121","","","","","","triplet","1533","","","","1","stimuli/face_uppercase.png","stimuli/stim024_inanimate_tools_4.png","stimuli/stim006_animate_bird_2.png","106"
"html-button-response-mod","113","481447","0.0-113.0","74121","","","","","","triplet","1715","","","","1","stimuli/stim009_animate_face_1.png","stimuli/bird_uppercase.png","stimuli/face_uppercase.png","107"
"html-button-response-mod","114","483196","0.0-114.0","74121","","","","","","triplet","1248","","","","1","stimuli/tree_lowercase.png","stimuli/stim005_animate_bird_1.png","stimuli/stim017_inanimate_tree_1.png","108"
"html-button-response-mod","115","487196","0.0-115.0","74121","","","","","","triplet","3498","","","","2","stimuli/stim014_inanimate_boats_2.png","stimuli/bird_lowercase.png","stimuli/stim017_inanimate_tree_1.png","109"
"html-button-response-mod","116","491429","0.0-116.0","74121","","","","","","triplet","3732","","","","1","stimuli/bird_uppercase.png","stimuli/stim024_inanimate_tools_4.png","stimuli/fish_uppercase.png","110"
"html-button-response-mod","117","497463","0.0-117.0","74121","","","","","","triplet","5533","","","","2","stimuli/stim012_animate_face_4.png","stimuli/stim017_inanimate_tree_1.png","stimuli/boats_uppercase.png","111"
"html-button-response-mod","118","499946","0.0-118.0","74121","","","","","","triplet","1983","","","","0","stimuli/stim006_animate_bird_2.png","stimuli/stim019_inanimate_tree_3.png","stimuli/stim020_inanimate_tree_4.png","112"
"html-button-response-mod","119","504162","0.0-119.0","74121","","","","","","triplet","3715","","","","1","stimuli/stim011_animate_face_3.png","stimuli/stim023_inanimate_tools_3.png","stimuli/stim004_animate_fish_4.png","113"
"html-button-response-mod","120","507446","0.0-120.0","74121","","","","","","triplet","2783","","","","2","stimuli/fish_lowercase.png","stimuli/stim019_inanimate_tree_3.png","stimuli/stim016_inanimate_boats_4.png","114"
"html-button-response-mod","121","509845","0.0-121.0","74121","","","","","","triplet","1897.9999999999418","","","","2","stimuli/stim011_animate_face_3.png","stimuli/face_uppercase.png","stimuli/stim006_animate_bird_2.png","115"
"html-button-response-mod","122","511829","0.0-122.0","74121","","","","","","triplet","1482.9999999999418","","","","1","stimuli/face_uppercase.png","stimuli/boats_lowercase.png","stimuli/stim010_animate_face_2.png","116"
"html-button-response-mod","123","514162","0.0-123.0","74121","","","","","","triplet","1831.9999999999418","","","","1","stimuli/bird_uppercase.png","stimuli/stim004_animate_fish_4.png","stimuli/stim008_animate_bird_4.png","117"
"html-button-response-mod","124","517246","0.0-124.0","74121","","","","","","triplet","2582","","","","0","stimuli/stim012_animate_face_4.png","stimuli/stim001_animate_fish_1.png","stimuli/stim007_animate_bird_3.png","118"
"html-button-response-mod","125","520462","0.0-125.0","74121","","","","","","triplet","2715.000000000058","","","","0","stimuli/tree_uppercase.png","stimuli/fish_lowercase.png","stimuli/stim016_inanimate_boats_4.png","119"
"html-button-response-mod","126","522428","0.0-126.0","74121","","","","","","triplet","1465","","","","1","stimuli/stim003_animate_fish_3.png","stimuli/tools_lowercase.png","stimuli/stim006_animate_bird_2.png","120"
"html-button-response-mod","127","527045","0.0-127.0","74121","","","","","","triplet","4116","","","","1","stimuli/stim011_animate_face_3.png","stimuli/stim018_inanimate_tree_2.png","stimuli/fish_lowercase.png","121"
"html-button-response-mod","128","531178","0.0-128.0","74121","","","","","","triplet","3632","","","","1","stimuli/stim013_inanimate_boats_1.png","stimuli/stim023_inanimate_tools_3.png","stimuli/stim012_animate_face_4.png","122"
"html-button-response-mod","129","534244","0.0-129.0","74121","","","","","","triplet","2566","","","","0","stimuli/bird_lowercase.png","stimuli/face_lowercase.png","stimuli/stim009_animate_face_1.png","123"
"html-button-response-mod","130","538928","0.0-130.0","74121","","","","","","triplet","4181","","","","0","stimuli/stim022_inanimate_tools_2.png","stimuli/stim010_animate_face_2.png","stimuli/stim006_animate_bird_2.png","124"
"html-button-response-mod","131","541411","0.0-131.0","74121","","","","","","triplet","1981","","","","2","stimuli/boats_lowercase.png","stimuli/stim023_inanimate_tools_3.png","stimuli/stim012_animate_face_4.png","125"
"html-button-response-mod","132","544494","0.0-132.0","74121","","","","","","triplet","2582","","","","1","stimuli/tree_lowercase.png","stimuli/stim023_inanimate_tools_3.png","stimuli/bird_uppercase.png","126"
"html-button-response-mod","133","549294","0.0-133.0","74121","","","","","","triplet","4298","","","","0","stimuli/boats_lowercase.png","stimuli/stim020_inanimate_tree_4.png","stimuli/fish_lowercase.png","127"
"html-button-response-mod","134","553494","0.0-134.0","74121","","","","","","triplet","3699","","","","0","stimuli/tree_lowercase.png","stimuli/stim016_inanimate_boats_4.png","stimuli/tools_uppercase.png","128"
"html-button-response-mod","135","558278","0.0-135.0","74121","","","","","","triplet","4281.000000000116","","","","0","stimuli/stim016_inanimate_boats_4.png","stimuli/stim008_animate_bird_4.png","stimuli/stim004_animate_fish_4.png","129"
"html-button-response-mod","136","561395","0.0-136.0","74121","","","","","","triplet","2614","","","","2","stimuli/stim010_animate_face_2.png","stimuli/stim002_animate_fish_2.png","stimuli/stim014_inanimate_boats_2.png","130"
"html-button-response-mod","137","562994","0.0-137.0","74121","","","","","","triplet","1098","","","","1","stimuli/stim002_animate_fish_2.png","stimuli/stim020_inanimate_tree_4.png","stimuli/stim006_animate_bird_2.png","131"
"html-button-response-mod","138","565745","0.0-138.0","74121","","","","","","triplet","2248","","","","1","stimuli/face_lowercase.png","stimuli/tree_lowercase.png","stimuli/stim023_inanimate_tools_3.png","132"
"html-button-response-mod","139","568561","0.0-139.0","74121","","","","","","triplet","2313","","","","2","stimuli/stim006_animate_bird_2.png","stimuli/fish_lowercase.png","stimuli/stim014_inanimate_boats_2.png","133"
"html-button-response-mod","140","570861","0.0-140.0","74121","","","","","","triplet","1798","","","","2","stimuli/stim015_inanimate_boats_3.png","stimuli/stim013_inanimate_boats_1.png","stimuli/tools_uppercase.png","134"
"html-button-response-mod","141","574544","0.0-141.0","74121","","","","","","triplet","3182","","","","1","stimuli/stim023_inanimate_tools_3.png","stimuli/stim005_animate_bird_1.png","stimuli/boats_uppercase.png","135"
"html-button-response-mod","142","578327","0.0-142.0","74121","","","","","","triplet","3280","","","","2","stimuli/stim008_animate_bird_4.png","stimuli/stim004_animate_fish_4.png","stimuli/stim020_inanimate_tree_4.png","136"
"html-button-response-mod","143","580244","0.0-143.0","74121","","","","","","triplet","1415","","","","2","stimuli/stim021_inanimate_tools_1.png","stimuli/stim022_inanimate_tools_2.png","stimuli/stim007_animate_bird_3.png","137"
"html-button-response-mod","144","582493","0.0-144.0","74121","","","","","","triplet","1748","","","","1","stimuli/stim014_inanimate_boats_2.png","stimuli/face_lowercase.png","stimuli/boats_uppercase.png","138"
"html-button-response-mod","145","585043","0.0-145.0","74121","","","","","","triplet","2048","","","","0","stimuli/stim013_inanimate_boats_1.png","stimuli/stim004_animate_fish_4.png","stimuli/fish_uppercase.png","139"
"html-button-response-mod","146","589460","0.0-146.0","74121","","","","","","triplet","3915","","","","2","stimuli/stim016_inanimate_boats_4.png","stimuli/boats_uppercase.png","stimuli/stim018_inanimate_tree_2.png","140"
"html-button-response-mod","147","595077","0.0-147.0","74121","","","","","","triplet","5113","","","","2","stimuli/fish_lowercase.png","stimuli/face_lowercase.png","stimuli/stim017_inanimate_tree_1.png","141"
"html-button-response-mod","148","598893","0.0-148.0","74121","","","","","","triplet","3314","","","","2","stimuli/stim007_animate_bird_3.png","stimuli/stim004_animate_fish_4.png","stimuli/stim013_inanimate_boats_1.png","142"
"html-button-response-mod","149","600660","0.0-149.0","74121","","","","","","triplet","1266","","","","1","stimuli/stim002_animate_fish_2.png","stimuli/boats_uppercase.png","stimuli/stim006_animate_bird_2.png","143"
"html-button-response-mod","150","602560","0.0-150.0","74121","","","","","","triplet","1399","","","","1","stimuli/stim009_animate_face_1.png","stimuli/stim024_inanimate_tools_4.png","stimuli/stim010_animate_face_2.png","144"
"html-button-response-mod","151","604427","0.0-151.0","74121","","","","","","triplet","1365","","","","1","stimuli/boats_uppercase.png","stimuli/stim009_animate_face_1.png","stimuli/stim016_inanimate_boats_4.png","145"
"html-button-response-mod","152","607227","0.0-152.0","74121","","","","","","triplet","2297","","","","1","stimuli/stim007_animate_bird_3.png","stimuli/tools_lowercase.png","stimuli/stim006_animate_bird_2.png","146"
"html-button-response-mod","153","609443","0.0-153.0","74121","","","","","","triplet","1713.9999999998836","","","","0","stimuli/tools_uppercase.png","stimuli/stim017_inanimate_tree_1.png","stimuli/tree_uppercase.png","147"
"html-button-response-mod","154","614660","0.0-154.0","74121","","","","","","triplet","4714","","","","0","stimuli/tree_lowercase.png","stimuli/boats_uppercase.png","stimuli/stim024_inanimate_tools_4.png","148"
"html-button-response-mod","155","619393","0.0-155.0","74121","","","","","","triplet","4230","","","","1","stimuli/stim012_animate_face_4.png","stimuli/stim022_inanimate_tools_2.png","stimuli/stim020_inanimate_tree_4.png","149"
"html-button-response","156","1093593","0.0-156.0","74121","","","","","","break","473701","<p>BREAK</p><p>Take a break for as long as you need</p><p>Click the button to continue</p>","0","","","","","",""
"html-button-response-mod","157","1094908","0.0-157.0","74121","","","","","","triplet","1311","","","","2","stimuli/stim021_inanimate_tools_1.png","stimuli/stim024_inanimate_tools_4.png","stimuli/stim001_animate_fish_1.png","150"
"html-button-response-mod","158","1097209","0.0-158.0","74121","","","","","","triplet","1798.9999999997672","","","","1","stimuli/stim001_animate_fish_1.png","stimuli/tools_uppercase.png","stimuli/tree_uppercase.png","151"
"html-button-response-mod","159","1100558","0.0-159.0","74121","","","","","","triplet","2848","","","","2","stimuli/bird_lowercase.png","stimuli/stim001_animate_fish_1.png","stimuli/face_lowercase.png","152"
"html-button-response-mod","160","1102474","0.0-160.0","74121","","","","","","triplet","1414","","","","2","stimuli/fish_lowercase.png","stimuli/stim003_animate_fish_3.png","stimuli/stim009_animate_face_1.png","153"
"html-button-response-mod","161","1103909","0.0-161.0","74121","","","","","","triplet","933","","","","2","stimuli/stim004_animate_fish_4.png","stimuli/stim003_animate_fish_3.png","stimuli/stim010_animate_face_2.png","154"
"html-button-response-mod","162","1106207","0.0-162.0","74121","","","","","","triplet","1797.0000000002328","","","","0","stimuli/stim007_animate_bird_3.png","stimuli/stim001_animate_fish_1.png","stimuli/fish_lowercase.png","155"
"html-button-response-mod","163","1109474","0.0-163.0","74121","","","","","","triplet","2765","","","","0","stimuli/tree_uppercase.png","stimuli/stim013_inanimate_boats_1.png","stimuli/boats_uppercase.png","156"
"html-button-response-mod","164","1111391","0.0-164.0","74121","","","","","","triplet","1416","","","","1","stimuli/stim009_animate_face_1.png","stimuli/tools_lowercase.png","stimuli/stim012_animate_face_4.png","157"
"html-button-response-mod","165","1113223","0.0-165.0","74121","","","","","","triplet","1331","","","","2","stimuli/stim004_animate_fish_4.png","stimuli/fish_uppercase.png","stimuli/stim021_inanimate_tools_1.png","158"
"html-button-response-mod","166","1116573","0.0-166.0","74121","","","","","","triplet","2849","","","","0","stimuli/stim018_inanimate_tree_2.png","stimuli/stim022_inanimate_tools_2.png","stimuli/stim014_inanimate_boats_2.png","159"
"html-button-response-mod","167","1118523","0.0-167.0","74121","","","","","","triplet","1448","","","","1","stimuli/bird_lowercase.png","stimuli/stim024_inanimate_tools_4.png","stimuli/stim004_animate_fish_4.png","160"
"html-button-response-mod","168","1122990","0.0-168.0","74121","","","","","","triplet","3965","","","","0","stimuli/stim020_inanimate_tree_4.png","stimuli/stim016_inanimate_boats_4.png","stimuli/stim001_animate_fish_1.png","161"
"html-button-response-mod","169","1127290","0.0-169.0","74121","","","","","","triplet","3799","","","","0","stimuli/stim023_inanimate_tools_3.png","stimuli/fish_uppercase.png","stimuli/tree_lowercase.png","162"
"html-button-response-mod","170","1130990","0.0-170.0","74121","","","","","","triplet","3199","","","","2","stimuli/stim012_animate_face_4.png","stimuli/stim020_inanimate_tree_4.png","stimuli/stim015_inanimate_boats_3.png","163"
"html-button-response-mod","171","1138889","0.0-171.0","74121","","","","","","triplet","7398","","","","2","stimuli/stim004_animate_fish_4.png","stimuli/stim017_inanimate_tree_1.png","stimuli/boats_uppercase.png","164"
"html-button-response-mod","172","1142873","0.0-172.0","74121","","","","","","triplet","3481","","","","0","stimuli/stim021_inanimate_tools_1.png","stimuli/stim020_inanimate_tree_4.png","stimuli/bird_uppercase.png","165"
"html-button-response-mod","173","1145189","0.0-173.0","74121","","","","","","triplet","1815","","","","0","stimuli/stim014_inanimate_boats_2.png","stimuli/bird_uppercase.png","stimuli/stim005_animate_bird_1.png","166"
"html-button-response-mod","174","1148332","0.0-174.0","74121","","","","","","triplet","2642.000000000233","","","","1","stimuli/stim021_inanimate_tools_1.png","stimuli/stim002_animate_fish_2.png","stimuli/tools_uppercase.png","167"
"html-button-response-mod","175","1152772","0.0-175.0","74121","","","","","","triplet","3938","","","","1","stimuli/tools_uppercase.png","stimuli/bird_uppercase.png","stimuli/stim016_inanimate_boats_4.png","168"
"html-button-response-mod","176","1154789","0.0-176.0","74121","","","","","","triplet","1516","","","","0","stimuli/face_lowercase.png","stimuli/stim008_animate_bird_4.png","stimuli/fish_lowercase.png","169"
"html-button-response-mod","177","1157106","0.0-177.0","74121","","","","","","triplet","1815","","","","2","stimuli/stim018_inanimate_tree_2.png","stimuli/stim005_animate_bird_1.png","stimuli/stim024_inanimate_tools_4.png","170"
"html-button-response-mod","178","1159789","0.0-178.0","74121","","","","","","triplet","2182","","","","1","stimuli/stim011_animate_face_3.png","stimuli/stim021_inanimate_tools_1.png","stimuli/stim019_inanimate_tree_3.png","171"
"html-button-response-mod","179","1161821","0.0-179.0","74121","","","","","","triplet","1530","","","","0","stimuli/stim007_animate_bird_3.png","stimuli/stim024_inanimate_tools_4.png","stimuli/tools_lowercase.png","172"
"html-button-response-mod","180","1168388","0.0-180.0","74121","","","","","","triplet","6065","","","","1","stimuli/stim005_animate_bird_1.png","stimuli/boats_uppercase.png","stimuli/face_lowercase.png","173"
"html-button-response-mod","181","1170739","0.0-181.0","74121","","","","","","triplet","1849","","","","2","stimuli/stim014_inanimate_boats_2.png","stimuli/tools_uppercase.png","stimuli/stim005_animate_bird_1.png","174"
"html-button-response-mod","182","1174954","0.0-182.0","74121","","","","","","triplet","3713","","","","0","stimuli/stim016_inanimate_boats_4.png","stimuli/stim019_inanimate_tree_3.png","stimuli/stim003_animate_fish_3.png","175"
"html-button-response-mod","183","1178288","0.0-183.0","74121","","","","","","triplet","2830.999999999767","","","","0","stimuli/stim010_animate_face_2.png","stimuli/fish_lowercase.png","stimuli/stim007_animate_bird_3.png","176"
"html-button-response-mod","184","1182139","0.0-184.0","74121","","","","","","triplet","3350","","","","0","stimuli/stim021_inanimate_tools_1.png","stimuli/stim003_animate_fish_3.png","stimuli/stim002_animate_fish_2.png","177"
"html-button-response-mod","185","1188621","0.0-185.0","74121","","","","","","triplet","5980","","","","2","stimuli/stim019_inanimate_tree_3.png","stimuli/stim004_animate_fish_4.png","stimuli/boats_uppercase.png","178"
"html-button-response-mod","186","1190654","0.0-186.0","74121","","","","","","triplet","1531","","","","2","stimuli/boats_uppercase.png","stimuli/stim022_inanimate_tools_2.png","stimuli/stim017_inanimate_tree_1.png","179"
"html-button-response-mod","187","1192854","0.0-187.0","74121","","","","","","triplet","1698","","","","1","stimuli/stim015_inanimate_boats_3.png","stimuli/stim003_animate_fish_3.png","stimuli/tools_lowercase.png","180"
"html-button-response-mod","188","1195221","0.0-188.0","74121","","","","","","triplet","1865","","","","2","stimuli/stim015_inanimate_boats_3.png","stimuli/boats_uppercase.png","stimuli/bird_lowercase.png","181"
"html-button-response-mod","189","1200270","0.0-189.0","74121","","","","","","triplet","4549","","","","2","stimuli/bird_uppercase.png","stimuli/stim012_animate_face_4.png","stimuli/tools_uppercase.png","182"
"html-button-response-mod","190","1203953","0.0-190.0","74121","","","","","","triplet","3183","","","","2","stimuli/stim012_animate_face_4.png","stimuli/face_lowercase.png","stimuli/fish_uppercase.png","183"
"html-button-response-mod","191","1208537","0.0-191.0","74121","","","","","","triplet","4083","","","","2","stimuli/boats_lowercase.png","stimuli/stim022_inanimate_tools_2.png","stimuli/stim007_animate_bird_3.png","184"
"html-button-response-mod","192","1211370","0.0-192.0","74121","","","","","","triplet","2331.000000000233","","","","0","stimuli/stim015_inanimate_boats_3.png","stimuli/bird_lowercase.png","stimuli/stim008_animate_bird_4.png","185"
"html-button-response-mod","193","1213620","0.0-193.0","74121","","","","","","triplet","1748.0000000002328","","","","0","stimuli/stim012_animate_face_4.png","stimuli/stim002_animate_fish_2.png","stimuli/stim004_animate_fish_4.png","186"
"html-button-response-mod","194","1216303","0.0-194.0","74121","","","","","","triplet","2183","","","","2","stimuli/fish_uppercase.png","stimuli/stim008_animate_bird_4.png","stimuli/tree_uppercase.png","187"
"html-button-response-mod","195","1219270","0.0-195.0","74121","","","","","","triplet","2465","","","","0","stimuli/stim016_inanimate_boats_4.png","stimuli/stim009_animate_face_1.png","stimuli/stim004_animate_fish_4.png","188"
"html-button-response-mod","196","1224403","0.0-196.0","74121","","","","","","triplet","4632","","","","0","stimuli/tree_lowercase.png","stimuli/stim024_inanimate_tools_4.png","stimuli/tools_lowercase.png","189"
"html-button-response-mod","197","1226169","0.0-197.0","74121","","","","","","triplet","1265","","","","0","stimuli/tools_uppercase.png","stimuli/stim007_animate_bird_3.png","stimuli/stim009_animate_face_1.png","190"
"html-button-response-mod","198","1228352","0.0-198.0","74121","","","","","","triplet","1682","","","","0","stimuli/boats_lowercase.png","stimuli/tree_lowercase.png","stimuli/stim018_inanimate_tree_2.png","191"
"html-button-response-mod","199","1230386","0.0-199.0","74121","","","","","","triplet","1533","","","","1","stimuli/stim009_animate_face_1.png","stimuli/stim023_inanimate_tools_3.png","stimuli/stim020_inanimate_tree_4.png","192"
"html-button-response-mod","200","1233702","0.0-200.0","74121","","","","","","triplet","2815","","","","2","stimuli/bird_uppercase.png","stimuli/stim004_animate_fish_4.png","stimuli/boats_lowercase.png","193"
"html-button-response-mod","201","1235436","0.0-201.0","74121","","","","","","triplet","1232","","","","1","stimuli/stim019_inanimate_tree_3.png","stimuli/boats_uppercase.png","stimuli/stim009_animate_face_1.png","194"
"html-button-response-mod","202","1237119","0.0-202.0","74121","","","","","","triplet","1181.0000000002328","","","","0","stimuli/stim019_inanimate_tree_3.png","stimuli/stim008_animate_bird_4.png","stimuli/stim006_animate_bird_2.png","195"
"html-button-response-mod","203","1238935","0.0-203.0","74121","","","","","","triplet","1315","","","","0","stimuli/boats_lowercase.png","stimuli/fish_lowercase.png","stimuli/stim005_animate_bird_1.png","196"
"html-button-response-mod","204","1241019","0.0-204.0","74121","","","","","","triplet","1582","","","","2","stimuli/stim010_animate_face_2.png","stimuli/stim001_animate_fish_1.png","stimuli/boats_uppercase.png","197"
"html-button-response-mod","205","1243652","0.0-205.0","74121","","","","","","triplet","2132","","","","1","stimuli/boats_uppercase.png","stimuli/fish_lowercase.png","stimuli/stim021_inanimate_tools_1.png","198"
"html-button-response-mod","206","1246268","0.0-206.0","74121","","","","","","triplet","2115","","","","1","stimuli/face_uppercase.png","stimuli/stim014_inanimate_boats_2.png","stimuli/fish_uppercase.png","199"
"html-button-response","207","1248104","0.0-207.0","74121","","","","","","break","1334","<p>BREAK</p><p>Take a break for as long as you need</p><p>Click the button to continue</p>","0","","","","","",""
"html-button-response-mod","208","1250402","0.0-208.0","74121","","","","","","triplet","2297","","","","0","stimuli/tools_uppercase.png","stimuli/stim020_inanimate_tree_4.png","stimuli/fish_uppercase.png","200"
"html-button-response-mod","209","1252485","0.0-209.0","74121","","","","","","triplet","1582.0000000002328","","","","2","stimuli/stim005_animate_bird_1.png","stimuli/face_lowercase.png","stimuli/stim023_inanimate_tools_3.png","201"
"html-button-response-mod","210","1256169","0.0-210.0","74121","","","","","","triplet","3183","","","","0","stimuli/stim010_animate_face_2.png","stimuli/stim002_animate_fish_2.png","stimuli/stim001_animate_fish_1.png","202"
"html-button-response-mod","211","1260285","0.0-211.0","74121","","","","","","triplet","3615","","","","0","stimuli/stim018_inanimate_tree_2.png","stimuli/stim024_inanimate_tools_4.png","stimuli/boats_lowercase.png","203"
"html-button-response-mod","212","1263218","0.0-212.0","74121","","","","","","triplet","2430","","","","1","stimuli/stim015_inanimate_boats_3.png","stimuli/stim001_animate_fish_1.png","stimuli/boats_uppercase.png","204"
"html-button-response-mod","213","1267418","0.0-213.0","74121","","","","","","triplet","3698","","","","0","stimuli/stim013_inanimate_boats_1.png","stimuli/tools_lowercase.png","stimuli/stim023_inanimate_tools_3.png","205"
"html-button-response-mod","214","1272969","0.0-214.0","74121","","","","","","triplet","5050","","","","2","stimuli/stim005_animate_bird_1.png","stimuli/stim019_inanimate_tree_3.png","stimuli/stim016_inanimate_boats_4.png","206"
"html-button-response-mod","215","1274501","0.0-215.0","74121","","","","","","triplet","1030","","","","2","stimuli/stim006_animate_bird_2.png","stimuli/stim004_animate_fish_4.png","stimuli/boats_lowercase.png","207"
"html-button-response-mod","216","1278352","0.0-216.0","74121","","","","","","triplet","3347.999999999767","","","","0","stimuli/stim019_inanimate_tree_3.png","stimuli/stim023_inanimate_tools_3.png","stimuli/stim016_inanimate_boats_4.png","208"
"html-button-response-mod","217","1280451","0.0-217.0","74121","","","","","","triplet","1598","","","","2","stimuli/stim008_animate_bird_4.png","stimuli/stim012_animate_face_4.png","stimuli/tools_uppercase.png","209"
"html-button-response-mod","218","1282284","0.0-218.0","74121","","","","","","triplet","1332","","","","1","stimuli/stim002_animate_fish_2.png","stimuli/stim015_inanimate_boats_3.png","stimuli/stim007_animate_bird_3.png","210"
"html-button-response-mod","219","1284985","0.0-219.0","74121","","","","","","triplet","2200.000000000233","","","","2","stimuli/stim008_animate_bird_4.png","stimuli/stim020_inanimate_tree_4.png","stimuli/stim013_inanimate_boats_1.png","211"
"html-button-response-mod","220","1288634","0.0-220.0","74121","","","","","","triplet","3147","","","","0","stimuli/stim023_inanimate_tools_3.png","stimuli/stim019_inanimate_tree_3.png","stimuli/stim010_animate_face_2.png","212"
"html-button-response-mod","221","1290417","0.0-221.0","74121","","","","","","triplet","1281.0000000002328","","","","2","stimuli/stim008_animate_bird_4.png","stimuli/stim004_animate_fish_4.png","stimuli/stim009_animate_face_1.png","213"
"html-button-response-mod","222","1293367","0.0-222.0","74121","","","","","","triplet","2449","","","","0","stimuli/tools_uppercase.png","stimuli/tree_lowercase.png","stimuli/stim019_inanimate_tree_3.png","214"
"html-button-response-mod","223","1298667","0.0-223.0","74121","","","","","","triplet","4799.000000000233","","","","1","stimuli/bird_lowercase.png","stimuli/stim016_inanimate_boats_4.png","stimuli/stim001_animate_fish_1.png","215"
"html-button-response-mod","224","1300550","0.0-224.0","74121","","","","","","triplet","1381","","","","0","stimuli/stim015_inanimate_boats_3.png","stimuli/stim001_animate_fish_1.png","stimuli/stim012_animate_face_4.png","216"
"html-button-response-mod","225","1303583","0.0-225.0","74121","","","","","","triplet","2532","","","","1","stimuli/stim014_inanimate_boats_2.png","stimuli/stim020_inanimate_tree_4.png","stimuli/stim021_inanimate_tools_1.png","217"
"html-button-response-mod","226","1306417","0.0-226.0","74121","","","","","","triplet","2332.000000000233","","","","2","stimuli/bird_uppercase.png","stimuli/stim002_animate_fish_2.png","stimuli/stim019_inanimate_tree_3.png","218"
"html-button-response-mod","227","1308483","0.0-227.0","74121","","","","","","triplet","1565","","","","0","stimuli/stim022_inanimate_tools_2.png","stimuli/stim007_animate_bird_3.png","stimuli/stim001_animate_fish_1.png","219"
"html-button-response-mod","228","1310716","0.0-228.0","74121","","","","","","triplet","1730.9999999997672","","","","1","stimuli/bird_uppercase.png","stimuli/fish_lowercase.png","stimuli/stim006_animate_bird_2.png","220"
"html-button-response-mod","229","1313583","0.0-229.0","74121","","","","","","triplet","2365","","","","1","stimuli/bird_uppercase.png","stimuli/stim022_inanimate_tools_2.png","stimuli/tree_uppercase.png","221"
"html-button-response-mod","230","1316233","0.0-230.0","74121","","","","","","triplet","2148","","","","2","stimuli/stim006_animate_bird_2.png","stimuli/stim005_animate_bird_1.png","stimuli/stim010_animate_face_2.png","222"
"html-button-response-mod","231","1322250","0.0-231.0","74121","","","","","","triplet","5515.999999999767","","","","0","stimuli/tree_uppercase.png","stimuli/face_lowercase.png","stimuli/stim008_animate_bird_4.png","223"
"html-button-response-mod","232","1325582","0.0-232.0","74121","","","","","","triplet","2830","","","","0","stimuli/stim006_animate_bird_2.png","stimuli/stim009_animate_face_1.png","stimuli/stim010_animate_face_2.png","224"
"html-button-response-mod","233","1327382","0.0-233.0","74121","","","","","","triplet","1299","","","","2","stimuli/stim004_animate_fish_4.png","stimuli/stim006_animate_bird_2.png","stimuli/stim021_inanimate_tools_1.png","225"
"html-button-response-mod","234","1328815","0.0-234.0","74121","","","","","","triplet","932","","","","0","stimuli/boats_uppercase.png","stimuli/stim004_animate_fish_4.png","stimuli/stim012_animate_face_4.png","226"
"html-button-response-mod","235","1331349","0.0-235.0","74121","","","","","","triplet","2033.0000000002328","","","","0","stimuli/stim006_animate_bird_2.png","stimuli/fish_lowercase.png","stimuli/stim004_animate_fish_4.png","227"
"html-button-response-mod","236","1333282","0.0-236.0","74121","","","","","","triplet","1432.0000000002328","","","","2","stimuli/stim006_animate_bird_2.png","stimuli/stim004_animate_fish_4.png","stimuli/stim015_inanimate_boats_3.png","228"
"html-button-response-mod","237","1336382","0.0-237.0","74121","","","","","","triplet","2599","","","","0","stimuli/stim015_inanimate_boats_3.png","stimuli/stim006_animate_bird_2.png","stimuli/face_lowercase.png","229"
"html-button-response-mod","238","1338432","0.0-238.0","74121","","","","","","triplet","1549","","","","2","stimuli/stim019_inanimate_tree_3.png","stimuli/tree_uppercase.png","stimuli/stim013_inanimate_boats_1.png","230"
"html-button-response-mod","239","1340182","0.0-239.0","74121","","","","","","triplet","1248","","","","1","stimuli/stim004_animate_fish_4.png","stimuli/stim009_animate_face_1.png","stimuli/stim005_animate_bird_1.png","231"
"html-button-response-mod","240","1342265","0.0-240.0","74121","","","","","","triplet","1582","","","","0","stimuli/stim024_inanimate_tools_4.png","stimuli/stim009_animate_face_1.png","stimuli/stim014_inanimate_boats_2.png","232"
"html-button-response-mod","241","1348232","0.0-241.0","74121","","","","","","triplet","5466","","","","2","stimuli/stim016_inanimate_boats_4.png","stimuli/stim023_inanimate_tools_3.png","stimuli/fish_lowercase.png","233"
"html-button-response-mod","242","1350315","0.0-242.0","74121","","","","","","triplet","1582","","","","2","stimuli/stim013_inanimate_boats_1.png","stimuli/boats_uppercase.png","stimuli/stim011_animate_face_3.png","234"
"html-button-response-mod","243","1352964","0.0-243.0","74121","","","","","","triplet","2148.000000000233","","","","2","stimuli/stim020_inanimate_tree_4.png","stimuli/tools_uppercase.png","stimuli/stim010_animate_face_2.png","235"
"html-button-response-mod","244","1356365","0.0-244.0","74121","","","","","","triplet","2899","","","","0","stimuli/tree_uppercase.png","stimuli/stim001_animate_fish_1.png","stimuli/stim007_animate_bird_3.png","236"
"html-button-response-mod","245","1359148","0.0-245.0","74121","","","","","","triplet","2281.000000000233","","","","1","stimuli/stim006_animate_bird_2.png","stimuli/bird_lowercase.png","stimuli/stim008_animate_bird_4.png","237"
"html-button-response-mod","246","1362099","0.0-246.0","74121","","","","","","triplet","2448","","","","0","stimuli/face_lowercase.png","stimuli/stim023_inanimate_tools_3.png","stimuli/boats_uppercase.png","238"
"html-button-response-mod","247","1366398","0.0-247.0","74121","","","","","","triplet","3797","","","","1","stimuli/stim003_animate_fish_3.png","stimuli/stim009_animate_face_1.png","stimuli/stim006_animate_bird_2.png","239"
"html-button-response-mod","248","1369864","0.0-248.0","74121","","","","","","triplet","2964","","","","0","stimuli/stim018_inanimate_tree_2.png","stimuli/stim008_animate_bird_4.png","stimuli/stim010_animate_face_2.png","240"
"html-button-response-mod","249","1372182","0.0-249.0","74121","","","","","","triplet","1817","","","","1","stimuli/tools_uppercase.png","stimuli/stim012_animate_face_4.png","stimuli/stim023_inanimate_tools_3.png","241"
"html-button-response-mod","250","1374431","0.0-250.0","74121","","","","","","triplet","1748","","","","2","stimuli/stim008_animate_bird_4.png","stimuli/tools_lowercase.png","stimuli/tree_uppercase.png","242"
"html-button-response-mod","251","1376880","0.0-251.0","74121","","","","","","triplet","1948","","","","0","stimuli/stim019_inanimate_tree_3.png","stimuli/stim009_animate_face_1.png","stimuli/stim008_animate_bird_4.png","243"
"html-button-response-mod","252","1379331","0.0-252.0","74121","","","","","","triplet","1950","","","","1","stimuli/stim007_animate_bird_3.png","stimuli/stim011_animate_face_3.png","stimuli/stim003_animate_fish_3.png","244"
"html-button-response-mod","253","1381914","0.0-253.0","74121","","","","","","triplet","2082","","","","0","stimuli/stim023_inanimate_tools_3.png","stimuli/stim006_animate_bird_2.png","stimuli/stim001_animate_fish_1.png","245"
"html-button-response-mod","254","1384880","0.0-254.0","74121","","","","","","triplet","2463.999999999767","","","","0","stimuli/stim017_inanimate_tree_1.png","stimuli/tools_uppercase.png","stimuli/stim013_inanimate_boats_1.png","246"
"html-button-response-mod","255","1387664","0.0-255.0","74121","","","","","","triplet","2282","","","","0","stimuli/fish_lowercase.png","stimuli/stim013_inanimate_boats_1.png","stimuli/stim016_inanimate_boats_4.png","247"
"html-button-response-mod","256","1391013","0.0-256.0","74121","","","","","","triplet","2847.999999999767","","","","1","stimuli/fish_lowercase.png","stimuli/stim024_inanimate_tools_4.png","stimuli/stim006_animate_bird_2.png","248"
"html-button-response-mod","257","1394464","0.0-257.0","74121","","","","","","triplet","2949.000000000233","","","","1","stimuli/tree_lowercase.png","stimuli/stim022_inanimate_tools_2.png","stimuli/bird_uppercase.png","249"
"html-button-response","258","1396613","0.0-258.0","74121","","","","","","break","1648","<p>BREAK</p><p>Take a break for as long as you need</p><p>Click the button to continue</p>","0","","","","","",""
"html-button-response-mod","259","1398980","0.0-259.0","74121","","","","","","triplet","2367","","","","0","stimuli/stim024_inanimate_tools_4.png","stimuli/tree_uppercase.png","stimuli/stim005_animate_bird_1.png","250"
"html-button-response-mod","260","1402396","0.0-260.0","74121","","","","","","triplet","2913","","","","0","stimuli/tools_uppercase.png","stimuli/stim009_animate_face_1.png","stimuli/stim019_inanimate_tree_3.png","251"
"html-button-response-mod","261","1404479","0.0-261.0","74121","","","","","","triplet","1582","","","","2","stimuli/stim005_animate_bird_1.png","stimuli/stim019_inanimate_tree_3.png","stimuli/tools_lowercase.png","252"
"html-button-response-mod","262","1406629","0.0-262.0","74121","","","","","","triplet","1649","","","","0","stimuli/stim005_animate_bird_1.png","stimuli/stim024_inanimate_tools_4.png","stimuli/stim022_inanimate_tools_2.png","253"
"html-button-response-mod","263","1409380","0.0-263.0","74121","","","","","","triplet","2249","","","","2","stimuli/boats_lowercase.png","stimuli/stim021_inanimate_tools_1.png","stimuli/stim003_animate_fish_3.png","254"
"html-button-response-mod","264","1413679","0.0-264.0","74121","","","","","","triplet","3798","","","","2","stimuli/stim024_inanimate_tools_4.png","stimuli/stim015_inanimate_boats_3.png","stimuli/fish_uppercase.png","255"
"html-button-response-mod","265","1416080","0.0-265.0","74121","","","","","","triplet","1899.0000000002328","","","","1","stimuli/stim017_inanimate_tree_1.png","stimuli/tools_uppercase.png","stimuli/stim006_animate_bird_2.png","256"
"html-button-response-mod","266","1418447","0.0-266.0","74121","","","","","","triplet","1864","","","","1","stimuli/tree_uppercase.png","stimuli/stim014_inanimate_boats_2.png","stimuli/stim018_inanimate_tree_2.png","257"
"html-button-response-mod","267","1421497","0.0-267.0","74121","","","","","","triplet","2548","","","","2","stimuli/stim009_animate_face_1.png","stimuli/face_lowercase.png","stimuli/stim021_inanimate_tools_1.png","258"
"html-button-response-mod","268","1423880","0.0-268.0","74121","","","","","","triplet","1881","","","","2","stimuli/tools_lowercase.png","stimuli/stim003_animate_fish_3.png","stimuli/stim017_inanimate_tree_1.png","259"
"html-button-response-mod","269","1428263","0.0-269.0","74121","","","","","","triplet","3880","","","","1","stimuli/stim007_animate_bird_3.png","stimuli/stim017_inanimate_tree_1.png","stimuli/stim012_animate_face_4.png","260"
"html-button-response-mod","270","1430446","0.0-270.0","74121","","","","","","triplet","1680","","","","1","stimuli/stim006_animate_bird_2.png","stimuli/stim021_inanimate_tools_1.png","stimuli/stim017_inanimate_tree_1.png","261"
"html-button-response-mod","271","1433346","0.0-271.0","74121","","","","","","triplet","2398","","","","0","stimuli/stim020_inanimate_tree_4.png","stimuli/stim010_animate_face_2.png","stimuli/face_uppercase.png","262"
"html-button-response-mod","272","1437729","0.0-272.0","74121","","","","","","triplet","3880.999999999767","","","","2","stimuli/stim015_inanimate_boats_3.png","stimuli/tools_uppercase.png","stimuli/fish_uppercase.png","263"
"html-button-response-mod","273","1442246","0.0-273.0","74121","","","","","","triplet","4014","","","","1","stimuli/stim013_inanimate_boats_1.png","stimuli/stim017_inanimate_tree_1.png","stimuli/stim023_inanimate_tools_3.png","264"
"html-button-response-mod","274","1443996","0.0-274.0","74121","","","","","","triplet","1248","","","","2","stimuli/boats_lowercase.png","stimuli/stim013_inanimate_boats_1.png","stimuli/bird_uppercase.png","265"
"html-button-response-mod","275","1447045","0.0-275.0","74121","","","","","","triplet","2547","","","","2","stimuli/stim003_animate_fish_3.png","stimuli/stim020_inanimate_tree_4.png","stimuli/boats_lowercase.png","266"
"html-button-response-mod","276","1449862","0.0-276.0","74121","","","","","","triplet","2315","","","","1","stimuli/face_lowercase.png","stimuli/stim022_inanimate_tools_2.png","stimuli/tree_uppercase.png","267"
"html-button-response-mod","277","1451546","0.0-277.0","74121","","","","","","triplet","1180","","","","0","stimuli/stim023_inanimate_tools_3.png","stimuli/bird_uppercase.png","stimuli/stim019_inanimate_tree_3.png","268"
"html-button-response-mod","278","1453396","0.0-278.0","74121","","","","","","triplet","1347","","","","2","stimuli/stim014_inanimate_boats_2.png","stimuli/boats_lowercase.png","stimuli/stim008_animate_bird_4.png","269"
"html-button-response-mod","279","1463128","0.0-279.0","74121","","","","","","triplet","9231","","","","2","stimuli/stim005_animate_bird_1.png","stimuli/stim009_animate_face_1.png","stimuli/stim015_inanimate_boats_3.png","270"
"html-button-response-mod","280","1465612","0.0-280.0","74121","","","","","","triplet","1982","","","","1","stimuli/bird_uppercase.png","stimuli/stim022_inanimate_tools_2.png","stimuli/fish_lowercase.png","271"
"html-button-response-mod","281","1467262","0.0-281.0","74121","","","","","","triplet","1147.0000000002328","","","","2","stimuli/stim007_animate_bird_3.png","stimuli/stim005_animate_bird_1.png","stimuli/stim017_inanimate_tree_1.png","272"
"html-button-response-mod","282","1469562","0.0-282.0","74121","","","","","","triplet","1797","","","","1","stimuli/stim001_animate_fish_1.png","stimuli/stim019_inanimate_tree_3.png","stimuli/stim009_animate_face_1.png","273"
"html-button-response-mod","283","1475794","0.0-283.0","74121","","","","","","triplet","5730","","","","2","stimuli/tools_lowercase.png","stimuli/stim024_inanimate_tools_4.png","stimuli/stim005_animate_bird_1.png","274"
"html-button-response-mod","284","1477960","0.0-284.0","74121","","","","","","triplet","1663","","","","1","stimuli/stim015_inanimate_boats_3.png","stimuli/bird_lowercase.png","stimuli/stim016_inanimate_boats_4.png","275"
"html-button-response-mod","285","1479478","0.0-285.0","74121","","","","","","triplet","1017","","","","1","stimuli/stim012_animate_face_4.png","stimuli/boats_uppercase.png","stimuli/stim009_animate_face_1.png","276"
"html-button-response-mod","286","1483293","0.0-286.0","74121","","","","","","triplet","3313","","","","0","stimuli/stim015_inanimate_boats_3.png","stimuli/stim009_animate_face_1.png","stimuli/stim020_inanimate_tree_4.png","277"
"html-button-response-mod","287","1485678","0.0-287.0","74121","","","","","","triplet","1883","","","","0","stimuli/boats_uppercase.png","stimuli/stim010_animate_face_2.png","stimuli/stim009_animate_face_1.png","278"
"html-button-response-mod","288","1488045","0.0-288.0","74121","","","","","","triplet","1865","","","","0","stimuli/stim003_animate_fish_3.png","stimuli/stim007_animate_bird_3.png","stimuli/stim005_animate_bird_1.png","279"
"html-button-response-mod","289","1490778","0.0-289.0","74121","","","","","","triplet","2231","","","","1","stimuli/stim008_animate_bird_4.png","stimuli/stim019_inanimate_tree_3.png","stimuli/stim003_animate_fish_3.png","280"
"html-button-response-mod","290","1495961","0.0-290.0","74121","","","","","","triplet","4681","","","","0","stimuli/stim023_inanimate_tools_3.png","stimuli/face_uppercase.png","stimuli/stim010_animate_face_2.png","281"
"html-button-response-mod","291","1497944","0.0-291.0","74121","","","","","","triplet","1481","","","","0","stimuli/stim021_inanimate_tools_1.png","stimuli/fish_lowercase.png","stimuli/stim001_animate_fish_1.png","282"
"html-button-response-mod","292","1501511","0.0-292.0","74121","","","","","","triplet","3065.000000000233","","","","2","stimuli/stim004_animate_fish_4.png","stimuli/stim002_animate_fish_2.png","stimuli/boats_uppercase.png","283"
"html-button-response-mod","293","1503160","0.0-293.0","74121","","","","","","triplet","1147","","","","2","stimuli/stim021_inanimate_tools_1.png","stimuli/stim022_inanimate_tools_2.png","stimuli/stim008_animate_bird_4.png","284"
"html-button-response-mod","294","1506127","0.0-294.0","74121","","","","","","triplet","2464.000000000233","","","","1","stimuli/bird_uppercase.png","stimuli/boats_lowercase.png","stimuli/stim011_animate_face_3.png","285"
"html-button-response-mod","295","1514843","0.0-295.0","74121","","","","","","triplet","8215","","","","1","stimuli/stim006_animate_bird_2.png","stimuli/stim024_inanimate_tools_4.png","stimuli/stim017_inanimate_tree_1.png","286"
"html-button-response-mod","296","1517193","0.0-296.0","74121","","","","","","triplet","1847","","","","2","stimuli/boats_uppercase.png","stimuli/stim014_inanimate_boats_2.png","stimuli/fish_lowercase.png","287"
"html-button-response-mod","297","1519126","0.0-297.0","74121","","","","","","triplet","1432.0000000002328","","","","2","stimuli/stim008_animate_bird_4.png","stimuli/bird_uppercase.png","stimuli/stim014_inanimate_boats_2.png","288"
"html-button-response-mod","298","1521426","0.0-298.0","74121","","","","","","triplet","1798","","","","1","stimuli/fish_lowercase.png","stimuli/stim017_inanimate_tree_1.png","stimuli/bird_lowercase.png","289"
"html-button-response-mod","299","1523526","0.0-299.0","74121","","","","","","triplet","1598","","","","1","stimuli/stim008_animate_bird_4.png","stimuli/stim013_inanimate_boats_1.png","stimuli/bird_lowercase.png","290"
"html-button-response-mod","300","1526576","0.0-300.0","74121","","","","","","triplet","2548","","","","0","stimuli/stim007_animate_bird_3.png","stimuli/stim005_animate_bird_1.png","stimuli/stim006_animate_bird_2.png","291"
"html-button-response-mod","301","1529076","0.0-301.0","74121","","","","","","triplet","1998","","","","0","stimuli/tools_uppercase.png","stimuli/stim010_animate_face_2.png","stimuli/stim006_animate_bird_2.png","292"
"html-button-response-mod","302","1531009","0.0-302.0","74121","","","","","","triplet","1432","","","","1","stimuli/stim008_animate_bird_4.png","stimuli/stim021_inanimate_tools_1.png","stimuli/stim017_inanimate_tree_1.png","293"
"html-button-response-mod","303","1532960","0.0-303.0","74121","","","","","","triplet","1448.9999999997672","","","","2","stimuli/stim003_animate_fish_3.png","stimuli/stim011_animate_face_3.png","stimuli/tools_uppercase.png","294"
"html-button-response-mod","304","1537792","0.0-304.0","74121","","","","","","triplet","4330","","","","0","stimuli/boats_lowercase.png","stimuli/tools_lowercase.png","stimuli/stim021_inanimate_tools_1.png","295"
"html-button-response-mod","305","1539792","0.0-305.0","74121","","","","","","triplet","1498","","","","0","stimuli/face_lowercase.png","stimuli/tools_lowercase.png","stimuli/stim014_inanimate_boats_2.png","296"
"html-button-response-mod","306","1542526","0.0-306.0","74121","","","","","","triplet","2232","","","","0","stimuli/stim013_inanimate_boats_1.png","stimuli/bird_uppercase.png","stimuli/face_lowercase.png","297"
"html-button-response-mod","307","1545592","0.0-307.0","74121","","","","","","triplet","2566","","","","2","stimuli/stim017_inanimate_tree_1.png","stimuli/bird_lowercase.png","stimuli/stim022_inanimate_tools_2.png","298"
"html-button-response-mod","308","1549076","0.0-308.0","74121","","","","","","triplet","2982","","","","1","stimuli/fish_uppercase.png","stimuli/stim014_inanimate_boats_2.png","stimuli/stim005_animate_bird_1.png","299"
"html-button-response","309","1550693","0.0-309.0","74121","","","","","","break","1116.0000000002328","<p>BREAK</p><p>Take a break for as long as you need</p><p>Click the button to continue</p>","0","","","","","",""
"html-button-response-mod","310","1552142","0.0-310.0","74121","","","","","","triplet","1448","","","","2","stimuli/stim018_inanimate_tree_2.png","stimuli/stim020_inanimate_tree_4.png","stimuli/tree_uppercase.png","300"
"html-button-response-mod","311","1554841","0.0-311.0","74121","","","","","","triplet","2198","","","","1","stimuli/stim002_animate_fish_2.png","stimuli/boats_uppercase.png","stimuli/stim005_animate_bird_1.png","301"
"html-button-response-mod","312","1557425","0.0-312.0","74121","","","","","","triplet","2082","","","","0","stimuli/fish_lowercase.png","stimuli/tools_lowercase.png","stimuli/stim023_inanimate_tools_3.png","302"
"html-button-response-mod","313","1559508","0.0-313.0","74121","","","","","","triplet","1582","","","","2","stimuli/stim022_inanimate_tools_2.png","stimuli/stim024_inanimate_tools_4.png","stimuli/bird_lowercase.png","303"
"html-button-response-mod","314","1563791","0.0-314.0","74121","","","","","","triplet","3780.999999999767","","","","0","stimuli/stim018_inanimate_tree_2.png","stimuli/stim002_animate_fish_2.png","stimuli/stim006_animate_bird_2.png","304"
"html-button-response-mod","315","1565575","0.0-315.0","74121","","","","","","triplet","1283","","","","0","stimuli/stim004_animate_fish_4.png","stimuli/stim017_inanimate_tree_1.png","stimuli/stim018_inanimate_tree_2.png","305"
"html-button-response-mod","316","1568541","0.0-316.0","74121","","","","","","triplet","2465","","","","0","stimuli/stim020_inanimate_tree_4.png","stimuli/stim002_animate_fish_2.png","stimuli/stim011_animate_face_3.png","306"
"html-button-response-mod","317","1571274","0.0-317.0","74121","","","","","","triplet","2231","","","","1","stimuli/stim009_animate_face_1.png","stimuli/stim020_inanimate_tree_4.png","stimuli/bird_uppercase.png","307"
"html-button-response-mod","318","1573341","0.0-318.0","74121","","","","","","triplet","1565","","","","0","stimuli/tree_uppercase.png","stimuli/stim019_inanimate_tree_3.png","stimuli/stim018_inanimate_tree_2.png","308"
"html-button-response-mod","319","1579808","0.0-319.0","74121","","","","","","triplet","5965.000000000233","","","","1","stimuli/stim019_inanimate_tree_3.png","stimuli/tools_lowercase.png","stimuli/stim008_animate_bird_4.png","309"
"html-button-response-mod","320","1582341","0.0-320.0","74121","","","","","","triplet","2031.9999999997672","","","","2","stimuli/stim013_inanimate_boats_1.png","stimuli/tools_lowercase.png","stimuli/stim009_animate_face_1.png","310"
"html-button-response-mod","321","1591990","0.0-321.0","74121","","","","","","triplet","9147","","","","1","stimuli/face_uppercase.png","stimuli/boats_lowercase.png","stimuli/fish_lowercase.png","311"
"html-button-response-mod","322","1593690","0.0-322.0","74121","","","","","","triplet","1198","","","","1","stimuli/stim015_inanimate_boats_3.png","stimuli/stim017_inanimate_tree_1.png","stimuli/stim010_animate_face_2.png","312"
"html-button-response-mod","323","1597174","0.0-323.0","74121","","","","","","triplet","2981","","","","1","stimuli/stim013_inanimate_boats_1.png","stimuli/face_lowercase.png","stimuli/boats_uppercase.png","313"
"html-button-response-mod","324","1599457","0.0-324.0","74121","","","","","","triplet","1781","","","","0","stimuli/stim022_inanimate_tools_2.png","stimuli/stim002_animate_fish_2.png","stimuli/stim019_inanimate_tree_3.png","314"
"html-button-response-mod","325","1602507","0.0-325.0","74121","","","","","","triplet","2547","","","","2","stimuli/bird_uppercase.png","stimuli/stim019_inanimate_tree_3.png","stimuli/tools_lowercase.png","315"
"html-button-response-mod","326","1604289","0.0-326.0","74121","","","","","","triplet","1281.0000000002328","","","","1","stimuli/tree_lowercase.png","stimuli/stim004_animate_fish_4.png","stimuli/stim019_inanimate_tree_3.png","316"
"html-button-response-mod","327","1606124","0.0-327.0","74121","","","","","","triplet","1333","","","","0","stimuli/stim023_inanimate_tools_3.png","stimuli/stim004_animate_fish_4.png","stimuli/stim012_animate_face_4.png","317"
"html-button-response-mod","328","1611123","0.0-328.0","74121","","","","","","triplet","4496.999999999767","","","","0","stimuli/tree_uppercase.png","stimuli/stim005_animate_bird_1.png","stimuli/stim011_animate_face_3.png","318"
"html-button-response-mod","329","1614139","0.0-329.0","74121","","","","","","triplet","2514","","","","0","stimuli/stim024_inanimate_tools_4.png","stimuli/stim012_animate_face_4.png","stimuli/boats_lowercase.png","319"
"html-button-response-mod","330","1621239","0.0-330.0","74121","","","","","","triplet","6598","","","","1","stimuli/stim007_animate_bird_3.png","stimuli/stim021_inanimate_tools_1.png","stimuli/stim015_inanimate_boats_3.png","320"
"html-button-response-mod","331","1623939","0.0-331.0","74121","","","","","","triplet","2198.999999999767","","","","1","stimuli/stim004_animate_fish_4.png","stimuli/stim024_inanimate_tools_4.png","stimuli/stim018_inanimate_tree_2.png","321"
"html-button-response-mod","332","1625989","0.0-332.0","74121","","","","","","triplet","1547","","","","1","stimuli/boats_uppercase.png","stimuli/stim005_animate_bird_1.png","stimuli/stim021_inanimate_tools_1.png","322"
"html-button-response-mod","333","1628205","0.0-333.0","74121","","","","","","triplet","1713.9999999997672","","","","1","stimuli/face_uppercase.png","stimuli/stim008_animate_bird_4.png","stimuli/stim009_animate_face_1.png","323"
"html-button-response-mod","334","1630505","0.0-334.0","74121","","","","","","triplet","1798","","","","2","stimuli/stim008_animate_bird_4.png","stimuli/stim011_animate_face_3.png","stimuli/boats_lowercase.png","324"
"html-button-response-mod","335","1632405","0.0-335.0","74121","","","","","","triplet","1398.0000000002328","","","","1","stimuli/stim009_animate_face_1.png","stimuli/boats_uppercase.png","stimuli/stim021_inanimate_tools_1.png","325"
"html-button-response-mod","336","1635272","0.0-336.0","74121","","","","","","triplet","2366","","","","0","stimuli/stim012_animate_face_4.png","stimuli/stim005_animate_bird_1.png","stimuli/stim006_animate_bird_2.png","326"
"html-button-response-mod","337","1637389","0.0-337.0","74121","","","","","","triplet","1615","","","","2","stimuli/stim002_animate_fish_2.png","stimuli/stim006_animate_bird_2.png","stimuli/tree_uppercase.png","327"
"html-button-response-mod","338","1641922","0.0-338.0","74121","","","","","","triplet","4031","","","","0","stimuli/tools_lowercase.png","stimuli/stim012_animate_face_4.png","stimuli/stim017_inanimate_tree_1.png","328"
"html-button-response-mod","339","1645388","0.0-339.0","74121","","","","","","triplet","2964.999999999767","","","","0","stimuli/stim019_inanimate_tree_3.png","stimuli/stim007_animate_bird_3.png","stimuli/stim003_animate_fish_3.png","329"
"html-button-response-mod","340","1647322","0.0-340.0","74121","","","","","","triplet","1431","","","","1","stimuli/face_lowercase.png","stimuli/stim003_animate_fish_3.png","stimuli/stim010_animate_face_2.png","330"
"html-button-response-mod","341","1650005","0.0-341.0","74121","","","","","","triplet","2181","","","","0","stimuli/stim010_animate_face_2.png","stimuli/stim002_animate_fish_2.png","stimuli/stim006_animate_bird_2.png","331"
"html-button-response-mod","342","1653905","0.0-342.0","74121","","","","","","triplet","3399","","","","2","stimuli/stim023_inanimate_tools_3.png","stimuli/stim013_inanimate_boats_1.png","stimuli/stim008_animate_bird_4.png","332"
"html-button-response-mod","343","1655588","0.0-343.0","74121","","","","","","triplet","1181","","","","2","stimuli/stim009_animate_face_1.png","stimuli/stim012_animate_face_4.png","stimuli/fish_uppercase.png","333"
"html-button-response-mod","344","1657971","0.0-344.0","74121","","","","","","triplet","1881.0000000002328","","","","1","stimuli/stim005_animate_bird_1.png","stimuli/stim024_inanimate_tools_4.png","stimuli/stim011_animate_face_3.png","334"
"html-button-response-mod","345","1660937","0.0-345.0","74121","","","","","","triplet","2464","","","","2","stimuli/stim001_animate_fish_1.png","stimuli/stim004_animate_fish_4.png","stimuli/stim007_animate_bird_3.png","335"
"html-button-response-mod","346","1664721","0.0-346.0","74121","","","","","","triplet","3283.000000000233","","","","1","stimuli/stim012_animate_face_4.png","stimuli/stim020_inanimate_tree_4.png","stimuli/face_lowercase.png","336"
"html-button-response-mod","347","1670054","0.0-347.0","74121","","","","","","triplet","4831","","","","1","stimuli/stim001_animate_fish_1.png","stimuli/tree_lowercase.png","stimuli/fish_lowercase.png","337"
"html-button-response-mod","348","1671737","0.0-348.0","74121","","","","","","triplet","1181","","","","2","stimuli/stim005_animate_bird_1.png","stimuli/stim007_animate_bird_3.png","stimuli/stim016_inanimate_boats_4.png","338"
"html-button-response-mod","349","1675154","0.0-349.0","74121","","","","","","triplet","2914","","","","1","stimuli/stim024_inanimate_tools_4.png","stimuli/bird_lowercase.png","stimuli/tools_lowercase.png","339"
"html-button-response-mod","350","1676937","0.0-350.0","74121","","","","","","triplet","1280","","","","2","stimuli/stim003_animate_fish_3.png","stimuli/stim004_animate_fish_4.png","stimuli/stim018_inanimate_tree_2.png","340"
"html-button-response-mod","351","1683054","0.0-351.0","74121","","","","","","triplet","5615","","","","1","stimuli/fish_uppercase.png","stimuli/boats_uppercase.png","stimuli/face_uppercase.png","341"
"html-button-response-mod","352","1686203","0.0-352.0","74121","","","","","","triplet","2647","","","","0","stimuli/stim023_inanimate_tools_3.png","stimuli/bird_lowercase.png","stimuli/stim011_animate_face_3.png","342"
"html-button-response-mod","353","1688804","0.0-353.0","74121","","","","","","triplet","2099","","","","1","stimuli/face_uppercase.png","stimuli/stim023_inanimate_tools_3.png","stimuli/stim017_inanimate_tree_1.png","343"
"html-button-response-mod","354","1691104","0.0-354.0","74121","","","","","","triplet","1799","","","","0","stimuli/stim021_inanimate_tools_1.png","stimuli/face_uppercase.png","stimuli/stim011_animate_face_3.png","344"
"html-button-response-mod","355","1693536","0.0-355.0","74121","","","","","","triplet","1929.9999999997672","","","","2","stimuli/stim008_animate_bird_4.png","stimuli/fish_uppercase.png","stimuli/stim024_inanimate_tools_4.png","345"
"html-button-response-mod","356","1695969","0.0-356.0","74121","","","","","","triplet","1932","","","","1","stimuli/stim022_inanimate_tools_2.png","stimuli/stim001_animate_fish_1.png","stimuli/stim013_inanimate_boats_1.png","346"
"html-button-response-mod","357","1701803","0.0-357.0","74121","","","","","","triplet","5331","","","","2","stimuli/bird_uppercase.png","stimuli/stim005_animate_bird_1.png","stimuli/stim018_inanimate_tree_2.png","347"
"html-button-response-mod","358","1704802","0.0-358.0","74121","","","","","","triplet","2497","","","","0","stimuli/tools_uppercase.png","stimuli/bird_uppercase.png","stimuli/fish_uppercase.png","348"
"html-button-response-mod","359","1707153","0.0-359.0","74121","","","","","","triplet","1849.0000000002328","","","","0","stimuli/tools_lowercase.png","stimuli/stim009_animate_face_1.png","stimuli/bird_lowercase.png","349"
"html-button-response","360","1709686","0.0-360.0","74121","","","","","","break","2030","<p>BREAK</p><p>Take a break for as long as you need</p><p>Click the button to continue</p>","0","","","","","",""
"html-button-response-mod","361","1711836","0.0-361.0","74121","","","","","","triplet","2148.000000000233","","","","2","stimuli/stim008_animate_bird_4.png","stimuli/tree_lowercase.png","stimuli/stim014_inanimate_boats_2.png","350"
"html-button-response-mod","362","1714386","0.0-362.0","74121","","","","","","triplet","2047","","","","1","stimuli/stim011_animate_face_3.png","stimuli/stim018_inanimate_tree_2.png","stimuli/stim006_animate_bird_2.png","351"
"html-button-response-mod","363","1716569","0.0-363.0","74121","","","","","","triplet","1682","","","","1","stimuli/bird_uppercase.png","stimuli/stim021_inanimate_tools_1.png","stimuli/stim017_inanimate_tree_1.png","352"
"html-button-response-mod","364","1718302","0.0-364.0","74121","","","","","","triplet","1230","","","","2","stimuli/stim011_animate_face_3.png","stimuli/fish_lowercase.png","stimuli/stim015_inanimate_boats_3.png","353"
"html-button-response-mod","365","1720152","0.0-365.0","74121","","","","","","triplet","1348.0000000002328","","","","2","stimuli/bird_uppercase.png","stimuli/face_lowercase.png","stimuli/tools_uppercase.png","354"
"html-button-response-mod","366","1722869","0.0-366.0","74121","","","","","","triplet","2214","","","","1","stimuli/stim005_animate_bird_1.png","stimuli/stim014_inanimate_boats_2.png","stimuli/stim018_inanimate_tree_2.png","355"
"html-button-response-mod","367","1724503","0.0-367.0","74121","","","","","","triplet","1133","","","","2","stimuli/bird_uppercase.png","stimuli/stim004_animate_fish_4.png","stimuli/stim022_inanimate_tools_2.png","356"
"html-button-response-mod","368","1726385","0.0-368.0","74121","","","","","","triplet","1381","","","","2","stimuli/stim004_animate_fish_4.png","stimuli/stim008_animate_bird_4.png","stimuli/face_uppercase.png","357"
"html-button-response-mod","369","1728419","0.0-369.0","74121","","","","","","triplet","1533","","","","0","stimuli/tree_uppercase.png","stimuli/stim007_animate_bird_3.png","stimuli/stim002_animate_fish_2.png","358"
"html-button-response-mod","370","1731019","0.0-370.0","74121","","","","","","triplet","2099.000000000233","","","","0","stimuli/stim009_animate_face_1.png","stimuli/stim020_inanimate_tree_4.png","stimuli/stim017_inanimate_tree_1.png","359"
"html-button-response-mod","371","1733669","0.0-371.0","74121","","","","","","triplet","2148","","","","0","stimuli/stim009_animate_face_1.png","stimuli/tree_lowercase.png","stimuli/stim013_inanimate_boats_1.png","360"
"html-button-response-mod","372","1736285","0.0-372.0","74121","","","","","","triplet","2113","","","","0","stimuli/tools_uppercase.png","stimuli/stim006_animate_bird_2.png","stimuli/stim018_inanimate_tree_2.png","361"
"html-button-response-mod","373","1739285","0.0-373.0","74121","","","","","","triplet","2499","","","","0","stimuli/stim024_inanimate_tools_4.png","stimuli/tree_uppercase.png","stimuli/stim009_animate_face_1.png","362"
"html-button-response-mod","374","1741985","0.0-374.0","74121","","","","","","triplet","2197.999999999767","","","","2","stimuli/stim013_inanimate_boats_1.png","stimuli/stim016_inanimate_boats_4.png","stimuli/stim012_animate_face_4.png","363"
"html-button-response-mod","375","1744802","0.0-375.0","74121","","","","","","triplet","2314","","","","1","stimuli/fish_lowercase.png","stimuli/boats_lowercase.png","stimuli/stim002_animate_fish_2.png","364"
"html-button-response-mod","376","1746735","0.0-376.0","74121","","","","","","triplet","1431","","","","1","stimuli/stim008_animate_bird_4.png","stimuli/boats_lowercase.png","stimuli/stim010_animate_face_2.png","365"
"html-button-response-mod","377","1750052","0.0-377.0","74121","","","","","","triplet","2814","","","","2","stimuli/stim011_animate_face_3.png","stimuli/stim019_inanimate_tree_3.png","stimuli/boats_uppercase.png","366"
"html-button-response-mod","378","1752535","0.0-378.0","74121","","","","","","triplet","1980","","","","2","stimuli/stim010_animate_face_2.png","stimuli/stim013_inanimate_boats_1.png","stimuli/stim024_inanimate_tools_4.png","367"
"html-button-response-mod","379","1754017","0.0-379.0","74121","","","","","","triplet","981","","","","1","stimuli/stim020_inanimate_tree_4.png","stimuli/fish_uppercase.png","stimuli/stim018_inanimate_tree_2.png","368"
"html-button-response-mod","380","1756301","0.0-380.0","74121","","","","","","triplet","1781","","","","1","stimuli/stim016_inanimate_boats_4.png","stimuli/stim015_inanimate_boats_3.png","stimuli/boats_lowercase.png","369"
"html-button-response-mod","381","1760850","0.0-381.0","74121","","","","","","triplet","4047","","","","2","stimuli/stim005_animate_bird_1.png","stimuli/stim017_inanimate_tree_1.png","stimuli/stim021_inanimate_tools_1.png","370"
"html-button-response-mod","382","1762534","0.0-382.0","74121","","","","","","triplet","1182","","","","1","stimuli/bird_lowercase.png","stimuli/stim023_inanimate_tools_3.png","stimuli/stim002_animate_fish_2.png","371"
"html-button-response-mod","383","1764067","0.0-383.0","74121","","","","","","triplet","1031","","","","1","stimuli/stim008_animate_bird_4.png","stimuli/stim015_inanimate_boats_3.png","stimuli/stim001_animate_fish_1.png","372"
"html-button-response-mod","384","1766418","0.0-384.0","74121","","","","","","triplet","1848","","","","1","stimuli/boats_lowercase.png","stimuli/stim004_animate_fish_4.png","stimuli/stim021_inanimate_tools_1.png","373"
"html-button-response-mod","385","1768468","0.0-385.0","74121","","","","","","triplet","1548","","","","0","stimuli/face_uppercase.png","stimuli/stim018_inanimate_tree_2.png","stimuli/stim017_inanimate_tree_1.png","374"
"html-button-response-mod","386","1771850","0.0-386.0","74121","","","","","","triplet","2882","","","","1","stimuli/stim008_animate_bird_4.png","stimuli/stim014_inanimate_boats_2.png","stimuli/stim012_animate_face_4.png","375"
"html-button-response-mod","387","1774401","0.0-387.0","74121","","","","","","triplet","2048","","","","1","stimuli/tree_uppercase.png","stimuli/boats_lowercase.png","stimuli/bird_lowercase.png","376"
"html-button-response-mod","388","1777050","0.0-388.0","74121","","","","","","triplet","2146.999999999767","","","","0","stimuli/stim016_inanimate_boats_4.png","stimuli/stim006_animate_bird_2.png","stimuli/stim002_animate_fish_2.png","377"
"html-button-response-mod","389","1778934","0.0-389.0","74121","","","","","","triplet","1381","","","","0","stimuli/bird_lowercase.png","stimuli/stim019_inanimate_tree_3.png","stimuli/stim020_inanimate_tree_4.png","378"
"html-button-response-mod","390","1782017","0.0-390.0","74121","","","","","","triplet","2582","","","","2","stimuli/stim024_inanimate_tools_4.png","stimuli/tools_lowercase.png","stimuli/face_lowercase.png","379"
"html-button-response-mod","391","1786899","0.0-391.0","74121","","","","","","triplet","4380","","","","0","stimuli/tools_lowercase.png","stimuli/stim001_animate_fish_1.png","stimuli/face_lowercase.png","380"
"html-button-response-mod","392","1788616","0.0-392.0","74121","","","","","","triplet","1216","","","","2","stimuli/stim009_animate_face_1.png","stimuli/stim006_animate_bird_2.png","stimuli/stim014_inanimate_boats_2.png","381"
"html-button-response-mod","393","1791100","0.0-393.0","74121","","","","","","triplet","1982","","","","1","stimuli/stim013_inanimate_boats_1.png","stimuli/stim023_inanimate_tools_3.png","stimuli/stim015_inanimate_boats_3.png","382"
"html-button-response-mod","394","1793699","0.0-394.0","74121","","","","","","triplet","2098","","","","1","stimuli/stim023_inanimate_tools_3.png","stimuli/boats_uppercase.png","stimuli/stim022_inanimate_tools_2.png","383"
"html-button-response-mod","395","1796066","0.0-395.0","74121","","","","","","triplet","1866","","","","0","stimuli/stim016_inanimate_boats_4.png","stimuli/stim005_animate_bird_1.png","stimuli/stim004_animate_fish_4.png","384"
"html-button-response-mod","396","1797715","0.0-396.0","74121","","","","","","triplet","1147","","","","2","stimuli/stim004_animate_fish_4.png","stimuli/stim002_animate_fish_2.png","stimuli/stim024_inanimate_tools_4.png","385"
"html-button-response-mod","397","1801215","0.0-397.0","74121","","","","","","triplet","2997","","","","1","stimuli/fish_uppercase.png","stimuli/bird_uppercase.png","stimuli/stim006_animate_bird_2.png","386"
"html-button-response-mod","398","1805216","0.0-398.0","74121","","","","","","triplet","3498","","","","2","stimuli/stim011_animate_face_3.png","stimuli/bird_lowercase.png","stimuli/stim016_inanimate_boats_4.png","387"
"html-button-response-mod","399","1807899","0.0-399.0","74121","","","","","","triplet","2181","","","","0","stimuli/stim002_animate_fish_2.png","stimuli/stim014_inanimate_boats_2.png","stimuli/stim021_inanimate_tools_1.png","388"
"html-button-response-mod","400","1810132","0.0-400.0","74121","","","","","","triplet","1729.9999999997672","","","","0","stimuli/stim005_animate_bird_1.png","stimuli/stim017_inanimate_tree_1.png","stimuli/tree_uppercase.png","389"
"html-button-response-mod","401","1812049","0.0-401.0","74121","","","","","","triplet","1415","","","","2","stimuli/stim009_animate_face_1.png","stimuli/stim003_animate_fish_3.png","stimuli/stim021_inanimate_tools_1.png","390"
"html-button-response-mod","402","1814166","0.0-402.0","74121","","","","","","triplet","1614","","","","2","stimuli/face_uppercase.png","stimuli/face_lowercase.png","stimuli/tree_uppercase.png","391"
"html-button-response-mod","403","1815949","0.0-403.0","74121","","","","","","triplet","1283.0000000002328","","","","0","stimuli/stim011_animate_face_3.png","stimuli/stim004_animate_fish_4.png","stimuli/stim001_animate_fish_1.png","392"
"html-button-response-mod","404","1817982","0.0-404.0","74121","","","","","","triplet","1531.9999999997672","","","","1","stimuli/stim011_animate_face_3.png","stimuli/stim020_inanimate_tree_4.png","stimuli/face_uppercase.png","393"
"html-button-response-mod","405","1824932","0.0-405.0","74121","","","","","","triplet","6448.000000000233","","","","0","stimuli/tree_uppercase.png","stimuli/face_lowercase.png","stimuli/stim001_animate_fish_1.png","394"
"html-button-response-mod","406","1826432","0.0-406.0","74121","","","","","","triplet","998.0000000002328","","","","1","stimuli/face_uppercase.png","stimuli/stim015_inanimate_boats_3.png","stimuli/stim011_animate_face_3.png","395"
"html-button-response-mod","407","1831516","0.0-407.0","74121","","","","","","triplet","4582","","","","1","stimuli/face_lowercase.png","stimuli/stim019_inanimate_tree_3.png","stimuli/boats_uppercase.png","396"
"html-button-response-mod","408","1838914","0.0-408.0","74121","","","","","","triplet","6895","","","","1","stimuli/stim007_animate_bird_3.png","stimuli/stim015_inanimate_boats_3.png","stimuli/stim006_animate_bird_2.png","397"
"html-button-response-mod","409","1844365","0.0-409.0","74121","","","","","","triplet","4948","","","","0","stimuli/tools_uppercase.png","stimuli/stim020_inanimate_tree_4.png","stimuli/stim005_animate_bird_1.png","398"
"html-button-response-mod","410","1848631","0.0-410.0","74121","","","","","","triplet","3764","","","","0","stimuli/stim017_inanimate_tree_1.png","stimuli/stim009_animate_face_1.png","stimuli/stim006_animate_bird_2.png","399"
"html-button-response","411","1850732","0.0-411.0","74121","","","","","","break","1599","<p>BREAK</p><p>Take a break for as long as you need</p><p>Click the button to continue</p>","0","","","","","",""
"survey-text","412","1895582","0.0-412.0","74121","","","","","","data_patterns","44848","","{""Q0"":""Group living with living or non-living and species by animal or human""}","","","","","",""
"survey-text","413","1897754","0.0-413.0","74121","","","","","","age_question","2167","","{""Age"":""18""}","","","","","",""
"html-button-response","414","1899314","0.0-414.0","74121","","","","","","gender_question","1559","How would you like your gender to be recorded?","1","","","","","",""
"html-button-response","415","1904446","0.0-415.0","74121","","","","","","debrief","5132","<p> Thank you for participating in this experiment! </p><p> We are investigating the dimensions along which you perceive the world </p><p>The images were all sorted according to whether they are animate or not, and </p><p> whether they are text or images. We are comparing this to some neuroimaging data to see </p> how your conscious classification relates to how your brain classifies the objects automatically. </p>","0","1908135","","","","",""
