"trial_type","trial_index","time_elapsed","internal_node_id","subject","success","timeout","failed_images","failed_audio","failed_video","test_part","rt","stimulus","response","end_time","button_pressed","stim0","stim1","stim2","trialnr"
"pavlovia","0","12","0.0-0.0","74307","","","","","","","","","","","","","","",""
"preload","1","3721","0.0-1.0","74307","true","false","[]","[]","[]","preload","","","","","","","","",""
"html-button-response","2","6382","0.0-2.0","74307","","","","","","","2659.899999856949","<p>Welcome to the experiment. To begin, please read the following and press the button at the bottom of the screen.</p><p></p><p><strong>Project Name: A study on cognitive processes involved in visual perception</p></strong><p></p><p><strong>PARTICIPANT INFORMATION STATEMENT</strong></p><p></p><strong>(1) What is the study about?</strong><br>You are invited to participate in a study that investigates the cognitive processes involved in perceiving and recognizing visual stimuli.If you decide to participate, you will be asked to complete a task in which you will view pictures, letters, numbers, or words presented on a computer screen.<br><strong>(2) Who can participate?</strong><br>Anyone aged 18 years or over with access to a computer (not a phone/tablet)<br><strong>(3) Where is the study located?</strong><br>The study will be conducted in your browser<br><strong>(4) Who is carrying out the study?</strong><br>The study is being conducted by Sophia Shatek from the Computational Cognitive Neuroscience laboratory at the University of Sydney.<br><strong>(5) What does the study involve?</strong><br>In this study, you will be asked to perform tasks where you will see different stimuli appear on the computer screen.You will respond by pressing a key or using a computer mouse.<br><strong>(6) How much time will the study take?</strong><br>The study takes about 30 minutes<br><strong>(7)	Can I withdraw from the study?</strong><br>Being in this study is completely voluntary - you are not under any obligation to consent. You can withdraw at any time without having to give a reason and without penalty.<br><strong>(8) Will anyone else know the results?</strong><br>All aspects of the study, including results, will be strictly confidential and only the researchers will have access to information on participants.The results and data from the study may be submitted for publication or shared with other research labs, but individual participants will not be identifiable.<br><strong>(9) Will the study benefit me?</strong><br>You will be awarded 0.5 credits for your participation.<br><strong>(10) Can I tell other people about the study?</strong><br>Yes, please tell them to contact Dr Thomas Carlson by email at thomas.carlson@sydney.edu.au.<br><strong>(11) What if I require further information about the study or my involvement in it?</strong><br>When you have read this information, the investigator will discuss it with you further and answer any questions you may have.If you would like to know more at any stage, please feel free to contact Dr Thomas Carlson directly by email at thomas.carlson@sydney.edu.au.If you would like to be informed about the outcomes of the study, contact Dr Thomas Carlson directly by email at thomas.carlson@sydney.edu.au.<br><strong>(12) What if I have a complaint or any concerns?</strong><br>Any person with concerns or complaints about the conduct of a research study can contact The Manager,Human Ethics Administration, University of Sydney on +61 2 8627 8176 (Telephone); +61 2 8627 8177 (Facsimile) or ro.humanethics@sydney.edu.au (Email).</p><p></p><strong>By participating in this experiment, you consent to participate in this study and acknowledge that:</strong><br>1. The procedures required for the project and the times involved have been explained to me, and any questions I have about the project have been answered to my satisfaction.<br>2.	I have read the Above Information Statement and have been given the opportunity to discuss the information and my involvement in the project with the researcher/s.<br>3. I understand that allowing my data to be used in research reports is completely voluntary - I am not under any obligation to consent.<br>4. I understand that my involvement is strictly confidential. I understand that any research data gathered from the results of the study may be publishedhowever no information about me will be used in any way that is identifiable.</p><p></p>","0","","","","","",""
"html-button-response","3","7566","0.0-3.0","74307","","","","","","opening_instructions","1182.7999999523163","<p>In this experiment, you will see three images appear on the screen.</p><p>You need to click the 'odd one out', or the image </p><p>that is MOST CONCEPTUALLY DIFFERENT to the other two. </p><p>(e.g., the word 'tree' and a picture of a tree are conceptually SIMILAR, </p><p> but the word 'tree' and the word 'boat' are conceptually DIFFERENT even though they look similar) </p><p>Just go with your intuition, don't spend too long thinking about each one.</p>","0","14354","","","","",""
"html-button-response-mod","4","17402","0.0-4.0","74307","","","","","","triplet","9834.200000047684","","","","2","stimuli/stim009_animate_face_1.png","stimuli/tree_uppercase.png","stimuli/fish_lowercase.png","0"
"html-button-response-mod","5","26809","0.0-5.0","74307","","","","","","triplet","8905.300000190735","","","","2","stimuli/tools_lowercase.png","stimuli/stim022_inanimate_tools_2.png","stimuli/stim020_inanimate_tree_4.png","1"
"html-button-response-mod","6","32247","0.0-6.0","74307","","","","","","triplet","4928.599999904633","","","","2","stimuli/stim015_inanimate_boats_3.png","stimuli/stim019_inanimate_tree_3.png","stimuli/tools_uppercase.png","2"
"html-button-response-mod","7","34119","0.0-7.0","74307","","","","","","triplet","1356.7999999523163","","","","1","stimuli/stim002_animate_fish_2.png","stimuli/stim018_inanimate_tree_2.png","stimuli/stim001_animate_fish_1.png","3"
"html-button-response-mod","8","37089","0.0-8.0","74307","","","","","","triplet","2452.7999999523163","","","","2","stimuli/stim008_animate_bird_4.png","stimuli/stim018_inanimate_tree_2.png","stimuli/stim012_animate_face_4.png","4"
"html-button-response-mod","9","41011","0.0-9.0","74307","","","","","","triplet","3412.7000000476837","","","","1","stimuli/boats_lowercase.png","stimuli/stim011_animate_face_3.png","stimuli/stim018_inanimate_tree_2.png","5"
"html-button-response-mod","10","43937","0.0-10.0","74307","","","","","","triplet","2411.2000000476837","","","","0","stimuli/face_uppercase.png","stimuli/tree_lowercase.png","stimuli/tools_uppercase.png","6"
"html-button-response-mod","11","48847","0.0-11.0","74307","","","","","","triplet","4401","","","","0","stimuli/stim005_animate_bird_1.png","stimuli/tools_lowercase.png","stimuli/face_lowercase.png","7"
"html-button-response-mod","12","54816","0.0-12.0","74307","","","","","","triplet","5460.5","","","","1","stimuli/stim013_inanimate_boats_1.png","stimuli/tree_uppercase.png","stimuli/stim023_inanimate_tools_3.png","8"
"html-button-response-mod","13","58529","0.0-13.0","74307","","","","","","triplet","3209.7000000476837","","","","2","stimuli/stim017_inanimate_tree_1.png","stimuli/fish_lowercase.png","stimuli/face_lowercase.png","9"
"html-button-response-mod","14","60677","0.0-14.0","74307","","","","","","triplet","1639.4000000953674","","","","2","stimuli/bird_lowercase.png","stimuli/stim007_animate_bird_3.png","stimuli/stim020_inanimate_tree_4.png","10"
"html-button-response-mod","15","63773","0.0-15.0","74307","","","","","","triplet","2584.199999809265","","","","2","stimuli/stim023_inanimate_tools_3.png","stimuli/stim024_inanimate_tools_4.png","stimuli/stim010_animate_face_2.png","11"
"html-button-response-mod","16","66222","0.0-16.0","74307","","","","","","triplet","1942.2000000476837","","","","2","stimuli/fish_lowercase.png","stimuli/fish_uppercase.png","stimuli/stim002_animate_fish_2.png","12"
"html-button-response-mod","17","69836","0.0-17.0","74307","","","","","","triplet","3110.5999999046326","","","","2","stimuli/stim012_animate_face_4.png","stimuli/stim010_animate_face_2.png","stimuli/stim023_inanimate_tools_3.png","13"
"html-button-response-mod","18","71330","0.0-18.0","74307","","","","","","triplet","988.8000001907349","","","","2","stimuli/fish_lowercase.png","stimuli/stim001_animate_fish_1.png","stimuli/stim022_inanimate_tools_2.png","14"
"html-button-response-mod","19","74454","0.0-19.0","74307","","","","","","triplet","2622.5","","","","1","stimuli/tree_uppercase.png","stimuli/stim008_animate_bird_4.png","stimuli/tools_uppercase.png","15"
"html-button-response-mod","20","78018","0.0-20.0","74307","","","","","","triplet","3053.4000000953674","","","","0","stimuli/stim017_inanimate_tree_1.png","stimuli/stim006_animate_bird_2.png","stimuli/stim004_animate_fish_4.png","16"
"html-button-response-mod","21","80386","0.0-21.0","74307","","","","","","triplet","1865.5","","","","2","stimuli/tools_lowercase.png","stimuli/tree_lowercase.png","stimuli/stim012_animate_face_4.png","17"
"html-button-response-mod","22","84570","0.0-22.0","74307","","","","","","triplet","3681.100000143051","","","","2","stimuli/tree_lowercase.png","stimuli/stim015_inanimate_boats_3.png","stimuli/stim007_animate_bird_3.png","18"
"html-button-response-mod","23","87276","0.0-23.0","74307","","","","","","triplet","2204.7999999523163","","","","1","stimuli/stim008_animate_bird_4.png","stimuli/stim022_inanimate_tools_2.png","stimuli/bird_uppercase.png","19"
"html-button-response-mod","24","91226","0.0-24.0","74307","","","","","","triplet","3440.2999999523163","","","","0","stimuli/stim023_inanimate_tools_3.png","stimuli/stim002_animate_fish_2.png","stimuli/stim013_inanimate_boats_1.png","20"
"html-button-response-mod","25","106658","0.0-25.0","74307","","","","","","triplet","14917.599999904633","","","","2","stimuli/stim017_inanimate_tree_1.png","stimuli/stim004_animate_fish_4.png","stimuli/stim012_animate_face_4.png","21"
"html-button-response-mod","26","109186","0.0-26.0","74307","","","","","","triplet","2022","","","","0","stimuli/face_uppercase.png","stimuli/stim015_inanimate_boats_3.png","stimuli/stim022_inanimate_tools_2.png","22"
"html-button-response-mod","27","113014","0.0-27.0","74307","","","","","","triplet","3324.300000190735","","","","1","stimuli/stim018_inanimate_tree_2.png","stimuli/tools_uppercase.png","stimuli/stim006_animate_bird_2.png","23"
"html-button-response-mod","28","116069","0.0-28.0","74307","","","","","","triplet","2545.399999856949","","","","2","stimuli/bird_lowercase.png","stimuli/stim004_animate_fish_4.png","stimuli/stim012_animate_face_4.png","24"
"html-button-response-mod","29","124193","0.0-29.0","74307","","","","","","triplet","7607.700000047684","","","","1","stimuli/tools_uppercase.png","stimuli/stim008_animate_bird_4.png","stimuli/stim016_inanimate_boats_4.png","25"
"html-button-response-mod","30","130979","0.0-30.0","74307","","","","","","triplet","6282.400000095367","","","","1","stimuli/stim012_animate_face_4.png","stimuli/boats_uppercase.png","stimuli/stim006_animate_bird_2.png","26"
"html-button-response-mod","31","134961","0.0-31.0","74307","","","","","","triplet","3475.7000000476837","","","","1","stimuli/stim023_inanimate_tools_3.png","stimuli/stim013_inanimate_boats_1.png","stimuli/stim024_inanimate_tools_4.png","27"
"html-button-response-mod","32","137241","0.0-32.0","74307","","","","","","triplet","1770","","","","0","stimuli/boats_lowercase.png","stimuli/stim007_animate_bird_3.png","stimuli/stim006_animate_bird_2.png","28"
"html-button-response-mod","33","140025","0.0-33.0","74307","","","","","","triplet","2279.2000000476837","","","","0","stimuli/stim024_inanimate_tools_4.png","stimuli/stim011_animate_face_3.png","stimuli/stim004_animate_fish_4.png","29"
"html-button-response-mod","34","142715","0.0-34.0","74307","","","","","","triplet","2174.199999809265","","","","1","stimuli/stim015_inanimate_boats_3.png","stimuli/stim022_inanimate_tools_2.png","stimuli/boats_lowercase.png","30"
"html-button-response-mod","35","145161","0.0-35.0","74307","","","","","","triplet","1942.6000001430511","","","","1","stimuli/stim008_animate_bird_4.png","stimuli/stim023_inanimate_tools_3.png","stimuli/stim002_animate_fish_2.png","31"
"html-button-response-mod","36","150907","0.0-36.0","74307","","","","","","triplet","5232.299999952316","","","","0","stimuli/stim001_animate_fish_1.png","stimuli/stim005_animate_bird_1.png","stimuli/bird_lowercase.png","32"
"html-button-response-mod","37","155159","0.0-37.0","74307","","","","","","triplet","3745.399999856949","","","","2","stimuli/stim007_animate_bird_3.png","stimuli/stim017_inanimate_tree_1.png","stimuli/tools_uppercase.png","33"
"html-button-response-mod","38","156895","0.0-38.0","74307","","","","","","triplet","1231.7000000476837","","","","2","stimuli/stim013_inanimate_boats_1.png","stimuli/boats_uppercase.png","stimuli/stim024_inanimate_tools_4.png","34"
"html-button-response-mod","39","158409","0.0-39.0","74307","","","","","","triplet","1010.1000001430511","","","","0","stimuli/stim011_animate_face_3.png","stimuli/stim020_inanimate_tree_4.png","stimuli/stim019_inanimate_tree_3.png","35"
"html-button-response-mod","40","160300","0.0-40.0","74307","","","","","","triplet","1389.2000000476837","","","","1","stimuli/tools_uppercase.png","stimuli/stim001_animate_fish_1.png","stimuli/tools_lowercase.png","36"
"html-button-response-mod","41","164501","0.0-41.0","74307","","","","","","triplet","3694.7000000476837","","","","2","stimuli/stim001_animate_fish_1.png","stimuli/stim010_animate_face_2.png","stimuli/stim016_inanimate_boats_4.png","37"
"html-button-response-mod","42","168329","0.0-42.0","74307","","","","","","triplet","3321.4000000953674","","","","1","stimuli/stim010_animate_face_2.png","stimuli/stim015_inanimate_boats_3.png","stimuli/face_lowercase.png","38"
"html-button-response-mod","43","172783","0.0-43.0","74307","","","","","","triplet","3936.2000000476837","","","","1","stimuli/bird_uppercase.png","stimuli/stim024_inanimate_tools_4.png","stimuli/stim018_inanimate_tree_2.png","39"
"html-button-response-mod","44","181198","0.0-44.0","74307","","","","","","triplet","7903.100000143051","","","","1","stimuli/tree_uppercase.png","stimuli/face_uppercase.png","stimuli/stim024_inanimate_tools_4.png","40"
"html-button-response-mod","45","183295","0.0-45.0","74307","","","","","","triplet","1590.2999999523163","","","","0","stimuli/stim002_animate_fish_2.png","stimuli/stim006_animate_bird_2.png","stimuli/stim005_animate_bird_1.png","41"
"html-button-response-mod","46","189170","0.0-46.0","74307","","","","","","triplet","5357.799999952316","","","","2","stimuli/stim022_inanimate_tools_2.png","stimuli/stim013_inanimate_boats_1.png","stimuli/face_lowercase.png","42"
"html-button-response-mod","47","191314","0.0-47.0","74307","","","","","","triplet","1627.7999999523163","","","","2","stimuli/bird_uppercase.png","stimuli/fish_lowercase.png","stimuli/stim024_inanimate_tools_4.png","43"
"html-button-response-mod","48","194488","0.0-48.0","74307","","","","","","triplet","2666.5","","","","1","stimuli/stim003_animate_fish_3.png","stimuli/stim024_inanimate_tools_4.png","stimuli/bird_lowercase.png","44"
"html-button-response-mod","49","198436","0.0-49.0","74307","","","","","","triplet","3440.2000000476837","","","","2","stimuli/stim012_animate_face_4.png","stimuli/face_lowercase.png","stimuli/stim008_animate_bird_4.png","45"
"html-button-response-mod","50","201428","0.0-50.0","74307","","","","","","triplet","2477.7999999523163","","","","1","stimuli/stim009_animate_face_1.png","stimuli/stim021_inanimate_tools_1.png","stimuli/stim018_inanimate_tree_2.png","46"
"html-button-response-mod","51","205331","0.0-51.0","74307","","","","","","triplet","3389.100000143051","","","","2","stimuli/stim019_inanimate_tree_3.png","stimuli/fish_uppercase.png","stimuli/stim012_animate_face_4.png","47"
"html-button-response-mod","52","208292","0.0-52.0","74307","","","","","","triplet","2458.5","","","","2","stimuli/stim024_inanimate_tools_4.png","stimuli/tools_uppercase.png","stimuli/tree_lowercase.png","48"
"html-button-response-mod","53","212233","0.0-53.0","74307","","","","","","triplet","3434","","","","0","stimuli/stim018_inanimate_tree_2.png","stimuli/bird_lowercase.png","stimuli/bird_uppercase.png","49"
"html-button-response","54","223894","0.0-54.0","74307","","","","","","break","11152.100000143051","<p>BREAK</p><p>Take a break for as long as you need</p><p>Click the button to continue</p>","0","","","","","",""
"html-button-response-mod","55","230278","0.0-55.0","74307","","","","","","triplet","6382.400000095367","","","","1","stimuli/stim015_inanimate_boats_3.png","stimuli/tree_lowercase.png","stimuli/stim021_inanimate_tools_1.png","50"
"html-button-response-mod","56","232648","0.0-56.0","74307","","","","","","triplet","1862.5999999046326","","","","1","stimuli/stim002_animate_fish_2.png","stimuli/tools_uppercase.png","stimuli/fish_uppercase.png","51"
"html-button-response-mod","57","236318","0.0-57.0","74307","","","","","","triplet","3167.2000000476837","","","","1","stimuli/fish_uppercase.png","stimuli/face_lowercase.png","stimuli/stim006_animate_bird_2.png","52"
"html-button-response-mod","58","238318","0.0-58.0","74307","","","","","","triplet","1494.7999999523163","","","","0","stimuli/stim013_inanimate_boats_1.png","stimuli/fish_uppercase.png","stimuli/stim002_animate_fish_2.png","53"
"html-button-response-mod","59","242469","0.0-59.0","74307","","","","","","triplet","3638.5","","","","2","stimuli/stim008_animate_bird_4.png","stimuli/stim020_inanimate_tree_4.png","stimuli/stim023_inanimate_tools_3.png","54"
"html-button-response-mod","60","245857","0.0-60.0","74307","","","","","","triplet","2882.0999999046326","","","","1","stimuli/stim018_inanimate_tree_2.png","stimuli/stim012_animate_face_4.png","stimuli/stim006_animate_bird_2.png","55"
"html-button-response-mod","61","247759","0.0-61.0","74307","","","","","","triplet","1399.2000000476837","","","","2","stimuli/stim019_inanimate_tree_3.png","stimuli/stim020_inanimate_tree_4.png","stimuli/stim014_inanimate_boats_2.png","56"
"html-button-response-mod","62","251971","0.0-62.0","74307","","","","","","triplet","3699.5","","","","2","stimuli/fish_uppercase.png","stimuli/stim019_inanimate_tree_3.png","stimuli/stim015_inanimate_boats_3.png","57"
"html-button-response-mod","63","253933","0.0-63.0","74307","","","","","","triplet","1446.2000000476837","","","","2","stimuli/stim022_inanimate_tools_2.png","stimuli/tools_lowercase.png","stimuli/stim011_animate_face_3.png","58"
"html-button-response-mod","64","255289","0.0-64.0","74307","","","","","","triplet","852.9000000953674","","","","2","stimuli/stim007_animate_bird_3.png","stimuli/stim005_animate_bird_1.png","stimuli/stim018_inanimate_tree_2.png","59"
"html-button-response-mod","65","258583","0.0-65.0","74307","","","","","","triplet","2787.5","","","","0","stimuli/tools_uppercase.png","stimuli/stim008_animate_bird_4.png","stimuli/tree_lowercase.png","60"
"html-button-response-mod","66","260367","0.0-66.0","74307","","","","","","triplet","1279","","","","2","stimuli/stim008_animate_bird_4.png","stimuli/bird_lowercase.png","stimuli/tree_uppercase.png","61"
"html-button-response-mod","67","263835","0.0-67.0","74307","","","","","","triplet","2964","","","","2","stimuli/face_lowercase.png","stimuli/stim019_inanimate_tree_3.png","stimuli/stim024_inanimate_tools_4.png","62"
"html-button-response-mod","68","268829","0.0-68.0","74307","","","","","","triplet","4486.899999856949","","","","1","stimuli/stim004_animate_fish_4.png","stimuli/stim015_inanimate_boats_3.png","stimuli/tree_uppercase.png","63"
"html-button-response-mod","69","270845","0.0-69.0","74307","","","","","","triplet","1513.1999998092651","","","","1","stimuli/stim018_inanimate_tree_2.png","stimuli/stim013_inanimate_boats_1.png","stimuli/stim017_inanimate_tree_1.png","64"
"html-button-response-mod","70","274123","0.0-70.0","74307","","","","","","triplet","2762.7000000476837","","","","2","stimuli/stim017_inanimate_tree_1.png","stimuli/stim006_animate_bird_2.png","stimuli/tools_uppercase.png","65"
"html-button-response-mod","71","276177","0.0-71.0","74307","","","","","","triplet","1539.9000000953674","","","","2","stimuli/bird_uppercase.png","stimuli/bird_lowercase.png","stimuli/fish_lowercase.png","66"
"html-button-response-mod","72","279865","0.0-72.0","74307","","","","","","triplet","3175.5999999046326","","","","0","stimuli/boats_lowercase.png","stimuli/stim022_inanimate_tools_2.png","stimuli/stim023_inanimate_tools_3.png","67"
"html-button-response-mod","73","289681","0.0-73.0","74307","","","","","","triplet","9306.200000047684","","","","0","stimuli/face_lowercase.png","stimuli/tree_lowercase.png","stimuli/stim014_inanimate_boats_2.png","68"
"html-button-response-mod","74","293421","0.0-74.0","74307","","","","","","triplet","3233.7000000476837","","","","2","stimuli/stim024_inanimate_tools_4.png","stimuli/stim023_inanimate_tools_3.png","stimuli/stim003_animate_fish_3.png","69"
"html-button-response-mod","75","297051","0.0-75.0","74307","","","","","","triplet","3113.699999809265","","","","0","stimuli/boats_lowercase.png","stimuli/stim013_inanimate_boats_1.png","stimuli/stim014_inanimate_boats_2.png","70"
"html-button-response-mod","76","305611","0.0-76.0","74307","","","","","","triplet","8052.5","","","","2","stimuli/boats_uppercase.png","stimuli/stim024_inanimate_tools_4.png","stimuli/bird_lowercase.png","71"
"html-button-response-mod","77","313879","0.0-77.0","74307","","","","","","triplet","7756.600000143051","","","","1","stimuli/stim005_animate_bird_1.png","stimuli/boats_lowercase.png","stimuli/stim010_animate_face_2.png","72"
"html-button-response-mod","78","316075","0.0-78.0","74307","","","","","","triplet","1681.5","","","","2","stimuli/stim008_animate_bird_4.png","stimuli/stim010_animate_face_2.png","stimuli/tools_lowercase.png","73"
"html-button-response-mod","79","320215","0.0-79.0","74307","","","","","","triplet","3625.5999999046326","","","","1","stimuli/stim014_inanimate_boats_2.png","stimuli/stim020_inanimate_tree_4.png","stimuli/tools_uppercase.png","74"
"html-button-response-mod","80","322209","0.0-80.0","74307","","","","","","triplet","1490.8999998569489","","","","0","stimuli/stim012_animate_face_4.png","stimuli/fish_uppercase.png","stimuli/stim001_animate_fish_1.png","75"
"html-button-response-mod","81","325671","0.0-81.0","74307","","","","","","triplet","2945","","","","2","stimuli/stim015_inanimate_boats_3.png","stimuli/boats_uppercase.png","stimuli/stim004_animate_fish_4.png","76"
"html-button-response-mod","82","328755","0.0-82.0","74307","","","","","","triplet","2578.4000000953674","","","","1","stimuli/stim008_animate_bird_4.png","stimuli/tools_uppercase.png","stimuli/stim003_animate_fish_3.png","77"
"html-button-response-mod","83","331176","0.0-83.0","74307","","","","","","triplet","1904.4000000953674","","","","2","stimuli/stim012_animate_face_4.png","stimuli/stim001_animate_fish_1.png","stimuli/tools_lowercase.png","78"
"html-button-response-mod","84","335439","0.0-84.0","74307","","","","","","triplet","3755.2000000476837","","","","2","stimuli/stim009_animate_face_1.png","stimuli/tree_lowercase.png","stimuli/tools_uppercase.png","79"
"html-button-response-mod","85","341903","0.0-85.0","74307","","","","","","triplet","5956.599999904633","","","","0","stimuli/stim012_animate_face_4.png","stimuli/stim023_inanimate_tools_3.png","stimuli/stim015_inanimate_boats_3.png","80"
"html-button-response-mod","86","344268","0.0-86.0","74307","","","","","","triplet","1853.5","","","","2","stimuli/stim007_animate_bird_3.png","stimuli/bird_lowercase.png","stimuli/stim013_inanimate_boats_1.png","81"
"html-button-response-mod","87","352345","0.0-87.0","74307","","","","","","triplet","7574.399999856949","","","","0","stimuli/bird_uppercase.png","stimuli/face_lowercase.png","stimuli/stim010_animate_face_2.png","82"
"html-button-response-mod","88","354697","0.0-88.0","74307","","","","","","triplet","1835","","","","1","stimuli/stim012_animate_face_4.png","stimuli/boats_uppercase.png","stimuli/bird_lowercase.png","83"
"html-button-response-mod","89","363923","0.0-89.0","74307","","","","","","triplet","8715.100000143051","","","","1","stimuli/stim018_inanimate_tree_2.png","stimuli/face_lowercase.png","stimuli/stim015_inanimate_boats_3.png","84"
"html-button-response-mod","90","369943","0.0-90.0","74307","","","","","","triplet","5511.700000047684","","","","2","stimuli/stim005_animate_bird_1.png","stimuli/stim010_animate_face_2.png","stimuli/stim015_inanimate_boats_3.png","85"
"html-button-response-mod","91","372324","0.0-91.0","74307","","","","","","triplet","1872.5999999046326","","","","0","stimuli/stim001_animate_fish_1.png","stimuli/stim021_inanimate_tools_1.png","stimuli/stim014_inanimate_boats_2.png","86"
"html-button-response-mod","92","379335","0.0-92.0","74307","","","","","","triplet","6499.299999952316","","","","2","stimuli/stim019_inanimate_tree_3.png","stimuli/stim001_animate_fish_1.png","stimuli/stim009_animate_face_1.png","87"
"html-button-response-mod","93","383489","0.0-93.0","74307","","","","","","triplet","3638.7000000476837","","","","0","stimuli/stim010_animate_face_2.png","stimuli/stim011_animate_face_3.png","stimuli/stim009_animate_face_1.png","88"
"html-button-response-mod","94","392285","0.0-94.0","74307","","","","","","triplet","8279.700000047684","","","","2","stimuli/stim007_animate_bird_3.png","stimuli/bird_uppercase.png","stimuli/stim003_animate_fish_3.png","89"
"html-button-response-mod","95","1289554","0.0-95.0","74307","","","","","","triplet","896762.100000143","","","","2","stimuli/bird_uppercase.png","stimuli/stim018_inanimate_tree_2.png","stimuli/boats_uppercase.png","90"
"html-button-response-mod","96","1297566","0.0-96.0","74307","","","","","","triplet","7505.799999952316","","","","1","stimuli/bird_uppercase.png","stimuli/boats_uppercase.png","stimuli/stim020_inanimate_tree_4.png","91"
"html-button-response-mod","97","1299728","0.0-97.0","74307","","","","","","triplet","1660.3000001907349","","","","1","stimuli/stim016_inanimate_boats_4.png","stimuli/stim021_inanimate_tools_1.png","stimuli/stim015_inanimate_boats_3.png","92"
"html-button-response-mod","98","1306360","0.0-98.0","74307","","","","","","triplet","6120.600000143051","","","","0","stimuli/tools_uppercase.png","stimuli/bird_uppercase.png","stimuli/stim017_inanimate_tree_1.png","93"
"html-button-response-mod","99","1308209","0.0-99.0","74307","","","","","","triplet","1336.1999998092651","","","","1","stimuli/stim005_animate_bird_1.png","stimuli/stim022_inanimate_tools_2.png","stimuli/stim002_animate_fish_2.png","94"
"html-button-response-mod","100","1310088","0.0-100.0","74307","","","","","","triplet","1369.2999999523163","","","","0","stimuli/stim008_animate_bird_4.png","stimuli/stim017_inanimate_tree_1.png","stimuli/stim020_inanimate_tree_4.png","95"
"html-button-response-mod","101","1312848","0.0-101.0","74307","","","","","","triplet","2258","","","","0","stimuli/stim013_inanimate_boats_1.png","stimuli/stim012_animate_face_4.png","stimuli/stim003_animate_fish_3.png","96"
"html-button-response-mod","102","1315848","0.0-102.0","74307","","","","","","triplet","2484.7000000476837","","","","1","stimuli/stim012_animate_face_4.png","stimuli/stim022_inanimate_tools_2.png","stimuli/stim018_inanimate_tree_2.png","97"
"html-button-response-mod","103","1324220","0.0-103.0","74307","","","","","","triplet","7858.200000047684","","","","1","stimuli/stim017_inanimate_tree_1.png","stimuli/tools_uppercase.png","stimuli/stim010_animate_face_2.png","98"
"html-button-response-mod","104","1329148","0.0-104.0","74307","","","","","","triplet","4414.599999904633","","","","2","stimuli/stim019_inanimate_tree_3.png","stimuli/stim022_inanimate_tools_2.png","stimuli/stim009_animate_face_1.png","99"
"html-button-response","105","1331829","0.0-105.0","74307","","","","","","break","2176.4000000953674","<p>BREAK</p><p>Take a break for as long as you need</p><p>Click the button to continue</p>","0","","","","","",""
"html-button-response-mod","106","1334717","0.0-106.0","74307","","","","","","triplet","2886.899999856949","","","","2","stimuli/stim006_animate_bird_2.png","stimuli/bird_uppercase.png","stimuli/face_uppercase.png","100"
"html-button-response-mod","107","1336940","0.0-107.0","74307","","","","","","triplet","1711.3999998569489","","","","1","stimuli/bird_lowercase.png","stimuli/stim021_inanimate_tools_1.png","stimuli/stim008_animate_bird_4.png","101"
"html-button-response-mod","108","1341732","0.0-108.0","74307","","","","","","triplet","4286.200000047684","","","","2","stimuli/stim019_inanimate_tree_3.png","stimuli/stim022_inanimate_tools_2.png","stimuli/face_lowercase.png","102"
"html-button-response-mod","109","1352042","0.0-109.0","74307","","","","","","triplet","9803.600000143051","","","","1","stimuli/stim005_animate_bird_1.png","stimuli/tools_uppercase.png","stimuli/stim002_animate_fish_2.png","103"
"html-button-response-mod","110","1357958","0.0-110.0","74307","","","","","","triplet","5402.899999856949","","","","1","stimuli/stim023_inanimate_tools_3.png","stimuli/stim017_inanimate_tree_1.png","stimuli/stim024_inanimate_tools_4.png","104"
"html-button-response-mod","111","1360206","0.0-111.0","74307","","","","","","triplet","1737.7999999523163","","","","2","stimuli/stim008_animate_bird_4.png","stimuli/stim002_animate_fish_2.png","stimuli/stim015_inanimate_boats_3.png","105"
"html-button-response-mod","112","1361862","0.0-112.0","74307","","","","","","triplet","1152.3999998569489","","","","1","stimuli/stim005_animate_bird_1.png","stimuli/stim015_inanimate_boats_3.png","stimuli/stim007_animate_bird_3.png","106"
"html-button-response-mod","113","1378184","0.0-113.0","74307","","","","","","triplet","15806.299999952316","","","","0","stimuli/stim012_animate_face_4.png","stimuli/fish_lowercase.png","stimuli/stim022_inanimate_tools_2.png","107"
"html-button-response-mod","114","1382175","0.0-114.0","74307","","","","","","triplet","3479.800000190735","","","","2","stimuli/stim022_inanimate_tools_2.png","stimuli/tools_uppercase.png","stimuli/fish_lowercase.png","108"
"html-button-response-mod","115","1383750","0.0-115.0","74307","","","","","","triplet","1059.0999999046326","","","","0","stimuli/stim015_inanimate_boats_3.png","stimuli/stim004_animate_fish_4.png","stimuli/stim007_animate_bird_3.png","109"
"html-button-response-mod","116","1385340","0.0-116.0","74307","","","","","","triplet","1087.7000000476837","","","","2","stimuli/stim006_animate_bird_2.png","stimuli/stim001_animate_fish_1.png","stimuli/tools_lowercase.png","110"
"html-button-response-mod","117","1388271","0.0-117.0","74307","","","","","","triplet","2427.899999856949","","","","0","stimuli/stim019_inanimate_tree_3.png","stimuli/stim016_inanimate_boats_4.png","stimuli/stim001_animate_fish_1.png","111"
"html-button-response-mod","118","1392160","0.0-118.0","74307","","","","","","triplet","3381.0999999046326","","","","1","stimuli/stim014_inanimate_boats_2.png","stimuli/face_uppercase.png","stimuli/stim021_inanimate_tools_1.png","112"
"html-button-response-mod","119","1395800","0.0-119.0","74307","","","","","","triplet","3127","","","","2","stimuli/stim020_inanimate_tree_4.png","stimuli/stim022_inanimate_tools_2.png","stimuli/stim009_animate_face_1.png","113"
"html-button-response-mod","120","1404680","0.0-120.0","74307","","","","","","triplet","8362.599999904633","","","","1","stimuli/face_uppercase.png","stimuli/stim021_inanimate_tools_1.png","stimuli/bird_uppercase.png","114"
"html-button-response-mod","121","1409765","0.0-121.0","74307","","","","","","triplet","4568","","","","2","stimuli/stim012_animate_face_4.png","stimuli/stim010_animate_face_2.png","stimuli/stim003_animate_fish_3.png","115"
"html-button-response-mod","122","1412884","0.0-122.0","74307","","","","","","triplet","2601.899999856949","","","","1","stimuli/stim007_animate_bird_3.png","stimuli/stim013_inanimate_boats_1.png","stimuli/tree_uppercase.png","116"
"html-button-response-mod","123","1416440","0.0-123.0","74307","","","","","","triplet","3046.9000000953674","","","","2","stimuli/stim005_animate_bird_1.png","stimuli/stim002_animate_fish_2.png","stimuli/stim023_inanimate_tools_3.png","117"
"html-button-response-mod","124","1420540","0.0-124.0","74307","","","","","","triplet","3594.399999856949","","","","2","stimuli/stim004_animate_fish_4.png","stimuli/face_lowercase.png","stimuli/stim019_inanimate_tree_3.png","118"
"html-button-response-mod","125","1424324","0.0-125.0","74307","","","","","","triplet","3277.5999999046326","","","","2","stimuli/stim013_inanimate_boats_1.png","stimuli/fish_lowercase.png","stimuli/stim023_inanimate_tools_3.png","119"
"html-button-response-mod","126","1427024","0.0-126.0","74307","","","","","","triplet","2183.600000143051","","","","1","stimuli/bird_uppercase.png","stimuli/stim021_inanimate_tools_1.png","stimuli/stim006_animate_bird_2.png","120"
"html-button-response-mod","127","1429739","0.0-127.0","74307","","","","","","triplet","2210.7000000476837","","","","2","stimuli/fish_uppercase.png","stimuli/fish_lowercase.png","stimuli/face_uppercase.png","121"
"html-button-response-mod","128","1431960","0.0-128.0","74307","","","","","","triplet","1711.5999999046326","","","","1","stimuli/face_uppercase.png","stimuli/stim020_inanimate_tree_4.png","stimuli/stim009_animate_face_1.png","122"
"html-button-response-mod","129","1433966","0.0-129.0","74307","","","","","","triplet","1490.8000001907349","","","","1","stimuli/bird_uppercase.png","stimuli/fish_lowercase.png","stimuli/stim006_animate_bird_2.png","123"
"html-button-response-mod","130","1436508","0.0-130.0","74307","","","","","","triplet","2040.5","","","","1","stimuli/stim013_inanimate_boats_1.png","stimuli/stim019_inanimate_tree_3.png","stimuli/stim014_inanimate_boats_2.png","124"
"html-button-response-mod","131","1438729","0.0-131.0","74307","","","","","","triplet","1718.7999999523163","","","","2","stimuli/fish_uppercase.png","stimuli/stim015_inanimate_boats_3.png","stimuli/stim011_animate_face_3.png","125"
"html-button-response-mod","132","1440664","0.0-132.0","74307","","","","","","triplet","1425.7999999523163","","","","1","stimuli/tools_lowercase.png","stimuli/stim023_inanimate_tools_3.png","stimuli/tools_uppercase.png","126"
"html-button-response-mod","133","1445326","0.0-133.0","74307","","","","","","triplet","4156.400000095367","","","","1","stimuli/stim002_animate_fish_2.png","stimuli/tree_lowercase.png","stimuli/fish_uppercase.png","127"
"html-button-response-mod","134","1447908","0.0-134.0","74307","","","","","","triplet","2075.4000000953674","","","","0","stimuli/stim022_inanimate_tools_2.png","stimuli/stim003_animate_fish_3.png","stimuli/bird_lowercase.png","128"
"html-button-response-mod","135","1451476","0.0-135.0","74307","","","","","","triplet","3066.0999999046326","","","","0","stimuli/boats_uppercase.png","stimuli/bird_lowercase.png","stimuli/stim017_inanimate_tree_1.png","129"
"html-button-response-mod","136","1453590","0.0-136.0","74307","","","","","","triplet","1612.1000001430511","","","","0","stimuli/bird_lowercase.png","stimuli/fish_uppercase.png","stimuli/fish_lowercase.png","130"
"html-button-response-mod","137","1456224","0.0-137.0","74307","","","","","","triplet","2117.5999999046326","","","","0","stimuli/stim022_inanimate_tools_2.png","stimuli/stim013_inanimate_boats_1.png","stimuli/stim004_animate_fish_4.png","131"
"html-button-response-mod","138","1459096","0.0-138.0","74307","","","","","","triplet","2362.5999999046326","","","","2","stimuli/fish_uppercase.png","stimuli/stim012_animate_face_4.png","stimuli/stim024_inanimate_tools_4.png","132"
"html-button-response-mod","139","1463886","0.0-139.0","74307","","","","","","triplet","4275.5","","","","0","stimuli/stim022_inanimate_tools_2.png","stimuli/bird_lowercase.png","stimuli/boats_uppercase.png","133"
"html-button-response-mod","140","1473520","0.0-140.0","74307","","","","","","triplet","9130.799999952316","","","","0","stimuli/stim021_inanimate_tools_1.png","stimuli/stim001_animate_fish_1.png","stimuli/stim020_inanimate_tree_4.png","134"
"html-button-response-mod","141","1476302","0.0-141.0","74307","","","","","","triplet","2267","","","","2","stimuli/fish_lowercase.png","stimuli/stim006_animate_bird_2.png","stimuli/tools_lowercase.png","135"
"html-button-response-mod","142","1488624","0.0-142.0","74307","","","","","","triplet","11819.700000047684","","","","0","stimuli/tools_uppercase.png","stimuli/stim007_animate_bird_3.png","stimuli/stim019_inanimate_tree_3.png","136"
"html-button-response-mod","143","1490268","0.0-143.0","74307","","","","","","triplet","1130.1000001430511","","","","2","stimuli/stim002_animate_fish_2.png","stimuli/stim007_animate_bird_3.png","stimuli/stim024_inanimate_tools_4.png","137"
"html-button-response-mod","144","1492746","0.0-144.0","74307","","","","","","triplet","1975.5","","","","0","stimuli/stim024_inanimate_tools_4.png","stimuli/stim011_animate_face_3.png","stimuli/bird_uppercase.png","138"
"html-button-response-mod","145","1502524","0.0-145.0","74307","","","","","","triplet","9275.5","","","","1","stimuli/tools_uppercase.png","stimuli/tree_lowercase.png","stimuli/stim014_inanimate_boats_2.png","139"
"html-button-response-mod","146","1508296","0.0-146.0","74307","","","","","","triplet","5266.599999904633","","","","0","stimuli/stim002_animate_fish_2.png","stimuli/stim021_inanimate_tools_1.png","stimuli/tree_lowercase.png","140"
"html-button-response-mod","147","1516556","0.0-147.0","74307","","","","","","triplet","7758.699999809265","","","","1","stimuli/boats_uppercase.png","stimuli/tools_lowercase.png","stimuli/stim003_animate_fish_3.png","141"
"html-button-response-mod","148","1521644","0.0-148.0","74307","","","","","","triplet","4584.700000047684","","","","0","stimuli/bird_lowercase.png","stimuli/stim014_inanimate_boats_2.png","stimuli/stim024_inanimate_tools_4.png","142"
"html-button-response-mod","149","1527950","0.0-149.0","74307","","","","","","triplet","5804.399999856949","","","","2","stimuli/stim016_inanimate_boats_4.png","stimuli/tools_uppercase.png","stimuli/bird_lowercase.png","143"
"html-button-response-mod","150","1530666","0.0-150.0","74307","","","","","","triplet","2203.2000000476837","","","","0","stimuli/stim024_inanimate_tools_4.png","stimuli/fish_lowercase.png","stimuli/bird_lowercase.png","144"
"html-button-response-mod","151","1539214","0.0-151.0","74307","","","","","","triplet","8035.099999904633","","","","1","stimuli/stim001_animate_fish_1.png","stimuli/stim021_inanimate_tools_1.png","stimuli/stim017_inanimate_tree_1.png","145"
"html-button-response-mod","152","1541110","0.0-152.0","74307","","","","","","triplet","1386.1000001430511","","","","1","stimuli/stim010_animate_face_2.png","stimuli/boats_uppercase.png","stimuli/stim006_animate_bird_2.png","146"
"html-button-response-mod","153","1545240","0.0-153.0","74307","","","","","","triplet","3627.2000000476837","","","","0","stimuli/stim012_animate_face_4.png","stimuli/stim022_inanimate_tools_2.png","stimuli/stim016_inanimate_boats_4.png","147"
"html-button-response-mod","154","1547072","0.0-154.0","74307","","","","","","triplet","1326.2999999523163","","","","2","stimuli/bird_lowercase.png","stimuli/stim012_animate_face_4.png","stimuli/stim021_inanimate_tools_1.png","148"
"html-button-response-mod","155","1554762","0.0-155.0","74307","","","","","","triplet","7172.5","","","","2","stimuli/tree_lowercase.png","stimuli/stim022_inanimate_tools_2.png","stimuli/face_uppercase.png","149"
"html-button-response","156","1556136","0.0-156.0","74307","","","","","","break","863.5","<p>BREAK</p><p>Take a break for as long as you need</p><p>Click the button to continue</p>","0","","","","","",""
"html-button-response-mod","157","1561886","0.0-157.0","74307","","","","","","triplet","5748.599999904633","","","","1","stimuli/stim013_inanimate_boats_1.png","stimuli/tree_uppercase.png","stimuli/tools_uppercase.png","150"
"html-button-response-mod","158","1564414","0.0-158.0","74307","","","","","","triplet","2022.8999998569489","","","","0","stimuli/fish_lowercase.png","stimuli/tools_uppercase.png","stimuli/stim024_inanimate_tools_4.png","151"
"html-button-response-mod","159","1566364","0.0-159.0","74307","","","","","","triplet","1439.6999998092651","","","","0","stimuli/stim023_inanimate_tools_3.png","stimuli/bird_uppercase.png","stimuli/stim007_animate_bird_3.png","152"
"html-button-response-mod","160","1574431","0.0-160.0","74307","","","","","","triplet","7560.200000047684","","","","2","stimuli/tools_uppercase.png","stimuli/stim017_inanimate_tree_1.png","stimuli/boats_uppercase.png","153"
"html-button-response-mod","161","1577076","0.0-161.0","74307","","","","","","triplet","2135.5","","","","0","stimuli/stim017_inanimate_tree_1.png","stimuli/stim023_inanimate_tools_3.png","stimuli/tools_lowercase.png","154"
"html-button-response-mod","162","1580150","0.0-162.0","74307","","","","","","triplet","2566.5","","","","0","stimuli/stim016_inanimate_boats_4.png","stimuli/stim010_animate_face_2.png","stimuli/stim018_inanimate_tree_2.png","155"
"html-button-response-mod","163","1582688","0.0-163.0","74307","","","","","","triplet","2025.7999999523163","","","","2","stimuli/stim003_animate_fish_3.png","stimuli/boats_uppercase.png","stimuli/stim020_inanimate_tree_4.png","156"
"html-button-response-mod","164","1585768","0.0-164.0","74307","","","","","","triplet","2567.2999999523163","","","","2","stimuli/stim021_inanimate_tools_1.png","stimuli/stim024_inanimate_tools_4.png","stimuli/stim017_inanimate_tree_1.png","157"
"html-button-response-mod","165","1597513","0.0-165.0","74307","","","","","","triplet","11239.200000047684","","","","1","stimuli/stim012_animate_face_4.png","stimuli/stim016_inanimate_boats_4.png","stimuli/tree_uppercase.png","158"
"html-button-response-mod","166","1599686","0.0-166.0","74307","","","","","","triplet","1667.1000001430511","","","","2","stimuli/stim015_inanimate_boats_3.png","stimuli/boats_lowercase.png","stimuli/stim005_animate_bird_1.png","159"
"html-button-response-mod","167","1601954","0.0-167.0","74307","","","","","","triplet","1753.8000001907349","","","","2","stimuli/stim012_animate_face_4.png","stimuli/face_uppercase.png","stimuli/stim020_inanimate_tree_4.png","160"
"html-button-response-mod","168","1606838","0.0-168.0","74307","","","","","","triplet","4369.800000190735","","","","1","stimuli/stim001_animate_fish_1.png","stimuli/stim022_inanimate_tools_2.png","stimuli/face_uppercase.png","161"
"html-button-response-mod","169","1609912","0.0-169.0","74307","","","","","","triplet","2565","","","","2","stimuli/stim020_inanimate_tree_4.png","stimuli/stim022_inanimate_tools_2.png","stimuli/stim012_animate_face_4.png","162"
"html-button-response-mod","170","1614422","0.0-170.0","74307","","","","","","triplet","3993.0999999046326","","","","1","stimuli/stim021_inanimate_tools_1.png","stimuli/stim006_animate_bird_2.png","stimuli/stim013_inanimate_boats_1.png","163"
"html-button-response-mod","171","1617367","0.0-171.0","74307","","","","","","triplet","2439.2000000476837","","","","1","stimuli/stim002_animate_fish_2.png","stimuli/stim005_animate_bird_1.png","stimuli/fish_lowercase.png","164"
"html-button-response-mod","172","1620720","0.0-172.0","74307","","","","","","triplet","2835.399999856949","","","","2","stimuli/tree_lowercase.png","stimuli/stim022_inanimate_tools_2.png","stimuli/stim014_inanimate_boats_2.png","165"
"html-button-response-mod","173","1626866","0.0-173.0","74307","","","","","","triplet","5641.599999904633","","","","1","stimuli/boats_lowercase.png","stimuli/stim007_animate_bird_3.png","stimuli/stim024_inanimate_tools_4.png","166"
"html-button-response-mod","174","1629961","0.0-174.0","74307","","","","","","triplet","2587.600000143051","","","","2","stimuli/stim014_inanimate_boats_2.png","stimuli/fish_lowercase.png","stimuli/face_lowercase.png","167"
"html-button-response-mod","175","1634467","0.0-175.0","74307","","","","","","triplet","3995.0999999046326","","","","2","stimuli/tree_lowercase.png","stimuli/boats_uppercase.png","stimuli/stim012_animate_face_4.png","168"
"html-button-response-mod","176","1637756","0.0-176.0","74307","","","","","","triplet","2785.5999999046326","","","","0","stimuli/stim024_inanimate_tools_4.png","stimuli/stim004_animate_fish_4.png","stimuli/boats_uppercase.png","169"
"html-button-response-mod","177","1641690","0.0-177.0","74307","","","","","","triplet","3428.5","","","","0","stimuli/stim024_inanimate_tools_4.png","stimuli/stim015_inanimate_boats_3.png","stimuli/stim002_animate_fish_2.png","170"
"html-button-response-mod","178","1647276","0.0-178.0","74307","","","","","","triplet","5072","","","","1","stimuli/stim012_animate_face_4.png","stimuli/stim014_inanimate_boats_2.png","stimuli/tree_uppercase.png","171"
"html-button-response-mod","179","1650242","0.0-179.0","74307","","","","","","triplet","2464.2000000476837","","","","2","stimuli/stim004_animate_fish_4.png","stimuli/stim015_inanimate_boats_3.png","stimuli/stim024_inanimate_tools_4.png","172"
"html-button-response-mod","180","1652196","0.0-180.0","74307","","","","","","triplet","1441.2000000476837","","","","1","stimuli/stim006_animate_bird_2.png","stimuli/stim009_animate_face_1.png","stimuli/stim001_animate_fish_1.png","173"
"html-button-response-mod","181","1654142","0.0-181.0","74307","","","","","","triplet","1438","","","","0","stimuli/stim023_inanimate_tools_3.png","stimuli/stim008_animate_bird_4.png","stimuli/bird_lowercase.png","174"
"html-button-response-mod","182","1655793","0.0-182.0","74307","","","","","","triplet","1148.7000000476837","","","","1","stimuli/stim006_animate_bird_2.png","stimuli/stim019_inanimate_tree_3.png","stimuli/stim002_animate_fish_2.png","175"
"html-button-response-mod","183","1658278","0.0-183.0","74307","","","","","","triplet","1983.5","","","","2","stimuli/stim005_animate_bird_1.png","stimuli/stim004_animate_fish_4.png","stimuli/stim013_inanimate_boats_1.png","176"
"html-button-response-mod","184","1660023","0.0-184.0","74307","","","","","","triplet","1242.2999999523163","","","","0","stimuli/stim016_inanimate_boats_4.png","stimuli/stim020_inanimate_tree_4.png","stimuli/stim019_inanimate_tree_3.png","177"
"html-button-response-mod","185","1661286","0.0-185.0","74307","","","","","","triplet","756","","","","0","stimuli/boats_lowercase.png","stimuli/stim017_inanimate_tree_1.png","stimuli/stim018_inanimate_tree_2.png","178"
"html-button-response-mod","186","1663650","0.0-186.0","74307","","","","","","triplet","1852.8000001907349","","","","0","stimuli/stim021_inanimate_tools_1.png","stimuli/tree_uppercase.png","stimuli/stim019_inanimate_tree_3.png","179"
"html-button-response-mod","187","1665462","0.0-187.0","74307","","","","","","triplet","1301.7000000476837","","","","0","stimuli/stim007_animate_bird_3.png","stimuli/stim004_animate_fish_4.png","stimuli/fish_uppercase.png","180"
"html-button-response-mod","188","1668452","0.0-188.0","74307","","","","","","triplet","2484.7000000476837","","","","1","stimuli/stim016_inanimate_boats_4.png","stimuli/face_uppercase.png","stimuli/stim002_animate_fish_2.png","181"
"html-button-response-mod","189","1670343","0.0-189.0","74307","","","","","","triplet","1387.5","","","","0","stimuli/stim011_animate_face_3.png","stimuli/stim003_animate_fish_3.png","stimuli/tree_uppercase.png","182"
"html-button-response-mod","190","1672221","0.0-190.0","74307","","","","","","triplet","1365.7000000476837","","","","0","stimuli/stim006_animate_bird_2.png","stimuli/stim014_inanimate_boats_2.png","stimuli/stim013_inanimate_boats_1.png","183"
"html-button-response-mod","191","1676066","0.0-191.0","74307","","","","","","triplet","3339.5","","","","0","stimuli/stim011_animate_face_3.png","stimuli/tree_lowercase.png","stimuli/fish_uppercase.png","184"
"html-button-response-mod","192","1680080","0.0-192.0","74307","","","","","","triplet","3511.5","","","","2","stimuli/fish_lowercase.png","stimuli/stim006_animate_bird_2.png","stimuli/stim015_inanimate_boats_3.png","185"
"html-button-response-mod","193","1682714","0.0-193.0","74307","","","","","","triplet","2122.4000000953674","","","","2","stimuli/bird_uppercase.png","stimuli/stim008_animate_bird_4.png","stimuli/stim024_inanimate_tools_4.png","186"
"html-button-response-mod","194","1686484","0.0-194.0","74307","","","","","","triplet","3259.0999999046326","","","","2","stimuli/bird_uppercase.png","stimuli/stim009_animate_face_1.png","stimuli/boats_uppercase.png","187"
"html-button-response-mod","195","1690704","0.0-195.0","74307","","","","","","triplet","3707.9000000953674","","","","0","stimuli/stim024_inanimate_tools_4.png","stimuli/stim008_animate_bird_4.png","stimuli/stim018_inanimate_tree_2.png","188"
"html-button-response-mod","196","1693702","0.0-196.0","74307","","","","","","triplet","2494.4000000953674","","","","2","stimuli/fish_lowercase.png","stimuli/stim007_animate_bird_3.png","stimuli/stim015_inanimate_boats_3.png","189"
"html-button-response-mod","197","1695742","0.0-197.0","74307","","","","","","triplet","1526.7000000476837","","","","0","stimuli/stim004_animate_fish_4.png","stimuli/stim006_animate_bird_2.png","stimuli/stim007_animate_bird_3.png","190"
"html-button-response-mod","198","1701124","0.0-198.0","74307","","","","","","triplet","4866.400000095367","","","","0","stimuli/stim009_animate_face_1.png","stimuli/stim019_inanimate_tree_3.png","stimuli/stim015_inanimate_boats_3.png","191"
"html-button-response-mod","199","1704048","0.0-199.0","74307","","","","","","triplet","2412","","","","1","stimuli/bird_lowercase.png","stimuli/fish_lowercase.png","stimuli/stim006_animate_bird_2.png","192"
"html-button-response-mod","200","1708740","0.0-200.0","74307","","","","","","triplet","4183.899999856949","","","","0","stimuli/stim010_animate_face_2.png","stimuli/stim003_animate_fish_3.png","stimuli/stim016_inanimate_boats_4.png","193"
"html-button-response-mod","201","1712948","0.0-201.0","74307","","","","","","triplet","3690.5","","","","1","stimuli/stim005_animate_bird_1.png","stimuli/stim019_inanimate_tree_3.png","stimuli/fish_lowercase.png","194"
"html-button-response-mod","202","1714884","0.0-202.0","74307","","","","","","triplet","1430.5","","","","0","stimuli/face_lowercase.png","stimuli/tree_lowercase.png","stimuli/stim007_animate_bird_3.png","195"
"html-button-response-mod","203","1717468","0.0-203.0","74307","","","","","","triplet","2081.0999999046326","","","","0","stimuli/stim015_inanimate_boats_3.png","stimuli/stim005_animate_bird_1.png","stimuli/stim001_animate_fish_1.png","196"
"html-button-response-mod","204","1719464","0.0-204.0","74307","","","","","","triplet","1491.8999998569489","","","","1","stimuli/fish_lowercase.png","stimuli/stim008_animate_bird_4.png","stimuli/stim003_animate_fish_3.png","197"
"html-button-response-mod","205","1722006","0.0-205.0","74307","","","","","","triplet","2036.2000000476837","","","","1","stimuli/bird_lowercase.png","stimuli/fish_lowercase.png","stimuli/stim008_animate_bird_4.png","198"
"html-button-response-mod","206","1724937","0.0-206.0","74307","","","","","","triplet","2415","","","","1","stimuli/stim006_animate_bird_2.png","stimuli/tree_lowercase.png","stimuli/stim008_animate_bird_4.png","199"
"html-button-response","207","1726304","0.0-207.0","74307","","","","","","break","861.1000001430511","<p>BREAK</p><p>Take a break for as long as you need</p><p>Click the button to continue</p>","0","","","","","",""
"html-button-response-mod","208","1730140","0.0-208.0","74307","","","","","","triplet","3834.7000000476837","","","","1","stimuli/boats_lowercase.png","stimuli/stim021_inanimate_tools_1.png","stimuli/tree_uppercase.png","200"
"html-button-response-mod","209","1732140","0.0-209.0","74307","","","","","","triplet","1490.2999999523163","","","","0","stimuli/stim012_animate_face_4.png","stimuli/stim021_inanimate_tools_1.png","stimuli/stim001_animate_fish_1.png","201"
"html-button-response-mod","210","1733616","0.0-210.0","74307","","","","","","triplet","965.4000000953674","","","","0","stimuli/tree_lowercase.png","stimuli/stim017_inanimate_tree_1.png","stimuli/stim018_inanimate_tree_2.png","202"
"html-button-response-mod","211","1736144","0.0-211.0","74307","","","","","","triplet","2023.6999998092651","","","","2","stimuli/bird_lowercase.png","stimuli/bird_uppercase.png","stimuli/tree_lowercase.png","203"
"html-button-response-mod","212","1740884","0.0-212.0","74307","","","","","","triplet","4228.899999856949","","","","1","stimuli/stim012_animate_face_4.png","stimuli/stim002_animate_fish_2.png","stimuli/stim010_animate_face_2.png","204"
"html-button-response-mod","213","1742756","0.0-213.0","74307","","","","","","triplet","1364.2999999523163","","","","1","stimuli/stim006_animate_bird_2.png","stimuli/stim013_inanimate_boats_1.png","stimuli/stim004_animate_fish_4.png","205"
"html-button-response-mod","214","1744078","0.0-214.0","74307","","","","","","triplet","820.2000000476837","","","","0","stimuli/boats_uppercase.png","stimuli/stim017_inanimate_tree_1.png","stimuli/stim019_inanimate_tree_3.png","206"
"html-button-response-mod","215","1746008","0.0-215.0","74307","","","","","","triplet","1412.3999998569489","","","","0","stimuli/bird_uppercase.png","stimuli/stim020_inanimate_tree_4.png","stimuli/stim017_inanimate_tree_1.png","207"
"html-button-response-mod","216","1748358","0.0-216.0","74307","","","","","","triplet","1843.9000000953674","","","","0","stimuli/fish_uppercase.png","stimuli/tools_lowercase.png","stimuli/stim024_inanimate_tools_4.png","208"
"html-button-response-mod","217","1757699","0.0-217.0","74307","","","","","","triplet","8832.899999856949","","","","0","stimuli/fish_uppercase.png","stimuli/face_lowercase.png","stimuli/bird_uppercase.png","209"
"html-button-response-mod","218","1759502","0.0-218.0","74307","","","","","","triplet","1292.0999999046326","","","","0","stimuli/stim008_animate_bird_4.png","stimuli/stim011_animate_face_3.png","stimuli/stim012_animate_face_4.png","210"
"html-button-response-mod","219","1761356","0.0-219.0","74307","","","","","","triplet","1337.2000000476837","","","","2","stimuli/stim003_animate_fish_3.png","stimuli/stim005_animate_bird_1.png","stimuli/tools_lowercase.png","211"
"html-button-response-mod","220","1763938","0.0-220.0","74307","","","","","","triplet","2074.0999999046326","","","","1","stimuli/stim008_animate_bird_4.png","stimuli/tools_lowercase.png","stimuli/bird_lowercase.png","212"
"html-button-response-mod","221","1766050","0.0-221.0","74307","","","","","","triplet","1601","","","","0","stimuli/boats_uppercase.png","stimuli/stim005_animate_bird_1.png","stimuli/stim007_animate_bird_3.png","213"
"html-button-response-mod","222","1771658","0.0-222.0","74307","","","","","","triplet","5092.5","","","","1","stimuli/stim012_animate_face_4.png","stimuli/stim022_inanimate_tools_2.png","stimuli/stim006_animate_bird_2.png","214"
"html-button-response-mod","223","1773358","0.0-223.0","74307","","","","","","triplet","1188.0999999046326","","","","2","stimuli/stim023_inanimate_tools_3.png","stimuli/tools_lowercase.png","stimuli/face_lowercase.png","215"
"html-button-response-mod","224","1778204","0.0-224.0","74307","","","","","","triplet","4343.5","","","","2","stimuli/stim023_inanimate_tools_3.png","stimuli/boats_lowercase.png","stimuli/stim006_animate_bird_2.png","216"
"html-button-response-mod","225","1780332","0.0-225.0","74307","","","","","","triplet","1623.7999999523163","","","","1","stimuli/face_uppercase.png","stimuli/tree_uppercase.png","stimuli/stim011_animate_face_3.png","217"
"html-button-response-mod","226","1782862","0.0-226.0","74307","","","","","","triplet","2018.7999999523163","","","","0","stimuli/stim024_inanimate_tools_4.png","stimuli/stim005_animate_bird_1.png","stimuli/stim001_animate_fish_1.png","218"
"html-button-response-mod","227","1784386","0.0-227.0","74307","","","","","","triplet","1011.3000001907349","","","","1","stimuli/fish_uppercase.png","stimuli/stim021_inanimate_tools_1.png","stimuli/stim003_animate_fish_3.png","219"
"html-button-response-mod","228","1786432","0.0-228.0","74307","","","","","","triplet","1537.8999998569489","","","","2","stimuli/bird_lowercase.png","stimuli/stim012_animate_face_4.png","stimuli/stim022_inanimate_tools_2.png","220"
"html-button-response-mod","229","1793318","0.0-229.0","74307","","","","","","triplet","6371.900000095367","","","","0","stimuli/stim021_inanimate_tools_1.png","stimuli/stim007_animate_bird_3.png","stimuli/tree_lowercase.png","221"
"html-button-response-mod","230","1794723","0.0-230.0","74307","","","","","","triplet","898.2999999523163","","","","2","stimuli/stim011_animate_face_3.png","stimuli/stim009_animate_face_1.png","stimuli/fish_uppercase.png","222"
"html-button-response-mod","231","1797436","0.0-231.0","74307","","","","","","triplet","2203.2999999523163","","","","0","stimuli/stim020_inanimate_tree_4.png","stimuli/stim011_animate_face_3.png","stimuli/stim006_animate_bird_2.png","223"
"html-button-response-mod","232","1871966","0.0-232.0","74307","","","","","","triplet","74022.29999995232","","","","0","stimuli/face_lowercase.png","stimuli/stim010_animate_face_2.png","stimuli/stim012_animate_face_4.png","224"
"html-button-response-mod","233","1878136","0.0-233.0","74307","","","","","","triplet","5655.099999904633","","","","2","stimuli/fish_lowercase.png","stimuli/face_uppercase.png","stimuli/stim008_animate_bird_4.png","225"
"html-button-response-mod","234","1881370","0.0-234.0","74307","","","","","","triplet","2724.4000000953674","","","","2","stimuli/stim019_inanimate_tree_3.png","stimuli/stim008_animate_bird_4.png","stimuli/stim023_inanimate_tools_3.png","226"
"html-button-response-mod","235","1894346","0.0-235.0","74307","","","","","","triplet","12466.400000095367","","","","1","stimuli/stim002_animate_fish_2.png","stimuli/stim016_inanimate_boats_4.png","stimuli/stim001_animate_fish_1.png","227"
"html-button-response-mod","236","1896622","0.0-236.0","74307","","","","","","triplet","1770.4000000953674","","","","2","stimuli/stim007_animate_bird_3.png","stimuli/stim017_inanimate_tree_1.png","stimuli/face_lowercase.png","228"
"html-button-response-mod","237","1900926","0.0-237.0","74307","","","","","","triplet","3790.2000000476837","","","","0","stimuli/face_lowercase.png","stimuli/stim015_inanimate_boats_3.png","stimuli/fish_lowercase.png","229"
"html-button-response-mod","238","1902469","0.0-238.0","74307","","","","","","triplet","1036.3999998569489","","","","1","stimuli/stim023_inanimate_tools_3.png","stimuli/stim011_animate_face_3.png","stimuli/stim022_inanimate_tools_2.png","230"
"html-button-response-mod","239","1904855","0.0-239.0","74307","","","","","","triplet","1875","","","","2","stimuli/stim022_inanimate_tools_2.png","stimuli/stim021_inanimate_tools_1.png","stimuli/stim006_animate_bird_2.png","231"
"html-button-response-mod","240","1907484","0.0-240.0","74307","","","","","","triplet","2116.9000000953674","","","","1","stimuli/stim004_animate_fish_4.png","stimuli/tree_uppercase.png","stimuli/stim005_animate_bird_1.png","232"
"html-button-response-mod","241","1911366","0.0-241.0","74307","","","","","","triplet","3371.0999999046326","","","","2","stimuli/stim014_inanimate_boats_2.png","stimuli/tools_lowercase.png","stimuli/stim012_animate_face_4.png","233"
"html-button-response-mod","242","1916810","0.0-242.0","74307","","","","","","triplet","4935.199999809265","","","","0","stimuli/tree_lowercase.png","stimuli/stim016_inanimate_boats_4.png","stimuli/stim004_animate_fish_4.png","234"
"html-button-response-mod","243","1927090","0.0-243.0","74307","","","","","","triplet","9763.699999809265","","","","2","stimuli/boats_lowercase.png","stimuli/stim019_inanimate_tree_3.png","stimuli/face_lowercase.png","235"
"html-button-response-mod","244","1930292","0.0-244.0","74307","","","","","","triplet","2690.2000000476837","","","","2","stimuli/stim002_animate_fish_2.png","stimuli/stim014_inanimate_boats_2.png","stimuli/stim023_inanimate_tools_3.png","236"
"html-button-response-mod","245","1933646","0.0-245.0","74307","","","","","","triplet","2841.7999999523163","","","","1","stimuli/boats_lowercase.png","stimuli/tools_uppercase.png","stimuli/stim001_animate_fish_1.png","237"
"html-button-response-mod","246","1937982","0.0-246.0","74307","","","","","","triplet","3825.2000000476837","","","","0","stimuli/boats_uppercase.png","stimuli/stim008_animate_bird_4.png","stimuli/stim009_animate_face_1.png","238"
"html-button-response-mod","247","1941480","0.0-247.0","74307","","","","","","triplet","2985.7000000476837","","","","1","stimuli/stim024_inanimate_tools_4.png","stimuli/stim018_inanimate_tree_2.png","stimuli/stim016_inanimate_boats_4.png","239"
"html-button-response-mod","248","1943396","0.0-248.0","74307","","","","","","triplet","1412.8000001907349","","","","0","stimuli/tree_uppercase.png","stimuli/stim011_animate_face_3.png","stimuli/stim006_animate_bird_2.png","240"
"html-button-response-mod","249","1945437","0.0-249.0","74307","","","","","","triplet","1539.2999999523163","","","","1","stimuli/stim002_animate_fish_2.png","stimuli/stim014_inanimate_boats_2.png","stimuli/fish_lowercase.png","241"
"html-button-response-mod","250","1947226","0.0-250.0","74307","","","","","","triplet","1275.4000000953674","","","","1","stimuli/stim023_inanimate_tools_3.png","stimuli/stim001_animate_fish_1.png","stimuli/tools_uppercase.png","242"
"html-button-response-mod","251","1948870","0.0-251.0","74307","","","","","","triplet","1138.7999999523163","","","","2","stimuli/stim009_animate_face_1.png","stimuli/stim012_animate_face_4.png","stimuli/stim019_inanimate_tree_3.png","243"
"html-button-response-mod","252","1952440","0.0-252.0","74307","","","","","","triplet","3066","","","","2","stimuli/bird_uppercase.png","stimuli/boats_lowercase.png","stimuli/stim021_inanimate_tools_1.png","244"
"html-button-response-mod","253","1969034","0.0-253.0","74307","","","","","","triplet","16089","","","","2","stimuli/stim022_inanimate_tools_2.png","stimuli/stim014_inanimate_boats_2.png","stimuli/stim006_animate_bird_2.png","245"
"html-button-response-mod","254","1971410","0.0-254.0","74307","","","","","","triplet","1872.0999999046326","","","","2","stimuli/stim001_animate_fish_1.png","stimuli/boats_uppercase.png","stimuli/stim010_animate_face_2.png","246"
"html-button-response-mod","255","1973468","0.0-255.0","74307","","","","","","triplet","1550.8999998569489","","","","2","stimuli/stim013_inanimate_boats_1.png","stimuli/stim016_inanimate_boats_4.png","stimuli/tools_lowercase.png","247"
"html-button-response-mod","256","1976602","0.0-256.0","74307","","","","","","triplet","2618","","","","1","stimuli/stim022_inanimate_tools_2.png","stimuli/boats_uppercase.png","stimuli/tree_lowercase.png","248"
"html-button-response-mod","257","1979702","0.0-257.0","74307","","","","","","triplet","2590","","","","1","stimuli/stim015_inanimate_boats_3.png","stimuli/bird_lowercase.png","stimuli/stim018_inanimate_tree_2.png","249"
"html-button-response","258","1981252","0.0-258.0","74307","","","","","","break","1038.1999998092651","<p>BREAK</p><p>Take a break for as long as you need</p><p>Click the button to continue</p>","0","","","","","",""
"html-button-response-mod","259","1983166","0.0-259.0","74307","","","","","","triplet","1912.7999999523163","","","","0","stimuli/stim007_animate_bird_3.png","stimuli/stim024_inanimate_tools_4.png","stimuli/stim023_inanimate_tools_3.png","250"
"html-button-response-mod","260","1985514","0.0-260.0","74307","","","","","","triplet","1835.8000001907349","","","","1","stimuli/stim020_inanimate_tree_4.png","stimuli/tools_uppercase.png","stimuli/tree_uppercase.png","251"
"html-button-response-mod","261","1989336","0.0-261.0","74307","","","","","","triplet","3304.7999999523163","","","","1","stimuli/stim008_animate_bird_4.png","stimuli/stim010_animate_face_2.png","stimuli/stim017_inanimate_tree_1.png","252"
"html-button-response-mod","262","1993083","0.0-262.0","74307","","","","","","triplet","3235.4000000953674","","","","2","stimuli/tree_lowercase.png","stimuli/stim005_animate_bird_1.png","stimuli/boats_lowercase.png","253"
"html-button-response-mod","263","1995370","0.0-263.0","74307","","","","","","triplet","1779.2000000476837","","","","2","stimuli/stim001_animate_fish_1.png","stimuli/fish_uppercase.png","stimuli/bird_uppercase.png","254"
"html-button-response-mod","264","1997159","0.0-264.0","74307","","","","","","triplet","1287.3999998569489","","","","1","stimuli/stim005_animate_bird_1.png","stimuli/stim019_inanimate_tree_3.png","stimuli/stim007_animate_bird_3.png","255"
"html-button-response-mod","265","2002183","0.0-265.0","74307","","","","","","triplet","4510.199999809265","","","","1","stimuli/stim014_inanimate_boats_2.png","stimuli/stim024_inanimate_tools_4.png","stimuli/tree_lowercase.png","256"
"html-button-response-mod","266","2004262","0.0-266.0","74307","","","","","","triplet","1574.9000000953674","","","","2","stimuli/stim005_animate_bird_1.png","stimuli/stim004_animate_fish_4.png","stimuli/face_lowercase.png","257"
"html-button-response-mod","267","2006946","0.0-267.0","74307","","","","","","triplet","2175.5","","","","2","stimuli/stim021_inanimate_tools_1.png","stimuli/tools_uppercase.png","stimuli/stim016_inanimate_boats_4.png","258"
"html-button-response-mod","268","2009091","0.0-268.0","74307","","","","","","triplet","1633.2999999523163","","","","0","stimuli/face_lowercase.png","stimuli/stim023_inanimate_tools_3.png","stimuli/stim022_inanimate_tools_2.png","259"
"html-button-response-mod","269","2012830","0.0-269.0","74307","","","","","","triplet","3230.300000190735","","","","1","stimuli/stim013_inanimate_boats_1.png","stimuli/face_uppercase.png","stimuli/stim003_animate_fish_3.png","260"
"html-button-response-mod","270","2018014","0.0-270.0","74307","","","","","","triplet","4668.399999856949","","","","2","stimuli/stim017_inanimate_tree_1.png","stimuli/stim008_animate_bird_4.png","stimuli/boats_uppercase.png","261"
"html-button-response-mod","271","2020288","0.0-271.0","74307","","","","","","triplet","1759.7999999523163","","","","2","stimuli/stim005_animate_bird_1.png","stimuli/bird_lowercase.png","stimuli/stim014_inanimate_boats_2.png","262"
"html-button-response-mod","272","2022905","0.0-272.0","74307","","","","","","triplet","2106.5999999046326","","","","0","stimuli/stim024_inanimate_tools_4.png","stimuli/stim020_inanimate_tree_4.png","stimuli/stim008_animate_bird_4.png","263"
"html-button-response-mod","273","2025191","0.0-273.0","74307","","","","","","triplet","1768.7999999523163","","","","2","stimuli/stim010_animate_face_2.png","stimuli/stim007_animate_bird_3.png","stimuli/stim021_inanimate_tools_1.png","264"
"html-button-response-mod","274","2031944","0.0-274.0","74307","","","","","","triplet","6240.799999952316","","","","1","stimuli/stim018_inanimate_tree_2.png","stimuli/face_uppercase.png","stimuli/stim002_animate_fish_2.png","265"
"html-button-response-mod","275","2033648","0.0-275.0","74307","","","","","","triplet","1202.2000000476837","","","","1","stimuli/fish_lowercase.png","stimuli/stim021_inanimate_tools_1.png","stimuli/stim001_animate_fish_1.png","266"
"html-button-response-mod","276","2038713","0.0-276.0","74307","","","","","","triplet","4561.299999952316","","","","0","stimuli/stim021_inanimate_tools_1.png","stimuli/bird_uppercase.png","stimuli/stim019_inanimate_tree_3.png","267"
"html-button-response-mod","277","2041327","0.0-277.0","74307","","","","","","triplet","2105.199999809265","","","","1","stimuli/stim020_inanimate_tree_4.png","stimuli/stim015_inanimate_boats_3.png","stimuli/bird_uppercase.png","268"
"html-button-response-mod","278","2043373","0.0-278.0","74307","","","","","","triplet","1543.4000000953674","","","","1","stimuli/stim023_inanimate_tools_3.png","stimuli/stim018_inanimate_tree_2.png","stimuli/stim021_inanimate_tools_1.png","269"
"html-button-response-mod","279","2047238","0.0-279.0","74307","","","","","","triplet","3353.4000000953674","","","","2","stimuli/stim001_animate_fish_1.png","stimuli/face_lowercase.png","stimuli/stim021_inanimate_tools_1.png","270"
"html-button-response-mod","280","2051696","0.0-280.0","74307","","","","","","triplet","3953.699999809265","","","","0","stimuli/face_lowercase.png","stimuli/stim022_inanimate_tools_2.png","stimuli/stim016_inanimate_boats_4.png","271"
"html-button-response-mod","281","2057402","0.0-281.0","74307","","","","","","triplet","5193.200000047684","","","","0","stimuli/boats_lowercase.png","stimuli/bird_uppercase.png","stimuli/stim003_animate_fish_3.png","272"
"html-button-response-mod","282","2066462","0.0-282.0","74307","","","","","","triplet","8553.800000190735","","","","0","stimuli/fish_uppercase.png","stimuli/face_lowercase.png","stimuli/stim010_animate_face_2.png","273"
"html-button-response-mod","283","2068401","0.0-283.0","74307","","","","","","triplet","1423.7000000476837","","","","1","stimuli/bird_lowercase.png","stimuli/boats_lowercase.png","stimuli/stim008_animate_bird_4.png","274"
"html-button-response-mod","284","2070392","0.0-284.0","74307","","","","","","triplet","1482","","","","1","stimuli/stim004_animate_fish_4.png","stimuli/stim011_animate_face_3.png","stimuli/stim005_animate_bird_1.png","275"
"html-button-response-mod","285","2077244","0.0-285.0","74307","","","","","","triplet","6340.299999952316","","","","0","stimuli/stim003_animate_fish_3.png","stimuli/stim021_inanimate_tools_1.png","stimuli/tree_lowercase.png","276"
"html-button-response-mod","286","2079230","0.0-286.0","74307","","","","","","triplet","1471.7999999523163","","","","0","stimuli/stim002_animate_fish_2.png","stimuli/stim009_animate_face_1.png","stimuli/stim011_animate_face_3.png","277"
"html-button-response-mod","287","2081070","0.0-287.0","74307","","","","","","triplet","1323.7000000476837","","","","0","stimuli/face_lowercase.png","stimuli/stim006_animate_bird_2.png","stimuli/bird_uppercase.png","278"
"html-button-response-mod","288","2082688","0.0-288.0","74307","","","","","","triplet","1113.0999999046326","","","","1","stimuli/stim008_animate_bird_4.png","stimuli/boats_uppercase.png","stimuli/stim005_animate_bird_1.png","279"
"html-button-response-mod","289","2085110","0.0-289.0","74307","","","","","","triplet","1908.7000000476837","","","","1","stimuli/stim015_inanimate_boats_3.png","stimuli/boats_uppercase.png","stimuli/stim016_inanimate_boats_4.png","280"
"html-button-response-mod","290","2087562","0.0-290.0","74307","","","","","","triplet","1937.3999998569489","","","","1","stimuli/stim015_inanimate_boats_3.png","stimuli/face_uppercase.png","stimuli/stim018_inanimate_tree_2.png","281"
"html-button-response-mod","291","2090258","0.0-291.0","74307","","","","","","triplet","2193","","","","0","stimuli/face_uppercase.png","stimuli/fish_uppercase.png","stimuli/stim018_inanimate_tree_2.png","282"
"html-button-response-mod","292","2096118","0.0-292.0","74307","","","","","","triplet","5353.799999952316","","","","0","stimuli/stim009_animate_face_1.png","stimuli/stim023_inanimate_tools_3.png","stimuli/stim018_inanimate_tree_2.png","283"
"html-button-response-mod","293","2102722","0.0-293.0","74307","","","","","","triplet","6093.700000047684","","","","0","stimuli/stim023_inanimate_tools_3.png","stimuli/boats_lowercase.png","stimuli/stim002_animate_fish_2.png","284"
"html-button-response-mod","294","2108876","0.0-294.0","74307","","","","","","triplet","5646.099999904633","","","","0","stimuli/stim008_animate_bird_4.png","stimuli/stim013_inanimate_boats_1.png","stimuli/tree_uppercase.png","285"
"html-button-response-mod","295","2110680","0.0-295.0","74307","","","","","","triplet","1291.5999999046326","","","","0","stimuli/bird_uppercase.png","stimuli/stim007_animate_bird_3.png","stimuli/stim006_animate_bird_2.png","286"
"html-button-response-mod","296","2113295","0.0-296.0","74307","","","","","","triplet","2109.7999999523163","","","","1","stimuli/stim010_animate_face_2.png","stimuli/bird_lowercase.png","stimuli/stim012_animate_face_4.png","287"
"html-button-response-mod","297","2117239","0.0-297.0","74307","","","","","","triplet","3438.2999999523163","","","","2","stimuli/boats_lowercase.png","stimuli/stim016_inanimate_boats_4.png","stimuli/bird_uppercase.png","288"
"html-button-response-mod","298","2119636","0.0-298.0","74307","","","","","","triplet","1883.9000000953674","","","","2","stimuli/boats_lowercase.png","stimuli/stim013_inanimate_boats_1.png","stimuli/stim009_animate_face_1.png","289"
"html-button-response-mod","299","2129995","0.0-299.0","74307","","","","","","triplet","9850.300000190735","","","","1","stimuli/tree_lowercase.png","stimuli/stim015_inanimate_boats_3.png","stimuli/bird_lowercase.png","290"
"html-button-response-mod","300","2131621","0.0-300.0","74307","","","","","","triplet","1114.7999999523163","","","","1","stimuli/stim006_animate_bird_2.png","stimuli/stim012_animate_face_4.png","stimuli/stim003_animate_fish_3.png","291"
"html-button-response-mod","301","2133457","0.0-301.0","74307","","","","","","triplet","1330","","","","1","stimuli/fish_lowercase.png","stimuli/stim010_animate_face_2.png","stimuli/stim002_animate_fish_2.png","292"
"html-button-response-mod","302","2137131","0.0-302.0","74307","","","","","","triplet","3157.4000000953674","","","","0","stimuli/face_uppercase.png","stimuli/fish_lowercase.png","stimuli/stim013_inanimate_boats_1.png","293"
"html-button-response-mod","303","2139194","0.0-303.0","74307","","","","","","triplet","1549.6999998092651","","","","1","stimuli/face_lowercase.png","stimuli/stim021_inanimate_tools_1.png","stimuli/stim009_animate_face_1.png","294"
"html-button-response-mod","304","2140991","0.0-304.0","74307","","","","","","triplet","1292.8999998569489","","","","1","stimuli/stim024_inanimate_tools_4.png","stimuli/face_lowercase.png","stimuli/stim022_inanimate_tools_2.png","295"
"html-button-response-mod","305","2142773","0.0-305.0","74307","","","","","","triplet","1273.5","","","","1","stimuli/boats_lowercase.png","stimuli/stim003_animate_fish_3.png","stimuli/boats_uppercase.png","296"
"html-button-response-mod","306","2145709","0.0-306.0","74307","","","","","","triplet","2423.7000000476837","","","","2","stimuli/boats_uppercase.png","stimuli/stim004_animate_fish_4.png","stimuli/stim023_inanimate_tools_3.png","297"
"html-button-response-mod","307","2148385","0.0-307.0","74307","","","","","","triplet","2161.7000000476837","","","","2","stimuli/stim014_inanimate_boats_2.png","stimuli/stim008_animate_bird_4.png","stimuli/stim009_animate_face_1.png","298"
"html-button-response-mod","308","2150407","0.0-308.0","74307","","","","","","triplet","1513.2000000476837","","","","1","stimuli/stim006_animate_bird_2.png","stimuli/stim023_inanimate_tools_3.png","stimuli/bird_lowercase.png","299"
"html-button-response","309","2151897","0.0-309.0","74307","","","","","","break","984.7000000476837","<p>BREAK</p><p>Take a break for as long as you need</p><p>Click the button to continue</p>","0","","","","","",""
"html-button-response-mod","310","2153775","0.0-310.0","74307","","","","","","triplet","1876.7000000476837","","","","0","stimuli/bird_uppercase.png","stimuli/stim008_animate_bird_4.png","stimuli/stim007_animate_bird_3.png","300"
"html-button-response-mod","311","2156397","0.0-311.0","74307","","","","","","triplet","2107.899999856949","","","","1","stimuli/stim024_inanimate_tools_4.png","stimuli/tree_lowercase.png","stimuli/stim022_inanimate_tools_2.png","301"
"html-button-response-mod","312","2158145","0.0-312.0","74307","","","","","","triplet","1243.2000000476837","","","","2","stimuli/boats_uppercase.png","stimuli/stim015_inanimate_boats_3.png","stimuli/stim010_animate_face_2.png","302"
"html-button-response-mod","313","2160729","0.0-313.0","74307","","","","","","triplet","2082.5","","","","0","stimuli/stim019_inanimate_tree_3.png","stimuli/stim016_inanimate_boats_4.png","stimuli/stim024_inanimate_tools_4.png","303"
"html-button-response-mod","314","2163253","0.0-314.0","74307","","","","","","triplet","2006.1000001430511","","","","1","stimuli/stim001_animate_fish_1.png","stimuli/stim024_inanimate_tools_4.png","stimuli/face_lowercase.png","304"
"html-button-response-mod","315","2164857","0.0-315.0","74307","","","","","","triplet","1101.5","","","","1","stimuli/stim002_animate_fish_2.png","stimuli/stim013_inanimate_boats_1.png","stimuli/stim005_animate_bird_1.png","305"
"html-button-response-mod","316","2166905","0.0-316.0","74307","","","","","","triplet","1544.7999999523163","","","","0","stimuli/boats_lowercase.png","stimuli/stim001_animate_fish_1.png","stimuli/stim002_animate_fish_2.png","306"
"html-button-response-mod","317","2168335","0.0-317.0","74307","","","","","","triplet","920.7000000476837","","","","1","stimuli/stim019_inanimate_tree_3.png","stimuli/fish_uppercase.png","stimuli/stim018_inanimate_tree_2.png","307"
"html-button-response-mod","318","2169793","0.0-318.0","74307","","","","","","triplet","942","","","","2","stimuli/stim018_inanimate_tree_2.png","stimuli/stim019_inanimate_tree_3.png","stimuli/stim021_inanimate_tools_1.png","308"
"html-button-response-mod","319","2172593","0.0-319.0","74307","","","","","","triplet","2285.2999999523163","","","","1","stimuli/stim015_inanimate_boats_3.png","stimuli/stim009_animate_face_1.png","stimuli/stim017_inanimate_tree_1.png","309"
"html-button-response-mod","320","2174461","0.0-320.0","74307","","","","","","triplet","1365.6000001430511","","","","1","stimuli/tools_uppercase.png","stimuli/stim019_inanimate_tree_3.png","stimuli/stim021_inanimate_tools_1.png","310"
"html-button-response-mod","321","2176122","0.0-321.0","74307","","","","","","triplet","1153.2000000476837","","","","2","stimuli/stim006_animate_bird_2.png","stimuli/stim007_animate_bird_3.png","stimuli/tree_uppercase.png","311"
"html-button-response-mod","322","2177768","0.0-322.0","74307","","","","","","triplet","1142.5","","","","0","stimuli/stim003_animate_fish_3.png","stimuli/stim016_inanimate_boats_4.png","stimuli/stim013_inanimate_boats_1.png","312"
"html-button-response-mod","323","2181328","0.0-323.0","74307","","","","","","triplet","3048.7999999523163","","","","0","stimuli/stim010_animate_face_2.png","stimuli/stim005_animate_bird_1.png","stimuli/fish_lowercase.png","313"
"html-button-response-mod","324","2183397","0.0-324.0","74307","","","","","","triplet","1565.6999998092651","","","","1","stimuli/stim014_inanimate_boats_2.png","stimuli/boats_uppercase.png","stimuli/stim016_inanimate_boats_4.png","314"
"html-button-response-mod","325","2186408","0.0-325.0","74307","","","","","","triplet","2494.0999999046326","","","","1","stimuli/stim008_animate_bird_4.png","stimuli/stim011_animate_face_3.png","stimuli/stim004_animate_fish_4.png","315"
"html-button-response-mod","326","2188391","0.0-326.0","74307","","","","","","triplet","1478","","","","2","stimuli/stim010_animate_face_2.png","stimuli/stim004_animate_fish_4.png","stimuli/stim023_inanimate_tools_3.png","316"
"html-button-response-mod","327","2193791","0.0-327.0","74307","","","","","","triplet","4887","","","","2","stimuli/tree_lowercase.png","stimuli/stim008_animate_bird_4.png","stimuli/stim014_inanimate_boats_2.png","317"
"html-button-response-mod","328","2197978","0.0-328.0","74307","","","","","","triplet","3671.9000000953674","","","","2","stimuli/stim022_inanimate_tools_2.png","stimuli/boats_uppercase.png","stimuli/stim010_animate_face_2.png","318"
"html-button-response-mod","329","2202929","0.0-329.0","74307","","","","","","triplet","4442.399999856949","","","","1","stimuli/stim019_inanimate_tree_3.png","stimuli/boats_uppercase.png","stimuli/bird_lowercase.png","319"
"html-button-response-mod","330","2204889","0.0-330.0","74307","","","","","","triplet","1450.2999999523163","","","","2","stimuli/stim004_animate_fish_4.png","stimuli/stim001_animate_fish_1.png","stimuli/tree_lowercase.png","320"
"html-button-response-mod","331","2207038","0.0-331.0","74307","","","","","","triplet","1640.5999999046326","","","","1","stimuli/stim018_inanimate_tree_2.png","stimuli/stim016_inanimate_boats_4.png","stimuli/fish_lowercase.png","321"
"html-button-response-mod","332","2209995","0.0-332.0","74307","","","","","","triplet","2447.7999999523163","","","","0","stimuli/tree_uppercase.png","stimuli/tools_lowercase.png","stimuli/stim021_inanimate_tools_1.png","322"
"html-button-response-mod","333","2213563","0.0-333.0","74307","","","","","","triplet","3065","","","","2","stimuli/fish_lowercase.png","stimuli/stim009_animate_face_1.png","stimuli/tools_uppercase.png","323"
"html-button-response-mod","334","2216437","0.0-334.0","74307","","","","","","triplet","2360.0999999046326","","","","1","stimuli/bird_lowercase.png","stimuli/stim017_inanimate_tree_1.png","stimuli/bird_uppercase.png","324"
"html-button-response-mod","335","2222608","0.0-335.0","74307","","","","","","triplet","5667.700000047684","","","","1","stimuli/fish_lowercase.png","stimuli/stim010_animate_face_2.png","stimuli/stim003_animate_fish_3.png","325"
"html-button-response-mod","336","2225303","0.0-336.0","74307","","","","","","triplet","2189.7999999523163","","","","0","stimuli/stim017_inanimate_tree_1.png","stimuli/stim001_animate_fish_1.png","stimuli/fish_lowercase.png","326"
"html-button-response-mod","337","2231007","0.0-337.0","74307","","","","","","triplet","5187.299999952316","","","","1","stimuli/stim011_animate_face_3.png","stimuli/stim001_animate_fish_1.png","stimuli/stim023_inanimate_tools_3.png","327"
"html-button-response-mod","338","2235170","0.0-338.0","74307","","","","","","triplet","3651","","","","2","stimuli/stim014_inanimate_boats_2.png","stimuli/stim022_inanimate_tools_2.png","stimuli/stim012_animate_face_4.png","328"
"html-button-response-mod","339","2238304","0.0-339.0","74307","","","","","","triplet","2621.399999856949","","","","0","stimuli/stim022_inanimate_tools_2.png","stimuli/bird_uppercase.png","stimuli/stim017_inanimate_tree_1.png","329"
"html-button-response-mod","340","2240484","0.0-340.0","74307","","","","","","triplet","1670.2000000476837","","","","1","stimuli/stim014_inanimate_boats_2.png","stimuli/stim012_animate_face_4.png","stimuli/stim024_inanimate_tools_4.png","330"
"html-button-response-mod","341","2245280","0.0-341.0","74307","","","","","","triplet","4287.5","","","","0","stimuli/stim003_animate_fish_3.png","stimuli/stim018_inanimate_tree_2.png","stimuli/stim024_inanimate_tools_4.png","331"
"html-button-response-mod","342","2248070","0.0-342.0","74307","","","","","","triplet","2281.7999999523163","","","","2","stimuli/stim021_inanimate_tools_1.png","stimuli/stim006_animate_bird_2.png","stimuli/face_lowercase.png","332"
"html-button-response-mod","343","2255244","0.0-343.0","74307","","","","","","triplet","6665.299999952316","","","","2","stimuli/stim011_animate_face_3.png","stimuli/fish_lowercase.png","stimuli/tools_uppercase.png","333"
"html-button-response-mod","344","2257848","0.0-344.0","74307","","","","","","triplet","2086.7000000476837","","","","2","stimuli/stim001_animate_fish_1.png","stimuli/stim002_animate_fish_2.png","stimuli/stim005_animate_bird_1.png","334"
"html-button-response-mod","345","2260494","0.0-345.0","74307","","","","","","triplet","2133.7000000476837","","","","1","stimuli/stim017_inanimate_tree_1.png","stimuli/stim002_animate_fish_2.png","stimuli/tree_lowercase.png","335"
"html-button-response-mod","346","2264318","0.0-346.0","74307","","","","","","triplet","3319.4000000953674","","","","2","stimuli/stim015_inanimate_boats_3.png","stimuli/stim024_inanimate_tools_4.png","stimuli/stim020_inanimate_tree_4.png","336"
"html-button-response-mod","347","2267048","0.0-347.0","74307","","","","","","triplet","2221.199999809265","","","","2","stimuli/face_lowercase.png","stimuli/tools_lowercase.png","stimuli/stim016_inanimate_boats_4.png","337"
"html-button-response-mod","348","2269687","0.0-348.0","74307","","","","","","triplet","2123.5999999046326","","","","0","stimuli/stim010_animate_face_2.png","stimuli/stim015_inanimate_boats_3.png","stimuli/stim022_inanimate_tools_2.png","338"
"html-button-response-mod","349","2271048","0.0-349.0","74307","","","","","","triplet","851","","","","1","stimuli/stim018_inanimate_tree_2.png","stimuli/stim013_inanimate_boats_1.png","stimuli/stim020_inanimate_tree_4.png","339"
"html-button-response-mod","350","2273130","0.0-350.0","74307","","","","","","triplet","1563.8000001907349","","","","0","stimuli/stim003_animate_fish_3.png","stimuli/stim013_inanimate_boats_1.png","stimuli/tools_lowercase.png","340"
"html-button-response-mod","351","2276663","0.0-351.0","74307","","","","","","triplet","3031.2999999523163","","","","2","stimuli/bird_lowercase.png","stimuli/stim012_animate_face_4.png","stimuli/stim016_inanimate_boats_4.png","341"
"html-button-response-mod","352","2279516","0.0-352.0","74307","","","","","","triplet","2346.699999809265","","","","1","stimuli/tree_lowercase.png","stimuli/tools_lowercase.png","stimuli/stim006_animate_bird_2.png","342"
"html-button-response-mod","353","2281144","0.0-353.0","74307","","","","","","triplet","1123.5999999046326","","","","0","stimuli/stim017_inanimate_tree_1.png","stimuli/stim001_animate_fish_1.png","stimuli/stim004_animate_fish_4.png","343"
"html-button-response-mod","354","2282974","0.0-354.0","74307","","","","","","triplet","1315.5","","","","1","stimuli/tree_lowercase.png","stimuli/bird_lowercase.png","stimuli/stim020_inanimate_tree_4.png","344"
"html-button-response-mod","355","2285006","0.0-355.0","74307","","","","","","triplet","1516.2999999523163","","","","1","stimuli/face_uppercase.png","stimuli/stim008_animate_bird_4.png","stimuli/stim011_animate_face_3.png","345"
"html-button-response-mod","356","2287276","0.0-356.0","74307","","","","","","triplet","1758.5","","","","2","stimuli/stim023_inanimate_tools_3.png","stimuli/stim016_inanimate_boats_4.png","stimuli/stim017_inanimate_tree_1.png","346"
"html-button-response-mod","357","2290310","0.0-357.0","74307","","","","","","triplet","2524.5","","","","2","stimuli/stim014_inanimate_boats_2.png","stimuli/tools_uppercase.png","stimuli/face_lowercase.png","347"
"html-button-response-mod","358","2293306","0.0-358.0","74307","","","","","","triplet","2480.9000000953674","","","","1","stimuli/tools_lowercase.png","stimuli/bird_uppercase.png","stimuli/stim023_inanimate_tools_3.png","348"
"html-button-response-mod","359","2295679","0.0-359.0","74307","","","","","","triplet","1868.3999998569489","","","","0","stimuli/face_uppercase.png","stimuli/stim001_animate_fish_1.png","stimuli/stim011_animate_face_3.png","349"
"html-button-response","360","2296985","0.0-360.0","74307","","","","","","break","797.5999999046326","<p>BREAK</p><p>Take a break for as long as you need</p><p>Click the button to continue</p>","0","","","","","",""
"html-button-response-mod","361","2299351","0.0-361.0","74307","","","","","","triplet","2364.899999856949","","","","2","stimuli/stim014_inanimate_boats_2.png","stimuli/tools_uppercase.png","stimuli/stim019_inanimate_tree_3.png","350"
"html-button-response-mod","362","2301001","0.0-362.0","74307","","","","","","triplet","1144.5999999046326","","","","1","stimuli/stim002_animate_fish_2.png","stimuli/stim019_inanimate_tree_3.png","stimuli/stim001_animate_fish_1.png","351"
"html-button-response-mod","363","2302853","0.0-363.0","74307","","","","","","triplet","1344.5","","","","1","stimuli/stim004_animate_fish_4.png","stimuli/stim012_animate_face_4.png","stimuli/stim006_animate_bird_2.png","352"
"html-button-response-mod","364","2305553","0.0-364.0","74307","","","","","","triplet","2194.7000000476837","","","","0","stimuli/boats_uppercase.png","stimuli/stim007_animate_bird_3.png","stimuli/stim011_animate_face_3.png","353"
"html-button-response-mod","365","2308409","0.0-365.0","74307","","","","","","triplet","2350.2000000476837","","","","2","stimuli/tree_uppercase.png","stimuli/bird_lowercase.png","stimuli/stim024_inanimate_tools_4.png","354"
"html-button-response-mod","366","2310415","0.0-366.0","74307","","","","","","triplet","1503.5999999046326","","","","1","stimuli/fish_lowercase.png","stimuli/stim006_animate_bird_2.png","stimuli/stim004_animate_fish_4.png","355"
"html-button-response-mod","367","2317127","0.0-367.0","74307","","","","","","triplet","6199.699999809265","","","","2","stimuli/boats_uppercase.png","stimuli/stim003_animate_fish_3.png","stimuli/stim010_animate_face_2.png","356"
"html-button-response-mod","368","2318779","0.0-368.0","74307","","","","","","triplet","1143.7999999523163","","","","2","stimuli/boats_lowercase.png","stimuli/boats_uppercase.png","stimuli/stim002_animate_fish_2.png","357"
"html-button-response-mod","369","2323337","0.0-369.0","74307","","","","","","triplet","4046.5999999046326","","","","1","stimuli/boats_uppercase.png","stimuli/stim023_inanimate_tools_3.png","stimuli/tree_uppercase.png","358"
"html-button-response-mod","370","2326153","0.0-370.0","74307","","","","","","triplet","2312.2999999523163","","","","2","stimuli/fish_uppercase.png","stimuli/stim007_animate_bird_3.png","stimuli/boats_uppercase.png","359"
"html-button-response-mod","371","2328727","0.0-371.0","74307","","","","","","triplet","2060","","","","0","stimuli/tree_uppercase.png","stimuli/stim022_inanimate_tools_2.png","stimuli/stim024_inanimate_tools_4.png","360"
"html-button-response-mod","372","2331140","0.0-372.0","74307","","","","","","triplet","1896.5","","","","1","stimuli/fish_uppercase.png","stimuli/stim018_inanimate_tree_2.png","stimuli/stim003_animate_fish_3.png","361"
"html-button-response-mod","373","2343459","0.0-373.0","74307","","","","","","triplet","11806.5","","","","0","stimuli/face_lowercase.png","stimuli/stim016_inanimate_boats_4.png","stimuli/stim013_inanimate_boats_1.png","362"
"html-button-response-mod","374","2345475","0.0-374.0","74307","","","","","","triplet","1504.2000000476837","","","","0","stimuli/fish_lowercase.png","stimuli/stim011_animate_face_3.png","stimuli/stim022_inanimate_tools_2.png","363"
"html-button-response-mod","375","2348159","0.0-375.0","74307","","","","","","triplet","2167.300000190735","","","","2","stimuli/stim013_inanimate_boats_1.png","stimuli/stim023_inanimate_tools_3.png","stimuli/stim020_inanimate_tree_4.png","364"
"html-button-response-mod","376","2367088","0.0-376.0","74307","","","","","","triplet","18422","","","","1","stimuli/tools_uppercase.png","stimuli/stim003_animate_fish_3.png","stimuli/tree_lowercase.png","365"
"html-button-response-mod","377","2370851","0.0-377.0","74307","","","","","","triplet","3250.5999999046326","","","","2","stimuli/stim017_inanimate_tree_1.png","stimuli/tree_lowercase.png","stimuli/stim012_animate_face_4.png","366"
"html-button-response-mod","378","2372324","0.0-378.0","74307","","","","","","triplet","965.5999999046326","","","","2","stimuli/stim009_animate_face_1.png","stimuli/stim011_animate_face_3.png","stimuli/stim001_animate_fish_1.png","367"
"html-button-response-mod","379","2375340","0.0-379.0","74307","","","","","","triplet","2502.399999856949","","","","2","stimuli/stim018_inanimate_tree_2.png","stimuli/stim011_animate_face_3.png","stimuli/stim013_inanimate_boats_1.png","368"
"html-button-response-mod","380","2378634","0.0-380.0","74307","","","","","","triplet","2779.100000143051","","","","0","stimuli/stim012_animate_face_4.png","stimuli/stim013_inanimate_boats_1.png","stimuli/stim004_animate_fish_4.png","369"
"html-button-response-mod","381","2380246","0.0-381.0","74307","","","","","","triplet","1100.1000001430511","","","","2","stimuli/stim002_animate_fish_2.png","stimuli/fish_lowercase.png","stimuli/face_uppercase.png","370"
"html-button-response-mod","382","2382974","0.0-382.0","74307","","","","","","triplet","2220.7999999523163","","","","2","stimuli/stim011_animate_face_3.png","stimuli/stim008_animate_bird_4.png","stimuli/boats_lowercase.png","371"
"html-button-response-mod","383","2385042","0.0-383.0","74307","","","","","","triplet","1551.0999999046326","","","","2","stimuli/stim011_animate_face_3.png","stimuli/face_uppercase.png","stimuli/tools_uppercase.png","372"
"html-button-response-mod","384","2388030","0.0-384.0","74307","","","","","","triplet","2486.2000000476837","","","","2","stimuli/stim016_inanimate_boats_4.png","stimuli/stim010_animate_face_2.png","stimuli/stim006_animate_bird_2.png","373"
"html-button-response-mod","385","2390734","0.0-385.0","74307","","","","","","triplet","2195.2000000476837","","","","1","stimuli/stim024_inanimate_tools_4.png","stimuli/face_uppercase.png","stimuli/stim014_inanimate_boats_2.png","374"
"html-button-response-mod","386","2394047","0.0-386.0","74307","","","","","","triplet","2809.0999999046326","","","","1","stimuli/bird_uppercase.png","stimuli/stim003_animate_fish_3.png","stimuli/tree_lowercase.png","375"
"html-button-response-mod","387","2396136","0.0-387.0","74307","","","","","","triplet","1580.5999999046326","","","","1","stimuli/stim007_animate_bird_3.png","stimuli/boats_uppercase.png","stimuli/bird_uppercase.png","376"
"html-button-response-mod","388","2398126","0.0-388.0","74307","","","","","","triplet","1476.1000001430511","","","","2","stimuli/tree_lowercase.png","stimuli/stim001_animate_fish_1.png","stimuli/stim014_inanimate_boats_2.png","377"
"html-button-response-mod","389","2400426","0.0-389.0","74307","","","","","","triplet","1787.6000001430511","","","","2","stimuli/bird_uppercase.png","stimuli/stim005_animate_bird_1.png","stimuli/boats_lowercase.png","378"
"html-button-response-mod","390","2404119","0.0-390.0","74307","","","","","","triplet","3181.5999999046326","","","","1","stimuli/bird_uppercase.png","stimuli/boats_lowercase.png","stimuli/stim017_inanimate_tree_1.png","379"
"html-button-response-mod","391","2406824","0.0-391.0","74307","","","","","","triplet","2197.100000143051","","","","2","stimuli/stim010_animate_face_2.png","stimuli/tools_lowercase.png","stimuli/boats_uppercase.png","380"
"html-button-response-mod","392","2410609","0.0-392.0","74307","","","","","","triplet","3280.5","","","","1","stimuli/stim006_animate_bird_2.png","stimuli/face_uppercase.png","stimuli/stim003_animate_fish_3.png","381"
"html-button-response-mod","393","2412350","0.0-393.0","74307","","","","","","triplet","1229.8999998569489","","","","2","stimuli/tree_lowercase.png","stimuli/stim008_animate_bird_4.png","stimuli/boats_lowercase.png","382"
"html-button-response-mod","394","2414345","0.0-394.0","74307","","","","","","triplet","1480.7000000476837","","","","0","stimuli/stim006_animate_bird_2.png","stimuli/stim013_inanimate_boats_1.png","stimuli/boats_lowercase.png","383"
"html-button-response-mod","395","2417795","0.0-395.0","74307","","","","","","triplet","2936.7999999523163","","","","2","stimuli/stim016_inanimate_boats_4.png","stimuli/stim002_animate_fish_2.png","stimuli/stim023_inanimate_tools_3.png","384"
"html-button-response-mod","396","2419451","0.0-396.0","74307","","","","","","triplet","1151","","","","1","stimuli/stim019_inanimate_tree_3.png","stimuli/stim006_animate_bird_2.png","stimuli/tree_lowercase.png","385"
"html-button-response-mod","397","2420877","0.0-397.0","74307","","","","","","triplet","916.5","","","","1","stimuli/stim020_inanimate_tree_4.png","stimuli/tools_lowercase.png","stimuli/stim012_animate_face_4.png","386"
"html-button-response-mod","398","2423293","0.0-398.0","74307","","","","","","triplet","1899.5","","","","2","stimuli/stim013_inanimate_boats_1.png","stimuli/boats_uppercase.png","stimuli/stim018_inanimate_tree_2.png","387"
"html-button-response-mod","399","2425497","0.0-399.0","74307","","","","","","triplet","1700","","","","1","stimuli/stim005_animate_bird_1.png","stimuli/face_uppercase.png","stimuli/tools_uppercase.png","388"
"html-button-response-mod","400","2428559","0.0-400.0","74307","","","","","","triplet","2553.300000190735","","","","0","stimuli/stim009_animate_face_1.png","stimuli/stim006_animate_bird_2.png","stimuli/stim020_inanimate_tree_4.png","389"
"html-button-response-mod","401","2430276","0.0-401.0","74307","","","","","","triplet","1212.8999998569489","","","","0","stimuli/tree_uppercase.png","stimuli/stim011_animate_face_3.png","stimuli/stim010_animate_face_2.png","390"
"html-button-response-mod","402","2432043","0.0-402.0","74307","","","","","","triplet","1259.0999999046326","","","","2","stimuli/stim006_animate_bird_2.png","stimuli/stim008_animate_bird_4.png","stimuli/face_lowercase.png","391"
"html-button-response-mod","403","2433955","0.0-403.0","74307","","","","","","triplet","1409.5","","","","2","stimuli/fish_uppercase.png","stimuli/stim008_animate_bird_4.png","stimuli/boats_lowercase.png","392"
"html-button-response-mod","404","2436422","0.0-404.0","74307","","","","","","triplet","1953.4000000953674","","","","1","stimuli/stim010_animate_face_2.png","stimuli/tree_lowercase.png","stimuli/stim001_animate_fish_1.png","393"
"html-button-response-mod","405","2438469","0.0-405.0","74307","","","","","","triplet","1544.7000000476837","","","","0","stimuli/stim017_inanimate_tree_1.png","stimuli/stim003_animate_fish_3.png","stimuli/boats_lowercase.png","394"
"html-button-response-mod","406","2439907","0.0-406.0","74307","","","","","","triplet","929.2999999523163","","","","2","stimuli/stim010_animate_face_2.png","stimuli/fish_uppercase.png","stimuli/stim021_inanimate_tools_1.png","395"
"html-button-response-mod","407","2441417","0.0-407.0","74307","","","","","","triplet","1000.9000000953674","","","","2","stimuli/stim012_animate_face_4.png","stimuli/stim004_animate_fish_4.png","stimuli/stim014_inanimate_boats_2.png","396"
"html-button-response-mod","408","2443879","0.0-408.0","74307","","","","","","triplet","1944.6999998092651","","","","2","stimuli/stim016_inanimate_boats_4.png","stimuli/stim002_animate_fish_2.png","stimuli/stim012_animate_face_4.png","397"
"html-button-response-mod","409","2446233","0.0-409.0","74307","","","","","","triplet","1841.2999999523163","","","","1","stimuli/boats_uppercase.png","stimuli/tree_lowercase.png","stimuli/stim003_animate_fish_3.png","398"
"html-button-response-mod","410","2448169","0.0-410.0","74307","","","","","","triplet","1428.2999999523163","","","","0","stimuli/face_lowercase.png","stimuli/stim021_inanimate_tools_1.png","stimuli/stim007_animate_bird_3.png","399"
"html-button-response","411","2449867","0.0-411.0","74307","","","","","","break","1190.7999999523163","<p>BREAK</p><p>Take a break for as long as you need</p><p>Click the button to continue</p>","0","","","","","",""
"survey-text","412","2462922","0.0-412.0","74307","","","","","","data_patterns","13045.099999904633","","{""Q0"":""yes""}","","","","","",""
"survey-text","413","2467143","0.0-413.0","74307","","","","","","age_question","4219.200000047684","","{""Age"":""25""}","","","","","",""
"html-button-response","414","2474026","0.0-414.0","74307","","","","","","gender_question","6881.200000047684","How would you like your gender to be recorded?","0","","","","","",""
