"trial_type","trial_index","time_elapsed","internal_node_id","subject","success","timeout","failed_images","failed_audio","failed_video","test_part","rt","stimulus","response","end_time","button_pressed","stim0","stim1","stim2","trialnr"
"pavlovia","0","35","0.0-0.0","76226","","","","","","","","","","","","","","",""
"preload","1","4504","0.0-1.0","76226","true","false","[]","[]","[]","preload","","","","","","","","",""
"html-button-response","2","7788","0.0-2.0","76226","","","","","","","3281.7999999523163","<p>Welcome to the experiment. To begin, please read the following and press the button at the bottom of the screen.</p><p></p><p><strong>Project Name: A study on cognitive processes involved in visual perception</p></strong><p></p><p><strong>PARTICIPANT INFORMATION STATEMENT</strong></p><p></p><strong>(1) What is the study about?</strong><br>You are invited to participate in a study that investigates the cognitive processes involved in perceiving and recognizing visual stimuli.If you decide to participate, you will be asked to complete a task in which you will view pictures, letters, numbers, or words presented on a computer screen.<br><strong>(2) Who can participate?</strong><br>Anyone aged 18 years or over with access to a computer (not a phone/tablet)<br><strong>(3) Where is the study located?</strong><br>The study will be conducted in your browser<br><strong>(4) Who is carrying out the study?</strong><br>The study is being conducted by Sophia Shatek from the Computational Cognitive Neuroscience laboratory at the University of Sydney.<br><strong>(5) What does the study involve?</strong><br>In this study, you will be asked to perform tasks where you will see different stimuli appear on the computer screen.You will respond by pressing a key or using a computer mouse.<br><strong>(6) How much time will the study take?</strong><br>The study takes about 30 minutes<br><strong>(7)	Can I withdraw from the study?</strong><br>Being in this study is completely voluntary - you are not under any obligation to consent. You can withdraw at any time without having to give a reason and without penalty.<br><strong>(8) Will anyone else know the results?</strong><br>All aspects of the study, including results, will be strictly confidential and only the researchers will have access to information on participants.The results and data from the study may be submitted for publication or shared with other research labs, but individual participants will not be identifiable.<br><strong>(9) Will the study benefit me?</strong><br>You will be awarded 0.5 credits for your participation.<br><strong>(10) Can I tell other people about the study?</strong><br>Yes, please tell them to contact Dr Thomas Carlson by email at thomas.carlson@sydney.edu.au.<br><strong>(11) What if I require further information about the study or my involvement in it?</strong><br>When you have read this information, the investigator will discuss it with you further and answer any questions you may have.If you would like to know more at any stage, please feel free to contact Dr Thomas Carlson directly by email at thomas.carlson@sydney.edu.au.If you would like to be informed about the outcomes of the study, contact Dr Thomas Carlson directly by email at thomas.carlson@sydney.edu.au.<br><strong>(12) What if I have a complaint or any concerns?</strong><br>Any person with concerns or complaints about the conduct of a research study can contact The Manager,Human Ethics Administration, University of Sydney on +61 2 8627 8176 (Telephone); +61 2 8627 8177 (Facsimile) or ro.humanethics@sydney.edu.au (Email).</p><p></p><strong>By participating in this experiment, you consent to participate in this study and acknowledge that:</strong><br>1. The procedures required for the project and the times involved have been explained to me, and any questions I have about the project have been answered to my satisfaction.<br>2.	I have read the Above Information Statement and have been given the opportunity to discuss the information and my involvement in the project with the researcher/s.<br>3. I understand that allowing my data to be used in research reports is completely voluntary - I am not under any obligation to consent.<br>4. I understand that my involvement is strictly confidential. I understand that any research data gathered from the results of the study may be publishedhowever no information about me will be used in any way that is identifiable.</p><p></p>","0","","","","","",""
"html-button-response","3","21733","0.0-3.0","76226","","","","","","opening_instructions","13943.299999952316","<p>In this experiment, you will see three images appear on the screen.</p><p>You need to click the 'odd one out', or the image </p><p>that is MOST CONCEPTUALLY DIFFERENT to the other two. </p><p>(e.g., the word 'tree' and a picture of a tree are conceptually SIMILAR, </p><p> but the word 'tree' and the word 'boat' are conceptually DIFFERENT even though they look similar) </p><p>Just go with your intuition, don't spend too long thinking about each one.</p>","0","25569.200000047684","","","","",""
"html-button-response-mod","4","23011","0.0-4.0","76226","","","","","","triplet","1274.3000001907349","","","","2","stimuli/fish_uppercase.png","stimuli/fish_lowercase.png","stimuli/bird_uppercase.png","0"
"html-button-response-mod","5","25619","0.0-5.0","76226","","","","","","triplet","2096.300000190735","","","","1","stimuli/stim001_animate_fish_1.png","stimuli/tree_lowercase.png","stimuli/stim015_inanimate_boats_3.png","1"
"html-button-response-mod","6","28241","0.0-6.0","76226","","","","","","triplet","2109.0999999046326","","","","0","stimuli/stim003_animate_fish_3.png","stimuli/stim012_animate_face_4.png","stimuli/tools_lowercase.png","2"
"html-button-response-mod","7","30106","0.0-7.0","76226","","","","","","triplet","1362.3999998569489","","","","1","stimuli/stim006_animate_bird_2.png","stimuli/boats_uppercase.png","stimuli/stim001_animate_fish_1.png","3"
"html-button-response-mod","8","32825","0.0-8.0","76226","","","","","","triplet","2203.2000000476837","","","","0","stimuli/stim017_inanimate_tree_1.png","stimuli/stim023_inanimate_tools_3.png","stimuli/stim013_inanimate_boats_1.png","4"
"html-button-response-mod","9","35209","0.0-9.0","76226","","","","","","triplet","1875.0999999046326","","","","2","stimuli/tools_lowercase.png","stimuli/stim024_inanimate_tools_4.png","stimuli/stim017_inanimate_tree_1.png","5"
"html-button-response-mod","10","38423","0.0-10.0","76226","","","","","","triplet","2701.5999999046326","","","","1","stimuli/tree_lowercase.png","stimuli/stim009_animate_face_1.png","stimuli/stim003_animate_fish_3.png","6"
"html-button-response-mod","11","40880","0.0-11.0","76226","","","","","","triplet","1943.0999999046326","","","","0","stimuli/stim010_animate_face_2.png","stimuli/stim006_animate_bird_2.png","stimuli/tree_uppercase.png","7"
"html-button-response-mod","12","42985","0.0-12.0","76226","","","","","","triplet","1597.2000000476837","","","","1","stimuli/stim006_animate_bird_2.png","stimuli/stim015_inanimate_boats_3.png","stimuli/stim004_animate_fish_4.png","8"
"html-button-response-mod","13","45973","0.0-13.0","76226","","","","","","triplet","2478.100000143051","","","","2","stimuli/stim019_inanimate_tree_3.png","stimuli/tree_lowercase.png","stimuli/boats_lowercase.png","9"
"html-button-response-mod","14","48593","0.0-14.0","76226","","","","","","triplet","2114.7999999523163","","","","1","stimuli/stim008_animate_bird_4.png","stimuli/tools_uppercase.png","stimuli/stim009_animate_face_1.png","10"
"html-button-response-mod","15","50347","0.0-15.0","76226","","","","","","triplet","1237.7999999523163","","","","2","stimuli/stim006_animate_bird_2.png","stimuli/stim017_inanimate_tree_1.png","stimuli/stim022_inanimate_tools_2.png","11"
"html-button-response-mod","16","52710","0.0-16.0","76226","","","","","","triplet","1858.2000000476837","","","","1","stimuli/stim001_animate_fish_1.png","stimuli/stim015_inanimate_boats_3.png","stimuli/stim013_inanimate_boats_1.png","12"
"html-button-response-mod","17","55690","0.0-17.0","76226","","","","","","triplet","2465","","","","1","stimuli/stim007_animate_bird_3.png","stimuli/stim013_inanimate_boats_1.png","stimuli/tree_lowercase.png","13"
"html-button-response-mod","18","59382","0.0-18.0","76226","","","","","","triplet","3175.2000000476837","","","","2","stimuli/bird_lowercase.png","stimuli/boats_uppercase.png","stimuli/face_lowercase.png","14"
"html-button-response-mod","19","62189","0.0-19.0","76226","","","","","","triplet","2296.4000000953674","","","","1","stimuli/stim014_inanimate_boats_2.png","stimuli/stim020_inanimate_tree_4.png","stimuli/fish_uppercase.png","15"
"html-button-response-mod","20","66202","0.0-20.0","76226","","","","","","triplet","3504.7999999523163","","","","0","stimuli/stim019_inanimate_tree_3.png","stimuli/stim002_animate_fish_2.png","stimuli/stim008_animate_bird_4.png","16"
"html-button-response-mod","21","68231","0.0-21.0","76226","","","","","","triplet","1523.6000001430511","","","","2","stimuli/stim023_inanimate_tools_3.png","stimuli/tools_lowercase.png","stimuli/stim008_animate_bird_4.png","17"
"html-button-response-mod","22","72199","0.0-22.0","76226","","","","","","triplet","3465.2999999523163","","","","1","stimuli/stim021_inanimate_tools_1.png","stimuli/bird_uppercase.png","stimuli/boats_lowercase.png","18"
"html-button-response-mod","23","75099","0.0-23.0","76226","","","","","","triplet","2393.300000190735","","","","1","stimuli/fish_lowercase.png","stimuli/boats_lowercase.png","stimuli/stim007_animate_bird_3.png","19"
"html-button-response-mod","24","77373","0.0-24.0","76226","","","","","","triplet","1764.9000000953674","","","","2","stimuli/face_uppercase.png","stimuli/stim010_animate_face_2.png","stimuli/stim001_animate_fish_1.png","20"
"html-button-response-mod","25","79829","0.0-25.0","76226","","","","","","triplet","1950.7000000476837","","","","0","stimuli/tree_uppercase.png","stimuli/stim007_animate_bird_3.png","stimuli/bird_lowercase.png","21"
"html-button-response-mod","26","82015","0.0-26.0","76226","","","","","","triplet","1682.9000000953674","","","","0","stimuli/boats_uppercase.png","stimuli/stim009_animate_face_1.png","stimuli/stim011_animate_face_3.png","22"
"html-button-response-mod","27","85759","0.0-27.0","76226","","","","","","triplet","3235","","","","1","stimuli/stim016_inanimate_boats_4.png","stimuli/stim023_inanimate_tools_3.png","stimuli/tree_uppercase.png","23"
"html-button-response-mod","28","88109","0.0-28.0","76226","","","","","","triplet","1835.4000000953674","","","","2","stimuli/bird_lowercase.png","stimuli/stim019_inanimate_tree_3.png","stimuli/stim016_inanimate_boats_4.png","24"
"html-button-response-mod","29","91893","0.0-29.0","76226","","","","","","triplet","3280.300000190735","","","","0","stimuli/stim024_inanimate_tools_4.png","stimuli/stim003_animate_fish_3.png","stimuli/face_uppercase.png","25"
"html-button-response-mod","30","94094","0.0-30.0","76226","","","","","","triplet","1692.9000000953674","","","","2","stimuli/stim001_animate_fish_1.png","stimuli/stim011_animate_face_3.png","stimuli/face_lowercase.png","26"
"html-button-response-mod","31","96561","0.0-31.0","76226","","","","","","triplet","1960","","","","0","stimuli/tree_uppercase.png","stimuli/tools_lowercase.png","stimuli/stim024_inanimate_tools_4.png","27"
"html-button-response-mod","32","99255","0.0-32.0","76226","","","","","","triplet","2188.2000000476837","","","","1","stimuli/bird_lowercase.png","stimuli/stim001_animate_fish_1.png","stimuli/stim008_animate_bird_4.png","28"
"html-button-response-mod","33","101913","0.0-33.0","76226","","","","","","triplet","2151.4000000953674","","","","0","stimuli/face_uppercase.png","stimuli/boats_uppercase.png","stimuli/stim022_inanimate_tools_2.png","29"
"html-button-response-mod","34","103610","0.0-34.0","76226","","","","","","triplet","1180.9000000953674","","","","0","stimuli/stim021_inanimate_tools_1.png","stimuli/stim012_animate_face_4.png","stimuli/stim011_animate_face_3.png","30"
"html-button-response-mod","35","105847","0.0-35.0","76226","","","","","","triplet","1733.2999999523163","","","","1","stimuli/stim004_animate_fish_4.png","stimuli/stim017_inanimate_tree_1.png","stimuli/fish_lowercase.png","31"
"html-button-response-mod","36","108001","0.0-36.0","76226","","","","","","triplet","1649.0999999046326","","","","0","stimuli/stim004_animate_fish_4.png","stimuli/stim018_inanimate_tree_2.png","stimuli/tree_uppercase.png","32"
"html-button-response-mod","37","111633","0.0-37.0","76226","","","","","","triplet","3127.2000000476837","","","","2","stimuli/stim019_inanimate_tree_3.png","stimuli/face_uppercase.png","stimuli/stim023_inanimate_tools_3.png","33"
"html-button-response-mod","38","114066","0.0-38.0","76226","","","","","","triplet","1916.9000000953674","","","","2","stimuli/bird_lowercase.png","stimuli/stim001_animate_fish_1.png","stimuli/stim018_inanimate_tree_2.png","34"
"html-button-response-mod","39","116382","0.0-39.0","76226","","","","","","triplet","1798.6000001430511","","","","1","stimuli/boats_uppercase.png","stimuli/stim021_inanimate_tools_1.png","stimuli/stim016_inanimate_boats_4.png","35"
"html-button-response-mod","40","119308","0.0-40.0","76226","","","","","","triplet","2408.5999999046326","","","","1","stimuli/stim013_inanimate_boats_1.png","stimuli/stim005_animate_bird_1.png","stimuli/tools_uppercase.png","36"
"html-button-response-mod","41","123158","0.0-41.0","76226","","","","","","triplet","3341.5999999046326","","","","2","stimuli/face_uppercase.png","stimuli/stim001_animate_fish_1.png","stimuli/stim024_inanimate_tools_4.png","37"
"html-button-response-mod","42","132618","0.0-42.0","76226","","","","","","triplet","8956.199999809265","","","","1","stimuli/fish_lowercase.png","stimuli/stim009_animate_face_1.png","stimuli/stim020_inanimate_tree_4.png","38"
"html-button-response-mod","43","135582","0.0-43.0","76226","","","","","","triplet","2448","","","","2","stimuli/boats_uppercase.png","stimuli/boats_lowercase.png","stimuli/tree_uppercase.png","39"
"html-button-response-mod","44","137378","0.0-44.0","76226","","","","","","triplet","1282.9000000953674","","","","2","stimuli/tree_lowercase.png","stimuli/tree_uppercase.png","stimuli/boats_uppercase.png","40"
"html-button-response-mod","45","139196","0.0-45.0","76226","","","","","","triplet","1306.7000000476837","","","","2","stimuli/bird_uppercase.png","stimuli/bird_lowercase.png","stimuli/face_uppercase.png","41"
"html-button-response-mod","46","142090","0.0-46.0","76226","","","","","","triplet","2385.199999809265","","","","2","stimuli/stim006_animate_bird_2.png","stimuli/stim019_inanimate_tree_3.png","stimuli/face_lowercase.png","42"
"html-button-response-mod","47","145844","0.0-47.0","76226","","","","","","triplet","3237.899999856949","","","","0","stimuli/stim021_inanimate_tools_1.png","stimuli/bird_lowercase.png","stimuli/tree_uppercase.png","43"
"html-button-response-mod","48","150256","0.0-48.0","76226","","","","","","triplet","3904.5","","","","2","stimuli/fish_lowercase.png","stimuli/face_lowercase.png","stimuli/tree_uppercase.png","44"
"html-button-response-mod","49","152448","0.0-49.0","76226","","","","","","triplet","1674.4000000953674","","","","0","stimuli/stim017_inanimate_tree_1.png","stimuli/boats_uppercase.png","stimuli/stim014_inanimate_boats_2.png","45"
"html-button-response-mod","50","155026","0.0-50.0","76226","","","","","","triplet","2061.5","","","","2","stimuli/stim001_animate_fish_1.png","stimuli/stim007_animate_bird_3.png","stimuli/stim010_animate_face_2.png","46"
"html-button-response-mod","51","157292","0.0-51.0","76226","","","","","","triplet","1763.2999999523163","","","","1","stimuli/stim023_inanimate_tools_3.png","stimuli/stim002_animate_fish_2.png","stimuli/tools_uppercase.png","47"
"html-button-response-mod","52","159208","0.0-52.0","76226","","","","","","triplet","1398.5","","","","0","stimuli/stim023_inanimate_tools_3.png","stimuli/stim012_animate_face_4.png","stimuli/stim010_animate_face_2.png","48"
"html-button-response-mod","53","160994","0.0-53.0","76226","","","","","","triplet","1278.4000000953674","","","","0","stimuli/fish_lowercase.png","stimuli/tools_lowercase.png","stimuli/stim023_inanimate_tools_3.png","49"
"html-button-response","54","170681","0.0-54.0","76226","","","","","","break","9176.299999952316","<p>BREAK</p><p>Take a break for as long as you need</p><p>Click the button to continue</p>","0","","","","","",""
"html-button-response-mod","55","172764","0.0-55.0","76226","","","","","","triplet","2081.2999999523163","","","","1","stimuli/stim023_inanimate_tools_3.png","stimuli/stim001_animate_fish_1.png","stimuli/stim016_inanimate_boats_4.png","50"
"html-button-response-mod","56","174732","0.0-56.0","76226","","","","","","triplet","1459","","","","1","stimuli/stim012_animate_face_4.png","stimuli/stim018_inanimate_tree_2.png","stimuli/stim010_animate_face_2.png","51"
"html-button-response-mod","57","176926","0.0-57.0","76226","","","","","","triplet","1681.2000000476837","","","","2","stimuli/stim006_animate_bird_2.png","stimuli/tree_uppercase.png","stimuli/stim002_animate_fish_2.png","52"
"html-button-response-mod","58","178804","0.0-58.0","76226","","","","","","triplet","1373.5999999046326","","","","2","stimuli/stim024_inanimate_tools_4.png","stimuli/stim013_inanimate_boats_1.png","stimuli/stim018_inanimate_tree_2.png","53"
"html-button-response-mod","59","181884","0.0-59.0","76226","","","","","","triplet","2572","","","","2","stimuli/stim023_inanimate_tools_3.png","stimuli/stim015_inanimate_boats_3.png","stimuli/stim004_animate_fish_4.png","54"
"html-button-response-mod","60","183830","0.0-60.0","76226","","","","","","triplet","1435","","","","2","stimuli/bird_lowercase.png","stimuli/stim007_animate_bird_3.png","stimuli/stim023_inanimate_tools_3.png","55"
"html-button-response-mod","61","186178","0.0-61.0","76226","","","","","","triplet","1841","","","","0","stimuli/boats_lowercase.png","stimuli/stim007_animate_bird_3.png","stimuli/stim008_animate_bird_4.png","56"
"html-button-response-mod","62","189676","0.0-62.0","76226","","","","","","triplet","2983.100000143051","","","","0","stimuli/stim017_inanimate_tree_1.png","stimuli/stim016_inanimate_boats_4.png","stimuli/fish_uppercase.png","57"
"html-button-response-mod","63","192970","0.0-63.0","76226","","","","","","triplet","2786","","","","1","stimuli/stim001_animate_fish_1.png","stimuli/stim022_inanimate_tools_2.png","stimuli/bird_lowercase.png","58"
"html-button-response-mod","64","196735","0.0-64.0","76226","","","","","","triplet","3249.100000143051","","","","0","stimuli/face_uppercase.png","stimuli/stim001_animate_fish_1.png","stimuli/stim019_inanimate_tree_3.png","59"
"html-button-response-mod","65","201054","0.0-65.0","76226","","","","","","triplet","3815.2999999523163","","","","1","stimuli/stim013_inanimate_boats_1.png","stimuli/stim018_inanimate_tree_2.png","stimuli/stim021_inanimate_tools_1.png","60"
"html-button-response-mod","66","211240","0.0-66.0","76226","","","","","","triplet","9672","","","","0","stimuli/stim014_inanimate_boats_2.png","stimuli/stim007_animate_bird_3.png","stimuli/bird_lowercase.png","61"
"html-button-response-mod","67","213072","0.0-67.0","76226","","","","","","triplet","1329.2000000476837","","","","0","stimuli/stim002_animate_fish_2.png","stimuli/stim009_animate_face_1.png","stimuli/face_lowercase.png","62"
"html-button-response-mod","68","215294","0.0-68.0","76226","","","","","","triplet","1719","","","","2","stimuli/stim005_animate_bird_1.png","stimuli/stim006_animate_bird_2.png","stimuli/stim014_inanimate_boats_2.png","63"
"html-button-response-mod","69","217828","0.0-69.0","76226","","","","","","triplet","2020.2999999523163","","","","1","stimuli/stim021_inanimate_tools_1.png","stimuli/fish_uppercase.png","stimuli/stim014_inanimate_boats_2.png","64"
"html-button-response-mod","70","220170","0.0-70.0","76226","","","","","","triplet","1824.5","","","","0","stimuli/stim023_inanimate_tools_3.png","stimuli/stim005_animate_bird_1.png","stimuli/stim002_animate_fish_2.png","65"
"html-button-response-mod","71","223680","0.0-71.0","76226","","","","","","triplet","3004.399999856949","","","","2","stimuli/stim001_animate_fish_1.png","stimuli/bird_lowercase.png","stimuli/tools_lowercase.png","66"
"html-button-response-mod","72","226164","0.0-72.0","76226","","","","","","triplet","1980.4000000953674","","","","0","stimuli/tools_lowercase.png","stimuli/stim008_animate_bird_4.png","stimuli/face_uppercase.png","67"
"html-button-response-mod","73","227858","0.0-73.0","76226","","","","","","triplet","1178","","","","2","stimuli/stim010_animate_face_2.png","stimuli/stim009_animate_face_1.png","stimuli/stim002_animate_fish_2.png","68"
"html-button-response-mod","74","232292","0.0-74.0","76226","","","","","","triplet","3930.300000190735","","","","0","stimuli/stim013_inanimate_boats_1.png","stimuli/stim005_animate_bird_1.png","stimuli/stim012_animate_face_4.png","69"
"html-button-response-mod","75","234460","0.0-75.0","76226","","","","","","triplet","1663.9000000953674","","","","2","stimuli/stim020_inanimate_tree_4.png","stimuli/tree_uppercase.png","stimuli/stim008_animate_bird_4.png","70"
"html-button-response-mod","76","236652","0.0-76.0","76226","","","","","","triplet","1688.0999999046326","","","","0","stimuli/stim021_inanimate_tools_1.png","stimuli/stim012_animate_face_4.png","stimuli/stim004_animate_fish_4.png","71"
"html-button-response-mod","77","239666","0.0-77.0","76226","","","","","","triplet","2510","","","","1","stimuli/stim003_animate_fish_3.png","stimuli/stim010_animate_face_2.png","stimuli/stim001_animate_fish_1.png","72"
"html-button-response-mod","78","242218","0.0-78.0","76226","","","","","","triplet","2048.100000143051","","","","1","stimuli/boats_lowercase.png","stimuli/bird_lowercase.png","stimuli/stim014_inanimate_boats_2.png","73"
"html-button-response-mod","79","244578","0.0-79.0","76226","","","","","","triplet","1858.2000000476837","","","","2","stimuli/stim020_inanimate_tree_4.png","stimuli/stim006_animate_bird_2.png","stimuli/boats_uppercase.png","74"
"html-button-response-mod","80","246616","0.0-80.0","76226","","","","","","triplet","1532.7000000476837","","","","1","stimuli/stim008_animate_bird_4.png","stimuli/tools_lowercase.png","stimuli/stim006_animate_bird_2.png","75"
"html-button-response-mod","81","249561","0.0-81.0","76226","","","","","","triplet","2426","","","","0","stimuli/stim010_animate_face_2.png","stimuli/boats_lowercase.png","stimuli/stim013_inanimate_boats_1.png","76"
"html-button-response-mod","82","252223","0.0-82.0","76226","","","","","","triplet","2147.9000000953674","","","","2","stimuli/stim019_inanimate_tree_3.png","stimuli/face_lowercase.png","stimuli/stim021_inanimate_tools_1.png","77"
"html-button-response-mod","83","254311","0.0-83.0","76226","","","","","","triplet","1573.2000000476837","","","","0","stimuli/stim016_inanimate_boats_4.png","stimuli/stim007_animate_bird_3.png","stimuli/stim001_animate_fish_1.png","78"
"html-button-response-mod","84","256997","0.0-84.0","76226","","","","","","triplet","2168.2999999523163","","","","1","stimuli/face_uppercase.png","stimuli/stim017_inanimate_tree_1.png","stimuli/stim010_animate_face_2.png","79"
"html-button-response-mod","85","259291","0.0-85.0","76226","","","","","","triplet","1791.2999999523163","","","","0","stimuli/stim012_animate_face_4.png","stimuli/tree_uppercase.png","stimuli/stim020_inanimate_tree_4.png","80"
"html-button-response-mod","86","261287","0.0-86.0","76226","","","","","","triplet","1492.2000000476837","","","","0","stimuli/stim010_animate_face_2.png","stimuli/stim006_animate_bird_2.png","stimuli/stim008_animate_bird_4.png","81"
"html-button-response-mod","87","263975","0.0-87.0","76226","","","","","","triplet","2184.9000000953674","","","","2","stimuli/stim017_inanimate_tree_1.png","stimuli/stim008_animate_bird_4.png","stimuli/stim013_inanimate_boats_1.png","82"
"html-button-response-mod","88","265635","0.0-88.0","76226","","","","","","triplet","1156.4000000953674","","","","1","stimuli/stim003_animate_fish_3.png","stimuli/stim010_animate_face_2.png","stimuli/stim002_animate_fish_2.png","83"
"html-button-response-mod","89","267846","0.0-89.0","76226","","","","","","triplet","1692.9000000953674","","","","0","stimuli/stim015_inanimate_boats_3.png","stimuli/stim005_animate_bird_1.png","stimuli/stim001_animate_fish_1.png","84"
"html-button-response-mod","90","270788","0.0-90.0","76226","","","","","","triplet","2424","","","","2","stimuli/stim001_animate_fish_1.png","stimuli/tree_lowercase.png","stimuli/stim012_animate_face_4.png","85"
"html-button-response-mod","91","273209","0.0-91.0","76226","","","","","","triplet","1916.5","","","","2","stimuli/face_uppercase.png","stimuli/stim009_animate_face_1.png","stimuli/stim001_animate_fish_1.png","86"
"html-button-response-mod","92","276928","0.0-92.0","76226","","","","","","triplet","3216.800000190735","","","","1","stimuli/stim019_inanimate_tree_3.png","stimuli/stim011_animate_face_3.png","stimuli/stim008_animate_bird_4.png","87"
"html-button-response-mod","93","279575","0.0-93.0","76226","","","","","","triplet","2139.4000000953674","","","","1","stimuli/stim014_inanimate_boats_2.png","stimuli/stim022_inanimate_tools_2.png","stimuli/stim004_animate_fish_4.png","88"
"html-button-response-mod","94","281544","0.0-94.0","76226","","","","","","triplet","1465.5","","","","2","stimuli/stim002_animate_fish_2.png","stimuli/fish_lowercase.png","stimuli/face_uppercase.png","89"
"html-button-response-mod","95","283515","0.0-95.0","76226","","","","","","triplet","1455.2999999523163","","","","2","stimuli/fish_lowercase.png","stimuli/stim003_animate_fish_3.png","stimuli/stim007_animate_bird_3.png","90"
"html-button-response-mod","96","285400","0.0-96.0","76226","","","","","","triplet","1374.5","","","","2","stimuli/tools_uppercase.png","stimuli/tools_lowercase.png","stimuli/stim009_animate_face_1.png","91"
"html-button-response-mod","97","288473","0.0-97.0","76226","","","","","","triplet","2554.9000000953674","","","","0","stimuli/stim012_animate_face_4.png","stimuli/stim006_animate_bird_2.png","stimuli/stim004_animate_fish_4.png","92"
"html-button-response-mod","98","291135","0.0-98.0","76226","","","","","","triplet","2159.100000143051","","","","1","stimuli/bird_uppercase.png","stimuli/stim016_inanimate_boats_4.png","stimuli/stim017_inanimate_tree_1.png","93"
"html-button-response-mod","99","293822","0.0-99.0","76226","","","","","","triplet","2170.7999999523163","","","","2","stimuli/bird_lowercase.png","stimuli/tree_lowercase.png","stimuli/boats_lowercase.png","94"
"html-button-response-mod","100","296971","0.0-100.0","76226","","","","","","triplet","2637.7000000476837","","","","0","stimuli/stim009_animate_face_1.png","stimuli/stim003_animate_fish_3.png","stimuli/bird_lowercase.png","95"
"html-button-response-mod","101","299796","0.0-101.0","76226","","","","","","triplet","2322.300000190735","","","","2","stimuli/stim015_inanimate_boats_3.png","stimuli/boats_lowercase.png","stimuli/stim005_animate_bird_1.png","96"
"html-button-response-mod","102","301818","0.0-102.0","76226","","","","","","triplet","1505.7999999523163","","","","1","stimuli/stim018_inanimate_tree_2.png","stimuli/stim024_inanimate_tools_4.png","stimuli/tree_uppercase.png","97"
"html-button-response-mod","103","305892","0.0-103.0","76226","","","","","","triplet","3568.7999999523163","","","","0","stimuli/stim015_inanimate_boats_3.png","stimuli/stim008_animate_bird_4.png","stimuli/fish_uppercase.png","98"
"html-button-response-mod","104","310205","0.0-104.0","76226","","","","","","triplet","3809.0999999046326","","","","0","stimuli/tools_uppercase.png","stimuli/stim010_animate_face_2.png","stimuli/bird_uppercase.png","99"
"html-button-response","105","318020","0.0-105.0","76226","","","","","","break","7303.899999856949","<p>BREAK</p><p>Take a break for as long as you need</p><p>Click the button to continue</p>","0","","","","","",""
"html-button-response-mod","106","328182","0.0-106.0","76226","","","","","","triplet","10160.299999952316","","","","2","stimuli/fish_lowercase.png","stimuli/stim001_animate_fish_1.png","stimuli/stim020_inanimate_tree_4.png","100"
"html-button-response-mod","107","330228","0.0-107.0","76226","","","","","","triplet","1542.2999999523163","","","","1","stimuli/stim005_animate_bird_1.png","stimuli/stim023_inanimate_tools_3.png","stimuli/stim007_animate_bird_3.png","101"
"html-button-response-mod","108","332420","0.0-108.0","76226","","","","","","triplet","1689","","","","0","stimuli/stim006_animate_bird_2.png","stimuli/stim001_animate_fish_1.png","stimuli/fish_lowercase.png","102"
"html-button-response-mod","109","334960","0.0-109.0","76226","","","","","","triplet","2037.1999998092651","","","","1","stimuli/bird_lowercase.png","stimuli/stim012_animate_face_4.png","stimuli/tree_lowercase.png","103"
"html-button-response-mod","110","338378","0.0-110.0","76226","","","","","","triplet","2914.0999999046326","","","","1","stimuli/stim004_animate_fish_4.png","stimuli/stim023_inanimate_tools_3.png","stimuli/stim017_inanimate_tree_1.png","104"
"html-button-response-mod","111","340714","0.0-111.0","76226","","","","","","triplet","1828.0999999046326","","","","2","stimuli/stim011_animate_face_3.png","stimuli/stim012_animate_face_4.png","stimuli/stim018_inanimate_tree_2.png","105"
"html-button-response-mod","112","343343","0.0-112.0","76226","","","","","","triplet","2122.2000000476837","","","","2","stimuli/stim017_inanimate_tree_1.png","stimuli/stim005_animate_bird_1.png","stimuli/stim023_inanimate_tools_3.png","106"
"html-button-response-mod","113","346204","0.0-113.0","76226","","","","","","triplet","2346.4000000953674","","","","0","stimuli/stim023_inanimate_tools_3.png","stimuli/tree_lowercase.png","stimuli/stim005_animate_bird_1.png","107"
"html-button-response-mod","114","350604","0.0-114.0","76226","","","","","","triplet","3896.7000000476837","","","","1","stimuli/tree_uppercase.png","stimuli/tools_uppercase.png","stimuli/face_lowercase.png","108"
"html-button-response-mod","115","353350","0.0-115.0","76226","","","","","","triplet","2236.699999809265","","","","0","stimuli/stim009_animate_face_1.png","stimuli/stim017_inanimate_tree_1.png","stimuli/stim005_animate_bird_1.png","109"
"html-button-response-mod","116","355620","0.0-116.0","76226","","","","","","triplet","1762.5","","","","1","stimuli/tree_lowercase.png","stimuli/face_uppercase.png","stimuli/tree_uppercase.png","110"
"html-button-response-mod","117","358968","0.0-117.0","76226","","","","","","triplet","2843.2999999523163","","","","1","stimuli/fish_lowercase.png","stimuli/face_uppercase.png","stimuli/stim006_animate_bird_2.png","111"
"html-button-response-mod","118","361632","0.0-118.0","76226","","","","","","triplet","2160.2999999523163","","","","0","stimuli/stim024_inanimate_tools_4.png","stimuli/stim011_animate_face_3.png","stimuli/stim007_animate_bird_3.png","112"
"html-button-response-mod","119","366778","0.0-119.0","76226","","","","","","triplet","4630.100000143051","","","","0","stimuli/stim021_inanimate_tools_1.png","stimuli/stim013_inanimate_boats_1.png","stimuli/face_uppercase.png","113"
"html-button-response-mod","120","371936","0.0-120.0","76226","","","","","","triplet","4654.900000095367","","","","0","stimuli/stim013_inanimate_boats_1.png","stimuli/stim012_animate_face_4.png","stimuli/stim018_inanimate_tree_2.png","114"
"html-button-response-mod","121","375280","0.0-121.0","76226","","","","","","triplet","2825.699999809265","","","","1","stimuli/boats_uppercase.png","stimuli/stim003_animate_fish_3.png","stimuli/stim015_inanimate_boats_3.png","115"
"html-button-response-mod","122","378252","0.0-122.0","76226","","","","","","triplet","2469.0999999046326","","","","1","stimuli/stim007_animate_bird_3.png","stimuli/stim024_inanimate_tools_4.png","stimuli/boats_lowercase.png","116"
"html-button-response-mod","123","382512","0.0-123.0","76226","","","","","","triplet","3752.0999999046326","","","","1","stimuli/tools_uppercase.png","stimuli/stim010_animate_face_2.png","stimuli/stim023_inanimate_tools_3.png","117"
"html-button-response-mod","124","385750","0.0-124.0","76226","","","","","","triplet","2729.7999999523163","","","","2","stimuli/face_lowercase.png","stimuli/stim017_inanimate_tree_1.png","stimuli/stim024_inanimate_tools_4.png","118"
"html-button-response-mod","125","388502","0.0-125.0","76226","","","","","","triplet","2236.199999809265","","","","1","stimuli/stim001_animate_fish_1.png","stimuli/stim010_animate_face_2.png","stimuli/bird_lowercase.png","119"
"html-button-response-mod","126","392210","0.0-126.0","76226","","","","","","triplet","3204.5","","","","2","stimuli/stim002_animate_fish_2.png","stimuli/bird_uppercase.png","stimuli/stim022_inanimate_tools_2.png","120"
"html-button-response-mod","127","396088","0.0-127.0","76226","","","","","","triplet","3374","","","","2","stimuli/stim006_animate_bird_2.png","stimuli/stim002_animate_fish_2.png","stimuli/stim015_inanimate_boats_3.png","121"
"html-button-response-mod","128","398349","0.0-128.0","76226","","","","","","triplet","1746.7000000476837","","","","0","stimuli/stim006_animate_bird_2.png","stimuli/tree_lowercase.png","stimuli/stim018_inanimate_tree_2.png","122"
"html-button-response-mod","129","400918","0.0-129.0","76226","","","","","","triplet","2066.0999999046326","","","","1","stimuli/stim018_inanimate_tree_2.png","stimuli/stim001_animate_fish_1.png","stimuli/stim017_inanimate_tree_1.png","123"
"html-button-response-mod","130","402696","0.0-130.0","76226","","","","","","triplet","1268.0999999046326","","","","2","stimuli/stim001_animate_fish_1.png","stimuli/fish_uppercase.png","stimuli/stim009_animate_face_1.png","124"
"html-button-response-mod","131","405680","0.0-131.0","76226","","","","","","triplet","2480.7000000476837","","","","0","stimuli/stim021_inanimate_tools_1.png","stimuli/stim002_animate_fish_2.png","stimuli/stim020_inanimate_tree_4.png","125"
"html-button-response-mod","132","408152","0.0-132.0","76226","","","","","","triplet","1970.1999998092651","","","","1","stimuli/stim001_animate_fish_1.png","stimuli/stim021_inanimate_tools_1.png","stimuli/tree_lowercase.png","126"
"html-button-response-mod","133","411386","0.0-133.0","76226","","","","","","triplet","2729.2000000476837","","","","1","stimuli/tools_lowercase.png","stimuli/fish_lowercase.png","stimuli/stim022_inanimate_tools_2.png","127"
"html-button-response-mod","134","414296","0.0-134.0","76226","","","","","","triplet","2405.5","","","","0","stimuli/tree_uppercase.png","stimuli/stim023_inanimate_tools_3.png","stimuli/tools_uppercase.png","128"
"html-button-response-mod","135","417291","0.0-135.0","76226","","","","","","triplet","2478.2999999523163","","","","0","stimuli/stim022_inanimate_tools_2.png","stimuli/fish_uppercase.png","stimuli/stim018_inanimate_tree_2.png","129"
"html-button-response-mod","136","419366","0.0-136.0","76226","","","","","","triplet","1561.2999999523163","","","","0","stimuli/fish_lowercase.png","stimuli/stim012_animate_face_4.png","stimuli/face_lowercase.png","130"
"html-button-response-mod","137","421173","0.0-137.0","76226","","","","","","triplet","1291.5999999046326","","","","0","stimuli/stim012_animate_face_4.png","stimuli/fish_uppercase.png","stimuli/face_lowercase.png","131"
"html-button-response-mod","138","423453","0.0-138.0","76226","","","","","","triplet","1762.7999999523163","","","","1","stimuli/stim020_inanimate_tree_4.png","stimuli/stim016_inanimate_boats_4.png","stimuli/stim007_animate_bird_3.png","132"
"html-button-response-mod","139","426001","0.0-139.0","76226","","","","","","triplet","2043.7000000476837","","","","1","stimuli/tree_uppercase.png","stimuli/stim015_inanimate_boats_3.png","stimuli/stim006_animate_bird_2.png","133"
"html-button-response-mod","140","427903","0.0-140.0","76226","","","","","","triplet","1388.1999998092651","","","","2","stimuli/stim006_animate_bird_2.png","stimuli/stim020_inanimate_tree_4.png","stimuli/stim014_inanimate_boats_2.png","134"
"html-button-response-mod","141","431567","0.0-141.0","76226","","","","","","triplet","3161","","","","0","stimuli/face_uppercase.png","stimuli/bird_lowercase.png","stimuli/tree_uppercase.png","135"
"html-button-response-mod","142","433933","0.0-142.0","76226","","","","","","triplet","1850.9000000953674","","","","2","stimuli/stim017_inanimate_tree_1.png","stimuli/stim006_animate_bird_2.png","stimuli/boats_uppercase.png","136"
"html-button-response-mod","143","437826","0.0-143.0","76226","","","","","","triplet","3388.5","","","","1","stimuli/stim011_animate_face_3.png","stimuli/bird_lowercase.png","stimuli/stim024_inanimate_tools_4.png","137"
"html-button-response-mod","144","441170","0.0-144.0","76226","","","","","","triplet","2839.2999999523163","","","","1","stimuli/stim016_inanimate_boats_4.png","stimuli/stim022_inanimate_tools_2.png","stimuli/fish_uppercase.png","138"
"html-button-response-mod","145","443703","0.0-145.0","76226","","","","","","triplet","2025.5","","","","1","stimuli/tree_lowercase.png","stimuli/stim013_inanimate_boats_1.png","stimuli/tree_uppercase.png","139"
"html-button-response-mod","146","447100","0.0-146.0","76226","","","","","","triplet","2887.600000143051","","","","1","stimuli/stim002_animate_fish_2.png","stimuli/fish_lowercase.png","stimuli/stim004_animate_fish_4.png","140"
"html-button-response-mod","147","450673","0.0-147.0","76226","","","","","","triplet","3068.199999809265","","","","0","stimuli/stim017_inanimate_tree_1.png","stimuli/stim013_inanimate_boats_1.png","stimuli/stim011_animate_face_3.png","141"
"html-button-response-mod","148","452829","0.0-148.0","76226","","","","","","triplet","1648.2000000476837","","","","1","stimuli/stim005_animate_bird_1.png","stimuli/stim018_inanimate_tree_2.png","stimuli/stim003_animate_fish_3.png","142"
"html-button-response-mod","149","454921","0.0-149.0","76226","","","","","","triplet","1580.2999999523163","","","","2","stimuli/face_lowercase.png","stimuli/stim009_animate_face_1.png","stimuli/stim018_inanimate_tree_2.png","143"
"html-button-response-mod","150","458008","0.0-150.0","76226","","","","","","triplet","2575.7999999523163","","","","1","stimuli/face_uppercase.png","stimuli/stim013_inanimate_boats_1.png","stimuli/stim006_animate_bird_2.png","144"
"html-button-response-mod","151","462465","0.0-151.0","76226","","","","","","triplet","3952.7999999523163","","","","0","stimuli/stim008_animate_bird_4.png","stimuli/boats_lowercase.png","stimuli/stim015_inanimate_boats_3.png","145"
"html-button-response-mod","152","464820","0.0-152.0","76226","","","","","","triplet","1844.7000000476837","","","","1","stimuli/stim014_inanimate_boats_2.png","stimuli/fish_uppercase.png","stimuli/boats_lowercase.png","146"
"html-button-response-mod","153","467453","0.0-153.0","76226","","","","","","triplet","2115.9000000953674","","","","1","stimuli/stim002_animate_fish_2.png","stimuli/stim018_inanimate_tree_2.png","stimuli/boats_uppercase.png","147"
"html-button-response-mod","154","469261","0.0-154.0","76226","","","","","","triplet","1305.3000001907349","","","","0","stimuli/bird_lowercase.png","stimuli/stim017_inanimate_tree_1.png","stimuli/stim019_inanimate_tree_3.png","148"
"html-button-response-mod","155","471395","0.0-155.0","76226","","","","","","triplet","1629.1000001430511","","","","2","stimuli/stim018_inanimate_tree_2.png","stimuli/stim007_animate_bird_3.png","stimuli/stim004_animate_fish_4.png","149"
"html-button-response","156","488349","0.0-156.0","76226","","","","","","break","16451.299999952316","<p>BREAK</p><p>Take a break for as long as you need</p><p>Click the button to continue</p>","0","","","","","",""
"html-button-response-mod","157","490286","0.0-157.0","76226","","","","","","triplet","1935.5","","","","1","stimuli/stim007_animate_bird_3.png","stimuli/stim013_inanimate_boats_1.png","stimuli/stim017_inanimate_tree_1.png","150"
"html-button-response-mod","158","492832","0.0-158.0","76226","","","","","","triplet","2042.6999998092651","","","","0","stimuli/face_lowercase.png","stimuli/boats_lowercase.png","stimuli/fish_uppercase.png","151"
"html-button-response-mod","159","494938","0.0-159.0","76226","","","","","","triplet","1602.5","","","","1","stimuli/stim008_animate_bird_4.png","stimuli/stim013_inanimate_boats_1.png","stimuli/stim005_animate_bird_1.png","152"
"html-button-response-mod","160","496970","0.0-160.0","76226","","","","","","triplet","1523.9000000953674","","","","1","stimuli/stim003_animate_fish_3.png","stimuli/face_uppercase.png","stimuli/stim001_animate_fish_1.png","153"
"html-button-response-mod","161","501419","0.0-161.0","76226","","","","","","triplet","3945.399999856949","","","","2","stimuli/stim015_inanimate_boats_3.png","stimuli/stim003_animate_fish_3.png","stimuli/bird_lowercase.png","154"
"html-button-response-mod","162","503562","0.0-162.0","76226","","","","","","triplet","1639.2999999523163","","","","0","stimuli/stim024_inanimate_tools_4.png","stimuli/stim006_animate_bird_2.png","stimuli/tree_uppercase.png","155"
"html-button-response-mod","163","506264","0.0-163.0","76226","","","","","","triplet","2199.600000143051","","","","2","stimuli/stim007_animate_bird_3.png","stimuli/stim001_animate_fish_1.png","stimuli/stim017_inanimate_tree_1.png","156"
"html-button-response-mod","164","512370","0.0-164.0","76226","","","","","","triplet","5600.100000143051","","","","2","stimuli/stim009_animate_face_1.png","stimuli/boats_lowercase.png","stimuli/stim019_inanimate_tree_3.png","157"
"html-button-response-mod","165","516184","0.0-165.0","76226","","","","","","triplet","3302.2999999523163","","","","0","stimuli/tools_uppercase.png","stimuli/stim001_animate_fish_1.png","stimuli/tree_lowercase.png","158"
"html-button-response-mod","166","518566","0.0-166.0","76226","","","","","","triplet","1871.0999999046326","","","","1","stimuli/stim007_animate_bird_3.png","stimuli/stim009_animate_face_1.png","stimuli/stim003_animate_fish_3.png","159"
"html-button-response-mod","167","521092","0.0-167.0","76226","","","","","","triplet","2023.2000000476837","","","","0","stimuli/boats_lowercase.png","stimuli/stim006_animate_bird_2.png","stimuli/stim003_animate_fish_3.png","160"
"html-button-response-mod","168","523578","0.0-168.0","76226","","","","","","triplet","1982","","","","1","stimuli/stim023_inanimate_tools_3.png","stimuli/bird_lowercase.png","stimuli/stim014_inanimate_boats_2.png","161"
"html-button-response-mod","169","527780","0.0-169.0","76226","","","","","","triplet","3698.5","","","","1","stimuli/stim018_inanimate_tree_2.png","stimuli/stim023_inanimate_tools_3.png","stimuli/stim011_animate_face_3.png","162"
"html-button-response-mod","170","530130","0.0-170.0","76226","","","","","","triplet","1835.2999999523163","","","","2","stimuli/stim016_inanimate_boats_4.png","stimuli/fish_lowercase.png","stimuli/stim011_animate_face_3.png","163"
"html-button-response-mod","171","534056","0.0-171.0","76226","","","","","","triplet","3422.2000000476837","","","","1","stimuli/stim008_animate_bird_4.png","stimuli/stim024_inanimate_tools_4.png","stimuli/tree_lowercase.png","164"
"html-button-response-mod","172","537432","0.0-172.0","76226","","","","","","triplet","2873.0999999046326","","","","1","stimuli/stim003_animate_fish_3.png","stimuli/stim008_animate_bird_4.png","stimuli/boats_lowercase.png","165"
"html-button-response-mod","173","544974","0.0-173.0","76226","","","","","","triplet","7026.100000143051","","","","0","stimuli/stim021_inanimate_tools_1.png","stimuli/tree_lowercase.png","stimuli/stim012_animate_face_4.png","166"
"html-button-response-mod","174","546888","0.0-174.0","76226","","","","","","triplet","1400.2999999523163","","","","2","stimuli/stim017_inanimate_tree_1.png","stimuli/stim006_animate_bird_2.png","stimuli/stim024_inanimate_tools_4.png","167"
"html-button-response-mod","175","549450","0.0-175.0","76226","","","","","","triplet","2054","","","","1","stimuli/stim022_inanimate_tools_2.png","stimuli/stim002_animate_fish_2.png","stimuli/stim024_inanimate_tools_4.png","168"
"html-button-response-mod","176","551598","0.0-176.0","76226","","","","","","triplet","1639.5999999046326","","","","1","stimuli/face_uppercase.png","stimuli/stim023_inanimate_tools_3.png","stimuli/face_lowercase.png","169"
"html-button-response-mod","177","554358","0.0-177.0","76226","","","","","","triplet","2251.899999856949","","","","0","stimuli/stim024_inanimate_tools_4.png","stimuli/fish_lowercase.png","stimuli/stim019_inanimate_tree_3.png","170"
"html-button-response-mod","178","556166","0.0-178.0","76226","","","","","","triplet","1303.9000000953674","","","","2","stimuli/stim013_inanimate_boats_1.png","stimuli/stim014_inanimate_boats_2.png","stimuli/bird_lowercase.png","171"
"html-button-response-mod","179","559099","0.0-179.0","76226","","","","","","triplet","2421.5","","","","1","stimuli/fish_uppercase.png","stimuli/stim023_inanimate_tools_3.png","stimuli/stim005_animate_bird_1.png","172"
"html-button-response-mod","180","562136","0.0-180.0","76226","","","","","","triplet","2519.7000000476837","","","","1","stimuli/fish_uppercase.png","stimuli/stim021_inanimate_tools_1.png","stimuli/stim007_animate_bird_3.png","173"
"html-button-response-mod","181","564255","0.0-181.0","76226","","","","","","triplet","1609.7999999523163","","","","1","stimuli/stim007_animate_bird_3.png","stimuli/fish_lowercase.png","stimuli/stim012_animate_face_4.png","174"
"html-button-response-mod","182","567234","0.0-182.0","76226","","","","","","triplet","2475.2999999523163","","","","1","stimuli/tree_uppercase.png","stimuli/boats_lowercase.png","stimuli/stim009_animate_face_1.png","175"
"html-button-response-mod","183","569322","0.0-183.0","76226","","","","","","triplet","1574.7000000476837","","","","1","stimuli/stim021_inanimate_tools_1.png","stimuli/stim017_inanimate_tree_1.png","stimuli/stim024_inanimate_tools_4.png","176"
"html-button-response-mod","184","571242","0.0-184.0","76226","","","","","","triplet","1415.2999999523163","","","","2","stimuli/stim002_animate_fish_2.png","stimuli/stim001_animate_fish_1.png","stimuli/tools_lowercase.png","177"
"html-button-response-mod","185","573202","0.0-185.0","76226","","","","","","triplet","1456.5","","","","2","stimuli/stim006_animate_bird_2.png","stimuli/stim020_inanimate_tree_4.png","stimuli/tools_uppercase.png","178"
"html-button-response-mod","186","576264","0.0-186.0","76226","","","","","","triplet","2558.100000143051","","","","2","stimuli/stim004_animate_fish_4.png","stimuli/stim012_animate_face_4.png","stimuli/tools_uppercase.png","179"
"html-button-response-mod","187","579190","0.0-187.0","76226","","","","","","triplet","2421.7999999523163","","","","1","stimuli/tree_uppercase.png","stimuli/stim022_inanimate_tools_2.png","stimuli/stim007_animate_bird_3.png","180"
"html-button-response-mod","188","582637","0.0-188.0","76226","","","","","","triplet","2944.0999999046326","","","","0","stimuli/stim015_inanimate_boats_3.png","stimuli/stim002_animate_fish_2.png","stimuli/bird_uppercase.png","181"
"html-button-response-mod","189","586056","0.0-189.0","76226","","","","","","triplet","2915.7000000476837","","","","0","stimuli/boats_uppercase.png","stimuli/face_lowercase.png","stimuli/tree_uppercase.png","182"
"html-button-response-mod","190","589870","0.0-190.0","76226","","","","","","triplet","3310.4000000953674","","","","0","stimuli/stim016_inanimate_boats_4.png","stimuli/stim005_animate_bird_1.png","stimuli/face_uppercase.png","183"
"html-button-response-mod","191","592346","0.0-191.0","76226","","","","","","triplet","1965.5","","","","0","stimuli/stim004_animate_fish_4.png","stimuli/stim010_animate_face_2.png","stimuli/face_uppercase.png","184"
"html-button-response-mod","192","596044","0.0-192.0","76226","","","","","","triplet","3181.600000143051","","","","2","stimuli/bird_uppercase.png","stimuli/stim004_animate_fish_4.png","stimuli/boats_lowercase.png","185"
"html-button-response-mod","193","599380","0.0-193.0","76226","","","","","","triplet","2831.399999856949","","","","2","stimuli/tree_uppercase.png","stimuli/fish_lowercase.png","stimuli/stim022_inanimate_tools_2.png","186"
"html-button-response-mod","194","604470","0.0-194.0","76226","","","","","","triplet","4587.200000047684","","","","0","stimuli/stim018_inanimate_tree_2.png","stimuli/stim008_animate_bird_4.png","stimuli/fish_uppercase.png","187"
"html-button-response-mod","195","618259","0.0-195.0","76226","","","","","","triplet","13276.299999952316","","","","1","stimuli/stim004_animate_fish_4.png","stimuli/stim009_animate_face_1.png","stimuli/stim005_animate_bird_1.png","188"
"html-button-response-mod","196","621838","0.0-196.0","76226","","","","","","triplet","3074.7999999523163","","","","2","stimuli/stim018_inanimate_tree_2.png","stimuli/stim001_animate_fish_1.png","stimuli/face_uppercase.png","189"
"html-button-response-mod","197","626242","0.0-197.0","76226","","","","","","triplet","3901.2000000476837","","","","0","stimuli/stim006_animate_bird_2.png","stimuli/stim022_inanimate_tools_2.png","stimuli/boats_uppercase.png","190"
"html-button-response-mod","198","629854","0.0-198.0","76226","","","","","","triplet","3106.4000000953674","","","","0","stimuli/stim014_inanimate_boats_2.png","stimuli/stim008_animate_bird_4.png","stimuli/tree_uppercase.png","191"
"html-button-response-mod","199","633833","0.0-199.0","76226","","","","","","triplet","3461","","","","1","stimuli/face_uppercase.png","stimuli/stim013_inanimate_boats_1.png","stimuli/bird_uppercase.png","192"
"html-button-response-mod","200","635736","0.0-200.0","76226","","","","","","triplet","1394.2000000476837","","","","1","stimuli/tree_uppercase.png","stimuli/face_uppercase.png","stimuli/stim020_inanimate_tree_4.png","193"
"html-button-response-mod","201","637832","0.0-201.0","76226","","","","","","triplet","1584.6999998092651","","","","1","stimuli/fish_lowercase.png","stimuli/tools_lowercase.png","stimuli/stim005_animate_bird_1.png","194"
"html-button-response-mod","202","641083","0.0-202.0","76226","","","","","","triplet","2734.899999856949","","","","1","stimuli/stim003_animate_fish_3.png","stimuli/stim014_inanimate_boats_2.png","stimuli/stim009_animate_face_1.png","195"
"html-button-response-mod","203","643852","0.0-203.0","76226","","","","","","triplet","2258.7000000476837","","","","2","stimuli/fish_uppercase.png","stimuli/stim002_animate_fish_2.png","stimuli/stim008_animate_bird_4.png","196"
"html-button-response-mod","204","646154","0.0-204.0","76226","","","","","","triplet","1795","","","","2","stimuli/stim009_animate_face_1.png","stimuli/stim011_animate_face_3.png","stimuli/stim019_inanimate_tree_3.png","197"
"html-button-response-mod","205","649892","0.0-205.0","76226","","","","","","triplet","3233.5","","","","0","stimuli/stim004_animate_fish_4.png","stimuli/stim022_inanimate_tools_2.png","stimuli/tools_uppercase.png","198"
"html-button-response-mod","206","653968","0.0-206.0","76226","","","","","","triplet","3572.100000143051","","","","0","stimuli/stim023_inanimate_tools_3.png","stimuli/stim009_animate_face_1.png","stimuli/stim004_animate_fish_4.png","199"
"html-button-response","207","655819","0.0-207.0","76226","","","","","","break","1348","<p>BREAK</p><p>Take a break for as long as you need</p><p>Click the button to continue</p>","0","","","","","",""
"html-button-response-mod","208","657466","0.0-208.0","76226","","","","","","triplet","1645.7999999523163","","","","0","stimuli/stim012_animate_face_4.png","stimuli/stim017_inanimate_tree_1.png","stimuli/tree_lowercase.png","200"
"html-button-response-mod","209","660418","0.0-209.0","76226","","","","","","triplet","2448.2000000476837","","","","0","stimuli/stim009_animate_face_1.png","stimuli/tools_uppercase.png","stimuli/stim014_inanimate_boats_2.png","201"
"html-button-response-mod","210","664290","0.0-210.0","76226","","","","","","triplet","3364.7000000476837","","","","1","stimuli/face_uppercase.png","stimuli/stim015_inanimate_boats_3.png","stimuli/stim018_inanimate_tree_2.png","202"
"html-button-response-mod","211","666502","0.0-211.0","76226","","","","","","triplet","1701.5999999046326","","","","2","stimuli/boats_uppercase.png","stimuli/stim008_animate_bird_4.png","stimuli/stim021_inanimate_tools_1.png","203"
"html-button-response-mod","212","670732","0.0-212.0","76226","","","","","","triplet","3726.7999999523163","","","","2","stimuli/fish_uppercase.png","stimuli/stim003_animate_fish_3.png","stimuli/boats_uppercase.png","204"
"html-button-response-mod","213","673361","0.0-213.0","76226","","","","","","triplet","2111.5999999046326","","","","0","stimuli/stim011_animate_face_3.png","stimuli/stim020_inanimate_tree_4.png","stimuli/stim008_animate_bird_4.png","205"
"html-button-response-mod","214","677042","0.0-214.0","76226","","","","","","triplet","3166","","","","2","stimuli/face_lowercase.png","stimuli/tree_lowercase.png","stimuli/stim022_inanimate_tools_2.png","206"
"html-button-response-mod","215","679241","0.0-215.0","76226","","","","","","triplet","1687.7000000476837","","","","1","stimuli/stim017_inanimate_tree_1.png","stimuli/stim003_animate_fish_3.png","stimuli/stim020_inanimate_tree_4.png","207"
"html-button-response-mod","216","681429","0.0-216.0","76226","","","","","","triplet","1684.7000000476837","","","","0","stimuli/stim012_animate_face_4.png","stimuli/bird_uppercase.png","stimuli/stim006_animate_bird_2.png","208"
"html-button-response-mod","217","684250","0.0-217.0","76226","","","","","","triplet","2306.2999999523163","","","","2","stimuli/tree_uppercase.png","stimuli/stim003_animate_fish_3.png","stimuli/stim015_inanimate_boats_3.png","209"
"html-button-response-mod","218","686307","0.0-218.0","76226","","","","","","triplet","1553.1000001430511","","","","2","stimuli/stim014_inanimate_boats_2.png","stimuli/boats_uppercase.png","stimuli/stim022_inanimate_tools_2.png","210"
"html-button-response-mod","219","689185","0.0-219.0","76226","","","","","","triplet","2360.399999856949","","","","0","stimuli/boats_lowercase.png","stimuli/stim018_inanimate_tree_2.png","stimuli/stim005_animate_bird_1.png","211"
"html-button-response-mod","220","691056","0.0-220.0","76226","","","","","","triplet","1354.7999999523163","","","","1","stimuli/stim007_animate_bird_3.png","stimuli/stim022_inanimate_tools_2.png","stimuli/stim008_animate_bird_4.png","212"
"html-button-response-mod","221","694180","0.0-221.0","76226","","","","","","triplet","2620.7999999523163","","","","2","stimuli/bird_uppercase.png","stimuli/stim017_inanimate_tree_1.png","stimuli/stim002_animate_fish_2.png","213"
"html-button-response-mod","222","701176","0.0-222.0","76226","","","","","","triplet","6480.200000047684","","","","0","stimuli/stim010_animate_face_2.png","stimuli/tree_lowercase.png","stimuli/fish_uppercase.png","214"
"html-button-response-mod","223","703502","0.0-223.0","76226","","","","","","triplet","1815.9000000953674","","","","2","stimuli/stim024_inanimate_tools_4.png","stimuli/tools_uppercase.png","stimuli/stim003_animate_fish_3.png","215"
"html-button-response-mod","224","705836","0.0-224.0","76226","","","","","","triplet","1820.6000001430511","","","","2","stimuli/stim018_inanimate_tree_2.png","stimuli/bird_uppercase.png","stimuli/fish_uppercase.png","216"
"html-button-response-mod","225","708514","0.0-225.0","76226","","","","","","triplet","2170.7999999523163","","","","0","stimuli/stim023_inanimate_tools_3.png","stimuli/stim008_animate_bird_4.png","stimuli/fish_lowercase.png","217"
"html-button-response-mod","226","726778","0.0-226.0","76226","","","","","","triplet","17748","","","","0","stimuli/face_lowercase.png","stimuli/stim022_inanimate_tools_2.png","stimuli/stim015_inanimate_boats_3.png","218"
"html-button-response-mod","227","728940","0.0-227.0","76226","","","","","","triplet","1655.5999999046326","","","","0","stimuli/stim018_inanimate_tree_2.png","stimuli/stim001_animate_fish_1.png","stimuli/stim007_animate_bird_3.png","219"
"html-button-response-mod","228","732134","0.0-228.0","76226","","","","","","triplet","2683.399999856949","","","","2","stimuli/stim007_animate_bird_3.png","stimuli/stim005_animate_bird_1.png","stimuli/bird_lowercase.png","220"
"html-button-response-mod","229","739565","0.0-229.0","76226","","","","","","triplet","6926.299999952316","","","","1","stimuli/stim017_inanimate_tree_1.png","stimuli/stim014_inanimate_boats_2.png","stimuli/stim012_animate_face_4.png","221"
"html-button-response-mod","230","743354","0.0-230.0","76226","","","","","","triplet","3277.2000000476837","","","","0","stimuli/tools_uppercase.png","stimuli/fish_lowercase.png","stimuli/boats_lowercase.png","222"
"html-button-response-mod","231","746622","0.0-231.0","76226","","","","","","triplet","2753.199999809265","","","","0","stimuli/stim005_animate_bird_1.png","stimuli/stim024_inanimate_tools_4.png","stimuli/stim015_inanimate_boats_3.png","223"
"html-button-response-mod","232","748506","0.0-232.0","76226","","","","","","triplet","1379.7000000476837","","","","2","stimuli/stim011_animate_face_3.png","stimuli/face_lowercase.png","stimuli/bird_lowercase.png","224"
"html-button-response-mod","233","751551","0.0-233.0","76226","","","","","","triplet","2541.9000000953674","","","","0","stimuli/stim024_inanimate_tools_4.png","stimuli/boats_lowercase.png","stimuli/stim017_inanimate_tree_1.png","225"
"html-button-response-mod","234","754426","0.0-234.0","76226","","","","","","triplet","2361","","","","1","stimuli/tree_lowercase.png","stimuli/stim008_animate_bird_4.png","stimuli/stim019_inanimate_tree_3.png","226"
"html-button-response-mod","235","756914","0.0-235.0","76226","","","","","","triplet","1980.1000001430511","","","","1","stimuli/stim019_inanimate_tree_3.png","stimuli/stim012_animate_face_4.png","stimuli/fish_lowercase.png","227"
"html-button-response-mod","236","759472","0.0-236.0","76226","","","","","","triplet","2051.5","","","","1","stimuli/stim007_animate_bird_3.png","stimuli/boats_uppercase.png","stimuli/bird_lowercase.png","228"
"html-button-response-mod","237","761408","0.0-237.0","76226","","","","","","triplet","1422.5","","","","2","stimuli/tree_uppercase.png","stimuli/stim019_inanimate_tree_3.png","stimuli/fish_lowercase.png","229"
"html-button-response-mod","238","763246","0.0-238.0","76226","","","","","","triplet","1323.8000001907349","","","","2","stimuli/bird_lowercase.png","stimuli/stim008_animate_bird_4.png","stimuli/stim016_inanimate_boats_4.png","230"
"html-button-response-mod","239","765546","0.0-239.0","76226","","","","","","triplet","1789.2000000476837","","","","1","stimuli/stim003_animate_fish_3.png","stimuli/stim012_animate_face_4.png","stimuli/stim007_animate_bird_3.png","231"
"html-button-response-mod","240","773922","0.0-240.0","76226","","","","","","triplet","7873.700000047684","","","","0","stimuli/stim005_animate_bird_1.png","stimuli/tree_uppercase.png","stimuli/stim019_inanimate_tree_3.png","232"
"html-button-response-mod","241","775986","0.0-241.0","76226","","","","","","triplet","1559.9000000953674","","","","1","stimuli/face_lowercase.png","stimuli/stim004_animate_fish_4.png","stimuli/stim011_animate_face_3.png","233"
"html-button-response-mod","242","803897","0.0-242.0","76226","","","","","","triplet","27395.900000095367","","","","0","stimuli/stim013_inanimate_boats_1.png","stimuli/stim010_animate_face_2.png","stimuli/stim005_animate_bird_1.png","234"
"html-button-response-mod","243","807232","0.0-243.0","76226","","","","","","triplet","2819.2999999523163","","","","2","stimuli/stim013_inanimate_boats_1.png","stimuli/stim003_animate_fish_3.png","stimuli/bird_lowercase.png","235"
"html-button-response-mod","244","815003","0.0-244.0","76226","","","","","","triplet","7260.200000047684","","","","0","stimuli/stim014_inanimate_boats_2.png","stimuli/stim018_inanimate_tree_2.png","stimuli/stim010_animate_face_2.png","236"
"html-button-response-mod","245","816911","0.0-245.0","76226","","","","","","triplet","1391.5999999046326","","","","0","stimuli/stim008_animate_bird_4.png","stimuli/fish_lowercase.png","stimuli/stim003_animate_fish_3.png","237"
"html-button-response-mod","246","820069","0.0-246.0","76226","","","","","","triplet","2646.9000000953674","","","","0","stimuli/stim007_animate_bird_3.png","stimuli/boats_lowercase.png","stimuli/stim014_inanimate_boats_2.png","238"
"html-button-response-mod","247","825776","0.0-247.0","76226","","","","","","triplet","5193.200000047684","","","","1","stimuli/stim018_inanimate_tree_2.png","stimuli/face_uppercase.png","stimuli/fish_lowercase.png","239"
"html-button-response-mod","248","829079","0.0-248.0","76226","","","","","","triplet","2789.2999999523163","","","","0","stimuli/face_uppercase.png","stimuli/stim017_inanimate_tree_1.png","stimuli/tree_uppercase.png","240"
"html-button-response-mod","249","832574","0.0-249.0","76226","","","","","","triplet","2983.2000000476837","","","","1","stimuli/stim009_animate_face_1.png","stimuli/boats_uppercase.png","stimuli/tree_lowercase.png","241"
"html-button-response-mod","250","834517","0.0-250.0","76226","","","","","","triplet","1434.9000000953674","","","","2","stimuli/stim022_inanimate_tools_2.png","stimuli/stim023_inanimate_tools_3.png","stimuli/stim002_animate_fish_2.png","242"
"html-button-response-mod","251","837245","0.0-251.0","76226","","","","","","triplet","2211.5999999046326","","","","2","stimuli/stim009_animate_face_1.png","stimuli/stim020_inanimate_tree_4.png","stimuli/stim023_inanimate_tools_3.png","243"
"html-button-response-mod","252","840825","0.0-252.0","76226","","","","","","triplet","3068","","","","0","stimuli/face_lowercase.png","stimuli/fish_uppercase.png","stimuli/stim018_inanimate_tree_2.png","244"
"html-button-response-mod","253","843148","0.0-253.0","76226","","","","","","triplet","1815.5","","","","2","stimuli/stim020_inanimate_tree_4.png","stimuli/stim001_animate_fish_1.png","stimuli/boats_uppercase.png","245"
"html-button-response-mod","254","874072","0.0-254.0","76226","","","","","","triplet","30405.39999985695","","","","0","stimuli/stim011_animate_face_3.png","stimuli/stim013_inanimate_boats_1.png","stimuli/tools_uppercase.png","246"
"html-button-response-mod","255","876150","0.0-255.0","76226","","","","","","triplet","1560.7000000476837","","","","2","stimuli/stim018_inanimate_tree_2.png","stimuli/stim004_animate_fish_4.png","stimuli/stim012_animate_face_4.png","247"
"html-button-response-mod","256","883486","0.0-256.0","76226","","","","","","triplet","6823","","","","2","stimuli/stim012_animate_face_4.png","stimuli/stim009_animate_face_1.png","stimuli/fish_uppercase.png","248"
"html-button-response-mod","257","944997","0.0-257.0","76226","","","","","","triplet","61001.699999809265","","","","0","stimuli/tools_lowercase.png","stimuli/fish_lowercase.png","stimuli/stim009_animate_face_1.png","249"
"html-button-response","258","1080148","0.0-258.0","76226","","","","","","break","134647.19999980927","<p>BREAK</p><p>Take a break for as long as you need</p><p>Click the button to continue</p>","0","","","","","",""
"html-button-response-mod","259","1096533","0.0-259.0","76226","","","","","","triplet","16382.899999856949","","","","2","stimuli/stim012_animate_face_4.png","stimuli/stim010_animate_face_2.png","stimuli/stim019_inanimate_tree_3.png","250"
"html-button-response-mod","260","1098428","0.0-260.0","76226","","","","","","triplet","1391","","","","0","stimuli/face_lowercase.png","stimuli/stim016_inanimate_boats_4.png","stimuli/boats_uppercase.png","251"
"html-button-response-mod","261","1100663","0.0-261.0","76226","","","","","","triplet","1727.9000000953674","","","","1","stimuli/stim016_inanimate_boats_4.png","stimuli/stim017_inanimate_tree_1.png","stimuli/tools_uppercase.png","252"
"html-button-response-mod","262","1102704","0.0-262.0","76226","","","","","","triplet","1525.6999998092651","","","","0","stimuli/stim013_inanimate_boats_1.png","stimuli/stim018_inanimate_tree_2.png","stimuli/tree_uppercase.png","253"
"html-button-response-mod","263","1105077","0.0-263.0","76226","","","","","","triplet","1868.5","","","","1","stimuli/stim016_inanimate_boats_4.png","stimuli/stim007_animate_bird_3.png","stimuli/stim022_inanimate_tools_2.png","254"
"html-button-response-mod","264","1108880","0.0-264.0","76226","","","","","","triplet","3300","","","","2","stimuli/tree_lowercase.png","stimuli/stim004_animate_fish_4.png","stimuli/stim023_inanimate_tools_3.png","255"
"html-button-response-mod","265","1110704","0.0-265.0","76226","","","","","","triplet","1310.5","","","","2","stimuli/bird_lowercase.png","stimuli/stim006_animate_bird_2.png","stimuli/tree_uppercase.png","256"
"html-button-response-mod","266","1117199","0.0-266.0","76226","","","","","","triplet","5977.799999952316","","","","0","stimuli/stim008_animate_bird_4.png","stimuli/stim001_animate_fish_1.png","stimuli/stim013_inanimate_boats_1.png","257"
"html-button-response-mod","267","1120804","0.0-267.0","76226","","","","","","triplet","3090.2999999523163","","","","0","stimuli/stim013_inanimate_boats_1.png","stimuli/stim019_inanimate_tree_3.png","stimuli/stim005_animate_bird_1.png","258"
"html-button-response-mod","268","1123576","0.0-268.0","76226","","","","","","triplet","2257.399999856949","","","","2","stimuli/face_uppercase.png","stimuli/stim009_animate_face_1.png","stimuli/stim014_inanimate_boats_2.png","259"
"html-button-response-mod","269","1126738","0.0-269.0","76226","","","","","","triplet","2658","","","","1","stimuli/tree_uppercase.png","stimuli/stim016_inanimate_boats_4.png","stimuli/stim011_animate_face_3.png","260"
"html-button-response-mod","270","1130044","0.0-270.0","76226","","","","","","triplet","2800.300000190735","","","","1","stimuli/stim001_animate_fish_1.png","stimuli/stim022_inanimate_tools_2.png","stimuli/stim010_animate_face_2.png","261"
"html-button-response-mod","271","1132509","0.0-271.0","76226","","","","","","triplet","1949.1000001430511","","","","2","stimuli/stim022_inanimate_tools_2.png","stimuli/tools_lowercase.png","stimuli/stim009_animate_face_1.png","262"
"html-button-response-mod","272","1135176","0.0-272.0","76226","","","","","","triplet","2164.0999999046326","","","","2","stimuli/stim006_animate_bird_2.png","stimuli/stim010_animate_face_2.png","stimuli/stim023_inanimate_tools_3.png","263"
"html-button-response-mod","273","1174955","0.0-273.0","76226","","","","","","triplet","39260","","","","2","stimuli/tree_uppercase.png","stimuli/face_lowercase.png","stimuli/stim016_inanimate_boats_4.png","264"
"html-button-response-mod","274","1176634","0.0-274.0","76226","","","","","","triplet","1174.4000000953674","","","","2","stimuli/face_uppercase.png","stimuli/stim010_animate_face_2.png","stimuli/stim008_animate_bird_4.png","265"
"html-button-response-mod","275","1179704","0.0-275.0","76226","","","","","","triplet","2566","","","","1","stimuli/stim017_inanimate_tree_1.png","stimuli/stim010_animate_face_2.png","stimuli/stim001_animate_fish_1.png","266"
"html-button-response-mod","276","1181840","0.0-276.0","76226","","","","","","triplet","1632.0999999046326","","","","1","stimuli/stim004_animate_fish_4.png","stimuli/tools_uppercase.png","stimuli/stim005_animate_bird_1.png","267"
"html-button-response-mod","277","1183900","0.0-277.0","76226","","","","","","triplet","1542.2000000476837","","","","0","stimuli/stim010_animate_face_2.png","stimuli/stim002_animate_fish_2.png","stimuli/stim007_animate_bird_3.png","268"
"html-button-response-mod","278","1186190","0.0-278.0","76226","","","","","","triplet","1772.2999999523163","","","","0","stimuli/bird_uppercase.png","stimuli/stim004_animate_fish_4.png","stimuli/fish_lowercase.png","269"
"html-button-response-mod","279","1191626","0.0-279.0","76226","","","","","","triplet","4920.199999809265","","","","0","stimuli/stim006_animate_bird_2.png","stimuli/bird_uppercase.png","stimuli/bird_lowercase.png","270"
"html-button-response-mod","280","1195091","0.0-280.0","76226","","","","","","triplet","2955.9000000953674","","","","0","stimuli/stim024_inanimate_tools_4.png","stimuli/stim003_animate_fish_3.png","stimuli/tree_uppercase.png","271"
"html-button-response-mod","281","1197501","0.0-281.0","76226","","","","","","triplet","1905.6000001430511","","","","0","stimuli/tools_uppercase.png","stimuli/stim007_animate_bird_3.png","stimuli/stim010_animate_face_2.png","272"
"html-button-response-mod","282","1200104","0.0-282.0","76226","","","","","","triplet","2100","","","","1","stimuli/stim017_inanimate_tree_1.png","stimuli/tools_lowercase.png","stimuli/stim003_animate_fish_3.png","273"
"html-button-response-mod","283","1202788","0.0-283.0","76226","","","","","","triplet","2181","","","","0","stimuli/stim004_animate_fish_4.png","stimuli/stim016_inanimate_boats_4.png","stimuli/tools_uppercase.png","274"
"html-button-response-mod","284","1205089","0.0-284.0","76226","","","","","","triplet","1798.4000000953674","","","","2","stimuli/stim008_animate_bird_4.png","stimuli/stim006_animate_bird_2.png","stimuli/stim017_inanimate_tree_1.png","275"
"html-button-response-mod","285","1207566","0.0-285.0","76226","","","","","","triplet","1972.5999999046326","","","","2","stimuli/stim018_inanimate_tree_2.png","stimuli/stim005_animate_bird_1.png","stimuli/stim021_inanimate_tools_1.png","276"
"html-button-response-mod","286","1212660","0.0-286.0","76226","","","","","","triplet","4579","","","","2","stimuli/stim012_animate_face_4.png","stimuli/stim010_animate_face_2.png","stimuli/stim022_inanimate_tools_2.png","277"
"html-button-response-mod","287","1215000","0.0-287.0","76226","","","","","","triplet","1827.7999999523163","","","","2","stimuli/stim007_animate_bird_3.png","stimuli/stim002_animate_fish_2.png","stimuli/stim012_animate_face_4.png","278"
"html-button-response-mod","288","1232160","0.0-288.0","76226","","","","","","triplet","16647.900000095367","","","","1","stimuli/stim018_inanimate_tree_2.png","stimuli/fish_uppercase.png","stimuli/stim017_inanimate_tree_1.png","279"
"html-button-response-mod","289","1244604","0.0-289.0","76226","","","","","","triplet","11929.900000095367","","","","0","stimuli/stim024_inanimate_tools_4.png","stimuli/stim009_animate_face_1.png","stimuli/fish_uppercase.png","280"
"html-button-response-mod","290","1246567","0.0-290.0","76226","","","","","","triplet","1450","","","","0","stimuli/stim022_inanimate_tools_2.png","stimuli/face_uppercase.png","stimuli/stim010_animate_face_2.png","281"
"html-button-response-mod","291","1249800","0.0-291.0","76226","","","","","","triplet","2718.5999999046326","","","","1","stimuli/face_lowercase.png","stimuli/boats_lowercase.png","stimuli/stim017_inanimate_tree_1.png","282"
"html-button-response-mod","292","1251933","0.0-292.0","76226","","","","","","triplet","1622.2999999523163","","","","0","stimuli/stim023_inanimate_tools_3.png","stimuli/face_lowercase.png","stimuli/stim009_animate_face_1.png","283"
"html-button-response-mod","293","1254840","0.0-293.0","76226","","","","","","triplet","2392.2999999523163","","","","2","stimuli/stim007_animate_bird_3.png","stimuli/bird_uppercase.png","stimuli/stim021_inanimate_tools_1.png","284"
"html-button-response-mod","294","1311846","0.0-294.0","76226","","","","","","triplet","56494.59999990463","","","","1","stimuli/boats_uppercase.png","stimuli/stim007_animate_bird_3.png","stimuli/tools_uppercase.png","285"
"html-button-response-mod","295","1313910","0.0-295.0","76226","","","","","","triplet","1557.2999999523163","","","","0","stimuli/stim011_animate_face_3.png","stimuli/stim013_inanimate_boats_1.png","stimuli/stim024_inanimate_tools_4.png","286"
"html-button-response-mod","296","1316734","0.0-296.0","76226","","","","","","triplet","2307.7000000476837","","","","2","stimuli/stim020_inanimate_tree_4.png","stimuli/stim006_animate_bird_2.png","stimuli/fish_lowercase.png","287"
"html-button-response-mod","297","1320272","0.0-297.0","76226","","","","","","triplet","3034.7999999523163","","","","0","stimuli/stim012_animate_face_4.png","stimuli/fish_uppercase.png","stimuli/stim020_inanimate_tree_4.png","288"
"html-button-response-mod","298","1323000","0.0-298.0","76226","","","","","","triplet","2212.9000000953674","","","","2","stimuli/stim003_animate_fish_3.png","stimuli/stim020_inanimate_tree_4.png","stimuli/stim009_animate_face_1.png","289"
"html-button-response-mod","299","1324950","0.0-299.0","76226","","","","","","triplet","1446.2000000476837","","","","0","stimuli/stim011_animate_face_3.png","stimuli/tools_lowercase.png","stimuli/stim023_inanimate_tools_3.png","290"
"html-button-response-mod","300","1326998","0.0-300.0","76226","","","","","","triplet","1537.0999999046326","","","","2","stimuli/fish_lowercase.png","stimuli/stim007_animate_bird_3.png","stimuli/stim021_inanimate_tools_1.png","291"
"html-button-response-mod","301","1329796","0.0-301.0","76226","","","","","","triplet","2295.2999999523163","","","","1","stimuli/boats_lowercase.png","stimuli/stim020_inanimate_tree_4.png","stimuli/stim023_inanimate_tools_3.png","292"
"html-button-response-mod","302","1332528","0.0-302.0","76226","","","","","","triplet","2225.2000000476837","","","","0","stimuli/stim010_animate_face_2.png","stimuli/stim001_animate_fish_1.png","stimuli/stim013_inanimate_boats_1.png","293"
"html-button-response-mod","303","1335443","0.0-303.0","76226","","","","","","triplet","2409.7999999523163","","","","0","stimuli/stim011_animate_face_3.png","stimuli/tools_uppercase.png","stimuli/stim014_inanimate_boats_2.png","294"
"html-button-response-mod","304","1337806","0.0-304.0","76226","","","","","","triplet","1854.7999999523163","","","","2","stimuli/stim002_animate_fish_2.png","stimuli/stim008_animate_bird_4.png","stimuli/stim014_inanimate_boats_2.png","295"
"html-button-response-mod","305","1339730","0.0-305.0","76226","","","","","","triplet","1420.7999999523163","","","","1","stimuli/stim008_animate_bird_4.png","stimuli/tools_uppercase.png","stimuli/bird_uppercase.png","296"
"html-button-response-mod","306","1343702","0.0-306.0","76226","","","","","","triplet","3467.7999999523163","","","","0","stimuli/tree_lowercase.png","stimuli/stim005_animate_bird_1.png","stimuli/stim001_animate_fish_1.png","297"
"html-button-response-mod","307","1345974","0.0-307.0","76226","","","","","","triplet","1769.3999998569489","","","","0","stimuli/tree_lowercase.png","stimuli/face_uppercase.png","stimuli/stim003_animate_fish_3.png","298"
"html-button-response-mod","308","1348434","0.0-308.0","76226","","","","","","triplet","1951.1000001430511","","","","2","stimuli/stim006_animate_bird_2.png","stimuli/stim004_animate_fish_4.png","stimuli/boats_uppercase.png","299"
"html-button-response","309","1433195","0.0-309.0","76226","","","","","","break","84257.79999995232","<p>BREAK</p><p>Take a break for as long as you need</p><p>Click the button to continue</p>","0","","","","","",""
"html-button-response-mod","310","1435098","0.0-310.0","76226","","","","","","triplet","1901.5","","","","2","stimuli/tools_uppercase.png","stimuli/stim023_inanimate_tools_3.png","stimuli/stim003_animate_fish_3.png","300"
"html-button-response-mod","311","1438668","0.0-311.0","76226","","","","","","triplet","3054.5","","","","1","stimuli/stim018_inanimate_tree_2.png","stimuli/stim003_animate_fish_3.png","stimuli/tree_uppercase.png","301"
"html-button-response-mod","312","1441728","0.0-312.0","76226","","","","","","triplet","2557.4000000953674","","","","2","stimuli/tools_lowercase.png","stimuli/boats_lowercase.png","stimuli/stim020_inanimate_tree_4.png","302"
"html-button-response-mod","313","1444206","0.0-313.0","76226","","","","","","triplet","1973.4000000953674","","","","0","stimuli/stim006_animate_bird_2.png","stimuli/stim010_animate_face_2.png","stimuli/face_lowercase.png","303"
"html-button-response-mod","314","1448222","0.0-314.0","76226","","","","","","triplet","3513.0999999046326","","","","0","stimuli/stim007_animate_bird_3.png","stimuli/stim003_animate_fish_3.png","stimuli/boats_lowercase.png","304"
"html-button-response-mod","315","1503391","0.0-315.0","76226","","","","","","triplet","54663.199999809265","","","","2","stimuli/face_lowercase.png","stimuli/stim018_inanimate_tree_2.png","stimuli/tools_uppercase.png","305"
"html-button-response-mod","316","1505700","0.0-316.0","76226","","","","","","triplet","1792.9000000953674","","","","2","stimuli/stim020_inanimate_tree_4.png","stimuli/bird_lowercase.png","stimuli/stim003_animate_fish_3.png","306"
"html-button-response-mod","317","1512960","0.0-317.0","76226","","","","","","triplet","6745.099999904633","","","","1","stimuli/stim019_inanimate_tree_3.png","stimuli/stim014_inanimate_boats_2.png","stimuli/stim009_animate_face_1.png","307"
"html-button-response-mod","318","1514805","0.0-318.0","76226","","","","","","triplet","1329.7000000476837","","","","0","stimuli/stim011_animate_face_3.png","stimuli/stim001_animate_fish_1.png","stimuli/fish_lowercase.png","308"
"html-button-response-mod","319","1516981","0.0-319.0","76226","","","","","","triplet","1673.5","","","","0","stimuli/stim005_animate_bird_1.png","stimuli/stim017_inanimate_tree_1.png","stimuli/tree_lowercase.png","309"
"html-button-response-mod","320","1520845","0.0-320.0","76226","","","","","","triplet","3360.5","","","","1","stimuli/tools_lowercase.png","stimuli/stim015_inanimate_boats_3.png","stimuli/stim021_inanimate_tools_1.png","310"
"html-button-response-mod","321","1531625","0.0-321.0","76226","","","","","","triplet","10277.300000190735","","","","1","stimuli/tree_lowercase.png","stimuli/face_lowercase.png","stimuli/fish_lowercase.png","311"
"html-button-response-mod","322","1534435","0.0-322.0","76226","","","","","","triplet","2294.7000000476837","","","","1","stimuli/stim013_inanimate_boats_1.png","stimuli/stim018_inanimate_tree_2.png","stimuli/stim016_inanimate_boats_4.png","312"
"html-button-response-mod","323","1540085","0.0-323.0","76226","","","","","","triplet","5147","","","","0","stimuli/stim023_inanimate_tools_3.png","stimuli/stim017_inanimate_tree_1.png","stimuli/fish_uppercase.png","313"
"html-button-response-mod","324","1586335","0.0-324.0","76226","","","","","","triplet","45744","","","","2","stimuli/tree_lowercase.png","stimuli/stim002_animate_fish_2.png","stimuli/stim009_animate_face_1.png","314"
"html-button-response-mod","325","1597055","0.0-325.0","76226","","","","","","triplet","10205.700000047684","","","","1","stimuli/tools_lowercase.png","stimuli/bird_lowercase.png","stimuli/stim021_inanimate_tools_1.png","315"
"html-button-response-mod","326","1600219","0.0-326.0","76226","","","","","","triplet","2659.600000143051","","","","1","stimuli/face_uppercase.png","stimuli/stim021_inanimate_tools_1.png","stimuli/tree_lowercase.png","316"
"html-button-response-mod","327","1602693","0.0-327.0","76226","","","","","","triplet","1971.9000000953674","","","","0","stimuli/stim022_inanimate_tools_2.png","stimuli/stim008_animate_bird_4.png","stimuli/fish_uppercase.png","317"
"html-button-response-mod","328","1606129","0.0-328.0","76226","","","","","","triplet","2932.399999856949","","","","1","stimuli/stim024_inanimate_tools_4.png","stimuli/bird_lowercase.png","stimuli/stim016_inanimate_boats_4.png","318"
"html-button-response-mod","329","1609607","0.0-329.0","76226","","","","","","triplet","2971.5","","","","2","stimuli/stim014_inanimate_boats_2.png","stimuli/fish_uppercase.png","stimuli/stim012_animate_face_4.png","319"
"html-button-response-mod","330","1625157","0.0-330.0","76226","","","","","","triplet","15032.200000047684","","","","1","stimuli/stim016_inanimate_boats_4.png","stimuli/stim011_animate_face_3.png","stimuli/stim013_inanimate_boats_1.png","320"
"html-button-response-mod","331","1627645","0.0-331.0","76226","","","","","","triplet","1984.8999998569489","","","","0","stimuli/stim022_inanimate_tools_2.png","stimuli/fish_uppercase.png","stimuli/stim002_animate_fish_2.png","321"
"html-button-response-mod","332","1647709","0.0-332.0","76226","","","","","","triplet","19554.299999952316","","","","1","stimuli/stim003_animate_fish_3.png","stimuli/face_uppercase.png","stimuli/stim002_animate_fish_2.png","322"
"html-button-response-mod","333","1650929","0.0-333.0","76226","","","","","","triplet","2715.7000000476837","","","","0","stimuli/stim021_inanimate_tools_1.png","stimuli/stim008_animate_bird_4.png","stimuli/face_lowercase.png","323"
"html-button-response-mod","334","1652912","0.0-334.0","76226","","","","","","triplet","1480.7999999523163","","","","1","stimuli/stim008_animate_bird_4.png","stimuli/stim004_animate_fish_4.png","stimuli/stim005_animate_bird_1.png","324"
"html-button-response-mod","335","1655081","0.0-335.0","76226","","","","","","triplet","1664.7999999523163","","","","2","stimuli/boats_lowercase.png","stimuli/stim020_inanimate_tree_4.png","stimuli/face_lowercase.png","325"
"html-button-response-mod","336","1662328","0.0-336.0","76226","","","","","","triplet","6743.399999856949","","","","0","stimuli/face_lowercase.png","stimuli/stim008_animate_bird_4.png","stimuli/stim002_animate_fish_2.png","326"
"html-button-response-mod","337","1665600","0.0-337.0","76226","","","","","","triplet","2767.7999999523163","","","","1","stimuli/stim003_animate_fish_3.png","stimuli/stim023_inanimate_tools_3.png","stimuli/tree_uppercase.png","327"
"html-button-response-mod","338","1669035","0.0-338.0","76226","","","","","","triplet","2924.600000143051","","","","2","stimuli/stim014_inanimate_boats_2.png","stimuli/stim016_inanimate_boats_4.png","stimuli/fish_lowercase.png","328"
"html-button-response-mod","339","1696976","0.0-339.0","76226","","","","","","triplet","27425.599999904633","","","","0","stimuli/stim013_inanimate_boats_1.png","stimuli/stim006_animate_bird_2.png","stimuli/stim019_inanimate_tree_3.png","329"
"html-button-response-mod","340","1699092","0.0-340.0","76226","","","","","","triplet","1599.2000000476837","","","","1","stimuli/stim004_animate_fish_4.png","stimuli/stim009_animate_face_1.png","stimuli/tree_lowercase.png","330"
"html-button-response-mod","341","1701671","0.0-341.0","76226","","","","","","triplet","2071","","","","0","stimuli/stim008_animate_bird_4.png","stimuli/stim016_inanimate_boats_4.png","stimuli/tools_lowercase.png","331"
"html-button-response-mod","342","1703962","0.0-342.0","76226","","","","","","triplet","1787.2000000476837","","","","1","stimuli/stim021_inanimate_tools_1.png","stimuli/stim019_inanimate_tree_3.png","stimuli/stim015_inanimate_boats_3.png","332"
"html-button-response-mod","343","1706040","0.0-343.0","76226","","","","","","triplet","1564.7999999523163","","","","0","stimuli/stim010_animate_face_2.png","stimuli/stim020_inanimate_tree_4.png","stimuli/tree_uppercase.png","333"
"html-button-response-mod","344","1709623","0.0-344.0","76226","","","","","","triplet","3077.9000000953674","","","","0","stimuli/tools_uppercase.png","stimuli/stim001_animate_fish_1.png","stimuli/stim009_animate_face_1.png","334"
"html-button-response-mod","345","1711901","0.0-345.0","76226","","","","","","triplet","1774","","","","1","stimuli/stim011_animate_face_3.png","stimuli/bird_uppercase.png","stimuli/stim012_animate_face_4.png","335"
"html-button-response-mod","346","1714245","0.0-346.0","76226","","","","","","triplet","1825.2999999523163","","","","0","stimuli/stim023_inanimate_tools_3.png","stimuli/stim002_animate_fish_2.png","stimuli/stim004_animate_fish_4.png","336"
"html-button-response-mod","347","1744494","0.0-347.0","76226","","","","","","triplet","29735.799999952316","","","","2","stimuli/fish_uppercase.png","stimuli/stim005_animate_bird_1.png","stimuli/stim009_animate_face_1.png","337"
"html-button-response-mod","348","1752407","0.0-348.0","76226","","","","","","triplet","7405","","","","2","stimuli/stim014_inanimate_boats_2.png","stimuli/stim023_inanimate_tools_3.png","stimuli/stim020_inanimate_tree_4.png","338"
"html-button-response-mod","349","1780686","0.0-349.0","76226","","","","","","triplet","27774.900000095367","","","","2","stimuli/boats_lowercase.png","stimuli/stim004_animate_fish_4.png","stimuli/stim020_inanimate_tree_4.png","339"
"html-button-response-mod","350","1783827","0.0-350.0","76226","","","","","","triplet","2624.5","","","","2","stimuli/stim010_animate_face_2.png","stimuli/stim003_animate_fish_3.png","stimuli/tools_uppercase.png","340"
"html-button-response-mod","351","1785725","0.0-351.0","76226","","","","","","triplet","1393.7999999523163","","","","1","stimuli/stim023_inanimate_tools_3.png","stimuli/stim009_animate_face_1.png","stimuli/stim021_inanimate_tools_1.png","341"
"html-button-response-mod","352","1788647","0.0-352.0","76226","","","","","","triplet","2416.800000190735","","","","0","stimuli/tools_lowercase.png","stimuli/stim012_animate_face_4.png","stimuli/face_lowercase.png","342"
"html-button-response-mod","353","1791987","0.0-353.0","76226","","","","","","triplet","2824","","","","1","stimuli/stim004_animate_fish_4.png","stimuli/stim024_inanimate_tools_4.png","stimuli/tree_lowercase.png","343"
"html-button-response-mod","354","1796883","0.0-354.0","76226","","","","","","triplet","4389.799999952316","","","","1","stimuli/boats_uppercase.png","stimuli/stim011_animate_face_3.png","stimuli/stim003_animate_fish_3.png","344"
"html-button-response-mod","355","1800845","0.0-355.0","76226","","","","","","triplet","3458.4000000953674","","","","1","stimuli/bird_uppercase.png","stimuli/tools_lowercase.png","stimuli/stim003_animate_fish_3.png","345"
"html-button-response-mod","356","1803019","0.0-356.0","76226","","","","","","triplet","1669.4000000953674","","","","1","stimuli/fish_lowercase.png","stimuli/stim008_animate_bird_4.png","stimuli/stim002_animate_fish_2.png","346"
"html-button-response-mod","357","1805104","0.0-357.0","76226","","","","","","triplet","1581.6000001430511","","","","0","stimuli/bird_uppercase.png","stimuli/stim006_animate_bird_2.png","stimuli/stim007_animate_bird_3.png","347"
"html-button-response-mod","358","1806889","0.0-358.0","76226","","","","","","triplet","1281.7000000476837","","","","2","stimuli/tree_uppercase.png","stimuli/stim019_inanimate_tree_3.png","stimuli/stim009_animate_face_1.png","348"
"html-button-response-mod","359","1810087","0.0-359.0","76226","","","","","","triplet","2679.899999856949","","","","0","stimuli/bird_lowercase.png","stimuli/boats_lowercase.png","stimuli/stim022_inanimate_tools_2.png","349"
"html-button-response","360","1848257","0.0-360.0","76226","","","","","","break","37667.200000047684","<p>BREAK</p><p>Take a break for as long as you need</p><p>Click the button to continue</p>","0","","","","","",""
"html-button-response-mod","361","1851065","0.0-361.0","76226","","","","","","triplet","2805.800000190735","","","","1","stimuli/stim017_inanimate_tree_1.png","stimuli/stim002_animate_fish_2.png","stimuli/stim005_animate_bird_1.png","350"
"html-button-response-mod","362","1853335","0.0-362.0","76226","","","","","","triplet","1759.9000000953674","","","","0","stimuli/tools_uppercase.png","stimuli/tree_lowercase.png","stimuli/tree_uppercase.png","351"
"html-button-response-mod","363","1871357","0.0-363.0","76226","","","","","","triplet","17517.5","","","","2","stimuli/stim009_animate_face_1.png","stimuli/face_uppercase.png","stimuli/stim020_inanimate_tree_4.png","352"
"html-button-response-mod","364","1874574","0.0-364.0","76226","","","","","","triplet","2713.600000143051","","","","0","stimuli/face_uppercase.png","stimuli/stim008_animate_bird_4.png","stimuli/stim001_animate_fish_1.png","353"
"html-button-response-mod","365","1877854","0.0-365.0","76226","","","","","","triplet","2772.100000143051","","","","2","stimuli/bird_lowercase.png","stimuli/tree_lowercase.png","stimuli/stim002_animate_fish_2.png","354"
"html-button-response-mod","366","1880587","0.0-366.0","76226","","","","","","triplet","2228.2000000476837","","","","1","stimuli/stim015_inanimate_boats_3.png","stimuli/boats_lowercase.png","stimuli/stim013_inanimate_boats_1.png","355"
"html-button-response-mod","367","1883196","0.0-367.0","76226","","","","","","triplet","2106.100000143051","","","","2","stimuli/stim003_animate_fish_3.png","stimuli/stim016_inanimate_boats_4.png","stimuli/face_lowercase.png","356"
"html-button-response-mod","368","1886370","0.0-368.0","76226","","","","","","triplet","2665.2999999523163","","","","0","stimuli/boats_uppercase.png","stimuli/tools_uppercase.png","stimuli/stim022_inanimate_tools_2.png","357"
"html-button-response-mod","369","1888202","0.0-369.0","76226","","","","","","triplet","1318.7000000476837","","","","2","stimuli/stim007_animate_bird_3.png","stimuli/stim006_animate_bird_2.png","stimuli/tree_lowercase.png","358"
"html-button-response-mod","370","1891292","0.0-370.0","76226","","","","","","triplet","2586.199999809265","","","","2","stimuli/stim005_animate_bird_1.png","stimuli/tree_uppercase.png","stimuli/stim021_inanimate_tools_1.png","359"
"html-button-response-mod","371","1893094","0.0-371.0","76226","","","","","","triplet","1297.1000001430511","","","","2","stimuli/stim016_inanimate_boats_4.png","stimuli/stim014_inanimate_boats_2.png","stimuli/stim008_animate_bird_4.png","360"
"html-button-response-mod","372","1896001","0.0-372.0","76226","","","","","","triplet","2395.5","","","","2","stimuli/tree_lowercase.png","stimuli/stim011_animate_face_3.png","stimuli/tools_uppercase.png","361"
"html-button-response-mod","373","1898707","0.0-373.0","76226","","","","","","triplet","2191.600000143051","","","","1","stimuli/stim024_inanimate_tools_4.png","stimuli/stim003_animate_fish_3.png","stimuli/tools_lowercase.png","362"
"html-button-response-mod","374","1901359","0.0-374.0","76226","","","","","","triplet","2134.2000000476837","","","","0","stimuli/stim003_animate_fish_3.png","stimuli/stim006_animate_bird_2.png","stimuli/bird_lowercase.png","363"
"html-button-response-mod","375","1903945","0.0-375.0","76226","","","","","","triplet","2072.5","","","","2","stimuli/stim018_inanimate_tree_2.png","stimuli/face_lowercase.png","stimuli/stim014_inanimate_boats_2.png","364"
"html-button-response-mod","376","1906757","0.0-376.0","76226","","","","","","triplet","2301.7000000476837","","","","1","stimuli/tools_uppercase.png","stimuli/tree_lowercase.png","stimuli/stim015_inanimate_boats_3.png","365"
"html-button-response-mod","377","1917731","0.0-377.0","76226","","","","","","triplet","10469.5","","","","1","stimuli/stim004_animate_fish_4.png","stimuli/tools_uppercase.png","stimuli/fish_lowercase.png","366"
"html-button-response-mod","378","1921268","0.0-378.0","76226","","","","","","triplet","3032.2999999523163","","","","1","stimuli/fish_uppercase.png","stimuli/stim020_inanimate_tree_4.png","stimuli/boats_uppercase.png","367"
"html-button-response-mod","379","1939488","0.0-379.0","76226","","","","","","triplet","17716.599999904633","","","","1","stimuli/fish_uppercase.png","stimuli/stim013_inanimate_boats_1.png","stimuli/stim003_animate_fish_3.png","368"
"html-button-response-mod","380","1941944","0.0-380.0","76226","","","","","","triplet","1947.5","","","","2","stimuli/stim021_inanimate_tools_1.png","stimuli/stim023_inanimate_tools_3.png","stimuli/bird_uppercase.png","369"
"html-button-response-mod","381","1948776","0.0-381.0","76226","","","","","","triplet","6326.200000047684","","","","0","stimuli/bird_lowercase.png","stimuli/stim015_inanimate_boats_3.png","stimuli/stim001_animate_fish_1.png","370"
"html-button-response-mod","382","1950797","0.0-382.0","76226","","","","","","triplet","1510.5999999046326","","","","1","stimuli/stim006_animate_bird_2.png","stimuli/tools_lowercase.png","stimuli/stim015_inanimate_boats_3.png","371"
"html-button-response-mod","383","1954731","0.0-383.0","76226","","","","","","triplet","3427.5999999046326","","","","1","stimuli/stim024_inanimate_tools_4.png","stimuli/stim018_inanimate_tree_2.png","stimuli/stim023_inanimate_tools_3.png","372"
"html-button-response-mod","384","1956854","0.0-384.0","76226","","","","","","triplet","1618.3999998569489","","","","1","stimuli/stim010_animate_face_2.png","stimuli/stim007_animate_bird_3.png","stimuli/stim012_animate_face_4.png","373"
"html-button-response-mod","385","1959470","0.0-385.0","76226","","","","","","triplet","2100","","","","1","stimuli/stim015_inanimate_boats_3.png","stimuli/stim005_animate_bird_1.png","stimuli/fish_lowercase.png","374"
"html-button-response-mod","386","1963190","0.0-386.0","76226","","","","","","triplet","3215.399999856949","","","","1","stimuli/stim024_inanimate_tools_4.png","stimuli/stim019_inanimate_tree_3.png","stimuli/stim023_inanimate_tools_3.png","375"
"html-button-response-mod","387","1965816","0.0-387.0","76226","","","","","","triplet","2121.7999999523163","","","","1","stimuli/stim015_inanimate_boats_3.png","stimuli/stim009_animate_face_1.png","stimuli/stim022_inanimate_tools_2.png","376"
"html-button-response-mod","388","1968018","0.0-388.0","76226","","","","","","triplet","1699.5","","","","2","stimuli/stim010_animate_face_2.png","stimuli/stim012_animate_face_4.png","stimuli/boats_lowercase.png","377"
"html-button-response-mod","389","1980885","0.0-389.0","76226","","","","","","triplet","12355.5","","","","0","stimuli/stim010_animate_face_2.png","stimuli/boats_lowercase.png","stimuli/fish_lowercase.png","378"
"html-button-response-mod","390","1984356","0.0-390.0","76226","","","","","","triplet","2961.2999999523163","","","","0","stimuli/stim023_inanimate_tools_3.png","stimuli/stim018_inanimate_tree_2.png","stimuli/tree_lowercase.png","379"
"html-button-response-mod","391","1986619","0.0-391.0","76226","","","","","","triplet","1743.8000001907349","","","","2","stimuli/stim007_animate_bird_3.png","stimuli/stim001_animate_fish_1.png","stimuli/stim023_inanimate_tools_3.png","380"
"html-button-response-mod","392","1991035","0.0-392.0","76226","","","","","","triplet","3902.5999999046326","","","","1","stimuli/face_lowercase.png","stimuli/boats_lowercase.png","stimuli/stim010_animate_face_2.png","381"
"html-button-response-mod","393","1995101","0.0-393.0","76226","","","","","","triplet","3556.100000143051","","","","1","stimuli/stim011_animate_face_3.png","stimuli/stim014_inanimate_boats_2.png","stimuli/stim006_animate_bird_2.png","382"
"html-button-response-mod","394","1997390","0.0-394.0","76226","","","","","","triplet","1778.7000000476837","","","","0","stimuli/stim016_inanimate_boats_4.png","stimuli/stim006_animate_bird_2.png","stimuli/bird_uppercase.png","383"
"html-button-response-mod","395","2000573","0.0-395.0","76226","","","","","","triplet","2679.399999856949","","","","0","stimuli/stim023_inanimate_tools_3.png","stimuli/stim008_animate_bird_4.png","stimuli/tree_lowercase.png","384"
"html-button-response-mod","396","2008054","0.0-396.0","76226","","","","","","triplet","6963.800000190735","","","","2","stimuli/stim004_animate_fish_4.png","stimuli/bird_lowercase.png","stimuli/stim015_inanimate_boats_3.png","385"
"html-button-response-mod","397","2017166","0.0-397.0","76226","","","","","","triplet","8599.599999904633","","","","2","stimuli/stim023_inanimate_tools_3.png","stimuli/stim014_inanimate_boats_2.png","stimuli/face_uppercase.png","386"
"html-button-response-mod","398","2020392","0.0-398.0","76226","","","","","","triplet","2713.300000190735","","","","2","stimuli/stim016_inanimate_boats_4.png","stimuli/tools_lowercase.png","stimuli/tree_uppercase.png","387"
"html-button-response-mod","399","2022574","0.0-399.0","76226","","","","","","triplet","1672.3999998569489","","","","2","stimuli/stim003_animate_fish_3.png","stimuli/stim012_animate_face_4.png","stimuli/stim013_inanimate_boats_1.png","388"
"html-button-response-mod","400","2024906","0.0-400.0","76226","","","","","","triplet","1826.3999998569489","","","","2","stimuli/face_uppercase.png","stimuli/fish_uppercase.png","stimuli/stim021_inanimate_tools_1.png","389"
"html-button-response-mod","401","2032131","0.0-401.0","76226","","","","","","triplet","6718.599999904633","","","","1","stimuli/bird_uppercase.png","stimuli/tools_lowercase.png","stimuli/stim011_animate_face_3.png","390"
"html-button-response-mod","402","2037483","0.0-402.0","76226","","","","","","triplet","4842.5","","","","2","stimuli/stim018_inanimate_tree_2.png","stimuli/tree_lowercase.png","stimuli/stim012_animate_face_4.png","391"
"html-button-response-mod","403","2049504","0.0-403.0","76226","","","","","","triplet","11518.199999809265","","","","0","stimuli/stim014_inanimate_boats_2.png","stimuli/fish_uppercase.png","stimuli/face_lowercase.png","392"
"html-button-response-mod","404","2051484","0.0-404.0","76226","","","","","","triplet","1472.5999999046326","","","","0","stimuli/stim019_inanimate_tree_3.png","stimuli/fish_lowercase.png","stimuli/stim004_animate_fish_4.png","393"
"html-button-response-mod","405","2053979","0.0-405.0","76226","","","","","","triplet","1981.5","","","","1","stimuli/bird_lowercase.png","stimuli/stim016_inanimate_boats_4.png","stimuli/stim012_animate_face_4.png","394"
"html-button-response-mod","406","2062499","0.0-406.0","76226","","","","","","triplet","8005.299999952316","","","","1","stimuli/boats_lowercase.png","stimuli/tree_uppercase.png","stimuli/stim016_inanimate_boats_4.png","395"
"html-button-response-mod","407","2064345","0.0-407.0","76226","","","","","","triplet","1328.8999998569489","","","","0","stimuli/stim015_inanimate_boats_3.png","stimuli/stim020_inanimate_tree_4.png","stimuli/stim017_inanimate_tree_1.png","396"
"html-button-response-mod","408","2066624","0.0-408.0","76226","","","","","","triplet","1767.1999998092651","","","","0","stimuli/stim024_inanimate_tools_4.png","stimuli/tree_uppercase.png","stimuli/fish_lowercase.png","397"
"html-button-response-mod","409","2068899","0.0-409.0","76226","","","","","","triplet","1767.2000000476837","","","","0","stimuli/fish_uppercase.png","stimuli/stim019_inanimate_tree_3.png","stimuli/bird_lowercase.png","398"
"html-button-response-mod","410","2071854","0.0-410.0","76226","","","","","","triplet","2449.5","","","","0","stimuli/tools_lowercase.png","stimuli/tree_uppercase.png","stimuli/bird_uppercase.png","399"
"html-button-response","411","2074021","0.0-411.0","76226","","","","","","break","1651.7000000476837","<p>BREAK</p><p>Take a break for as long as you need</p><p>Click the button to continue</p>","0","","","","","",""
"survey-text","412","2102417","0.0-412.0","76226","","","","","","data_patterns","28370.599999904633","","{""Q0"":""birds, trees and fish are products of nature and tools and boats are man-made""}","","","","","",""
"survey-text","413","2107527","0.0-413.0","76226","","","","","","age_question","5106.700000047684","","{""Age"":""19""}","","","","","",""
"html-button-response","414","2109477","0.0-414.0","76226","","","","","","gender_question","1948.4000000953674","How would you like your gender to be recorded?","1","","","","","",""
