"trial_type","trial_index","time_elapsed","internal_node_id","subject","success","timeout","failed_images","failed_audio","failed_video","test_part","rt","stimulus","response","end_time","button_pressed","stim0","stim1","stim2","trialnr"
"pavlovia","0","5","0.0-0.0","73395","","","","","","","","","","","","","","",""
"preload","1","1009","0.0-1.0","73395","true","false","[]","[]","[]","preload","","","","","","","","",""
"html-button-response","2","44314","0.0-2.0","73395","","","","","","","43303.40000003576","<p>Welcome to the experiment. To begin, please read the following and press the button at the bottom of the screen.</p><p></p><p><strong>Project Name: A study on cognitive processes involved in visual perception</p></strong><p></p><p><strong>PARTICIPANT INFORMATION STATEMENT</strong></p><p></p><strong>(1) What is the study about?</strong><br>You are invited to participate in a study that investigates the cognitive processes involved in perceiving and recognizing visual stimuli.If you decide to participate, you will be asked to complete a task in which you will view pictures, letters, numbers, or words presented on a computer screen.<br><strong>(2) Who can participate?</strong><br>Anyone aged 18 years or over with access to a computer (not a phone/tablet)<br><strong>(3) Where is the study located?</strong><br>The study will be conducted in your browser<br><strong>(4) Who is carrying out the study?</strong><br>The study is being conducted by Sophia Shatek from the Computational Cognitive Neuroscience laboratory at the University of Sydney.<br><strong>(5) What does the study involve?</strong><br>In this study, you will be asked to perform tasks where you will see different stimuli appear on the computer screen.You will respond by pressing a key or using a computer mouse.<br><strong>(6) How much time will the study take?</strong><br>The study takes about 30 minutes<br><strong>(7)	Can I withdraw from the study?</strong><br>Being in this study is completely voluntary - you are not under any obligation to consent. You can withdraw at any time without having to give a reason and without penalty.<br><strong>(8) Will anyone else know the results?</strong><br>All aspects of the study, including results, will be strictly confidential and only the researchers will have access to information on participants.The results and data from the study may be submitted for publication or shared with other research labs, but individual participants will not be identifiable.<br><strong>(9) Will the study benefit me?</strong><br>You will be awarded 0.5 credits for your participation.<br><strong>(10) Can I tell other people about the study?</strong><br>Yes, please tell them to contact Dr Thomas Carlson by email at thomas.carlson@sydney.edu.au.<br><strong>(11) What if I require further information about the study or my involvement in it?</strong><br>When you have read this information, the investigator will discuss it with you further and answer any questions you may have.If you would like to know more at any stage, please feel free to contact Dr Thomas Carlson directly by email at thomas.carlson@sydney.edu.au.If you would like to be informed about the outcomes of the study, contact Dr Thomas Carlson directly by email at thomas.carlson@sydney.edu.au.<br><strong>(12) What if I have a complaint or any concerns?</strong><br>Any person with concerns or complaints about the conduct of a research study can contact The Manager,Human Ethics Administration, University of Sydney on +61 2 8627 8176 (Telephone); +61 2 8627 8177 (Facsimile) or ro.humanethics@sydney.edu.au (Email).</p><p></p><strong>By participating in this experiment, you consent to participate in this study and acknowledge that:</strong><br>1. The procedures required for the project and the times involved have been explained to me, and any questions I have about the project have been answered to my satisfaction.<br>2.	I have read the Above Information Statement and have been given the opportunity to discuss the information and my involvement in the project with the researcher/s.<br>3. I understand that allowing my data to be used in research reports is completely voluntary - I am not under any obligation to consent.<br>4. I understand that my involvement is strictly confidential. I understand that any research data gathered from the results of the study may be publishedhowever no information about me will be used in any way that is identifiable.</p><p></p>","0","","","","","",""
"html-button-response","3","55496","0.0-3.0","73395","","","","","","opening_instructions","11180.199999988079","<p>In this experiment, you will see three images appear on the screen.</p><p>You need to click the 'odd one out', or the image </p><p>that is MOST CONCEPTUALLY DIFFERENT to the other two. </p><p>(e.g., the word 'tree' and a picture of a tree are conceptually SIMILAR, </p><p> but the word 'tree' and the word 'boat' are conceptually DIFFERENT even though they look similar) </p><p>Just go with your intuition, don't spend too long thinking about each one.</p>","0","59356.19999998808","","","","",""
"html-button-response-mod","4","60113","0.0-4.0","73395","","","","","","triplet","4614.100000023842","","","","1","stimuli/stim008_animate_bird_4.png","stimuli/fish_uppercase.png","stimuli/stim005_animate_bird_1.png","0"
"html-button-response-mod","5","62431","0.0-5.0","73395","","","","","","triplet","1812.6000000238419","","","","2","stimuli/stim012_animate_face_4.png","stimuli/face_lowercase.png","stimuli/tools_lowercase.png","1"
"html-button-response-mod","6","64146","0.0-6.0","73395","","","","","","triplet","1210.7999999523163","","","","2","stimuli/stim003_animate_fish_3.png","stimuli/fish_uppercase.png","stimuli/stim009_animate_face_1.png","2"
"html-button-response-mod","7","65813","0.0-7.0","73395","","","","","","triplet","1160.6000000238419","","","","2","stimuli/stim011_animate_face_3.png","stimuli/stim009_animate_face_1.png","stimuli/stim001_animate_fish_1.png","3"
"html-button-response-mod","8","69329","0.0-8.0","73395","","","","","","triplet","3011.599999964237","","","","2","stimuli/tools_uppercase.png","stimuli/tree_lowercase.png","stimuli/stim013_inanimate_boats_1.png","4"
"html-button-response-mod","9","71962","0.0-9.0","73395","","","","","","triplet","2126.900000035763","","","","0","stimuli/stim020_inanimate_tree_4.png","stimuli/tools_lowercase.png","stimuli/stim014_inanimate_boats_2.png","5"
"html-button-response-mod","10","74413","0.0-10.0","73395","","","","","","triplet","1946.300000011921","","","","0","stimuli/stim020_inanimate_tree_4.png","stimuli/stim014_inanimate_boats_2.png","stimuli/stim009_animate_face_1.png","6"
"html-button-response-mod","11","76362","0.0-11.0","73395","","","","","","triplet","1444.800000011921","","","","2","stimuli/boats_lowercase.png","stimuli/boats_uppercase.png","stimuli/stim005_animate_bird_1.png","7"
"html-button-response-mod","12","79347","0.0-12.0","73395","","","","","","triplet","2480.300000011921","","","","1","stimuli/stim023_inanimate_tools_3.png","stimuli/stim005_animate_bird_1.png","stimuli/tools_lowercase.png","8"
"html-button-response-mod","13","80797","0.0-13.0","73395","","","","","","triplet","944","","","","2","stimuli/face_uppercase.png","stimuli/stim011_animate_face_3.png","stimuli/stim005_animate_bird_1.png","9"
"html-button-response-mod","14","82611","0.0-14.0","73395","","","","","","triplet","1311.300000011921","","","","1","stimuli/stim015_inanimate_boats_3.png","stimuli/stim022_inanimate_tools_2.png","stimuli/stim016_inanimate_boats_4.png","10"
"html-button-response-mod","15","86744","0.0-15.0","73395","","","","","","triplet","3625.399999976158","","","","0","stimuli/stim018_inanimate_tree_2.png","stimuli/stim008_animate_bird_4.png","stimuli/fish_lowercase.png","11"
"html-button-response-mod","16","88546","0.0-16.0","73395","","","","","","triplet","1297.7000000476837","","","","0","stimuli/tree_uppercase.png","stimuli/stim013_inanimate_boats_1.png","stimuli/stim022_inanimate_tools_2.png","12"
"html-button-response-mod","17","91764","0.0-17.0","73395","","","","","","triplet","2712","","","","0","stimuli/face_lowercase.png","stimuli/tools_uppercase.png","stimuli/bird_uppercase.png","13"
"html-button-response-mod","18","93379","0.0-18.0","73395","","","","","","triplet","1110.7999999523163","","","","0","stimuli/face_uppercase.png","stimuli/stim007_animate_bird_3.png","stimuli/stim001_animate_fish_1.png","14"
"html-button-response-mod","19","96063","0.0-19.0","73395","","","","","","triplet","2179.600000023842","","","","1","stimuli/stim011_animate_face_3.png","stimuli/stim020_inanimate_tree_4.png","stimuli/face_lowercase.png","15"
"html-button-response-mod","20","98362","0.0-20.0","73395","","","","","","triplet","1793.300000011921","","","","1","stimuli/stim010_animate_face_2.png","stimuli/stim001_animate_fish_1.png","stimuli/face_lowercase.png","16"
"html-button-response-mod","21","102096","0.0-21.0","73395","","","","","","triplet","3229.400000035763","","","","0","stimuli/bird_lowercase.png","stimuli/stim016_inanimate_boats_4.png","stimuli/stim015_inanimate_boats_3.png","17"
"html-button-response-mod","22","104728","0.0-22.0","73395","","","","","","triplet","2129.100000023842","","","","2","stimuli/face_lowercase.png","stimuli/tools_lowercase.png","stimuli/bird_uppercase.png","18"
"html-button-response-mod","23","106914","0.0-23.0","73395","","","","","","triplet","1678.699999988079","","","","2","stimuli/stim002_animate_fish_2.png","stimuli/stim017_inanimate_tree_1.png","stimuli/tools_lowercase.png","19"
"html-button-response-mod","24","109445","0.0-24.0","73395","","","","","","triplet","2028.5","","","","1","stimuli/stim014_inanimate_boats_2.png","stimuli/tree_uppercase.png","stimuli/stim004_animate_fish_4.png","20"
"html-button-response-mod","25","111597","0.0-25.0","73395","","","","","","triplet","1644.7000000476837","","","","2","stimuli/stim024_inanimate_tools_4.png","stimuli/stim011_animate_face_3.png","stimuli/boats_lowercase.png","21"
"html-button-response-mod","26","114963","0.0-26.0","73395","","","","","","triplet","2862.599999964237","","","","1","stimuli/tree_lowercase.png","stimuli/stim013_inanimate_boats_1.png","stimuli/stim009_animate_face_1.png","22"
"html-button-response-mod","27","117913","0.0-27.0","73395","","","","","","triplet","2445.400000035763","","","","1","stimuli/stim024_inanimate_tools_4.png","stimuli/face_lowercase.png","stimuli/stim004_animate_fish_4.png","23"
"html-button-response-mod","28","119895","0.0-28.0","73395","","","","","","triplet","1476.5","","","","2","stimuli/stim004_animate_fish_4.png","stimuli/stim006_animate_bird_2.png","stimuli/tools_lowercase.png","24"
"html-button-response-mod","29","122962","0.0-29.0","73395","","","","","","triplet","2561.199999988079","","","","2","stimuli/stim009_animate_face_1.png","stimuli/boats_uppercase.png","stimuli/stim018_inanimate_tree_2.png","25"
"html-button-response-mod","30","124913","0.0-30.0","73395","","","","","","triplet","1446.1000000238419","","","","0","stimuli/stim011_animate_face_3.png","stimuli/bird_lowercase.png","stimuli/stim008_animate_bird_4.png","26"
"html-button-response-mod","31","129247","0.0-31.0","73395","","","","","","triplet","3830.7999999523163","","","","1","stimuli/stim021_inanimate_tools_1.png","stimuli/stim011_animate_face_3.png","stimuli/stim016_inanimate_boats_4.png","27"
"html-button-response-mod","32","133712","0.0-32.0","73395","","","","","","triplet","3959.5","","","","1","stimuli/face_uppercase.png","stimuli/stim013_inanimate_boats_1.png","stimuli/stim011_animate_face_3.png","28"
"html-button-response-mod","33","138030","0.0-33.0","73395","","","","","","triplet","3813.300000011921","","","","2","stimuli/fish_lowercase.png","stimuli/face_lowercase.png","stimuli/stim018_inanimate_tree_2.png","29"
"html-button-response-mod","34","139713","0.0-34.0","73395","","","","","","triplet","1176.4000000357628","","","","0","stimuli/fish_lowercase.png","stimuli/stim013_inanimate_boats_1.png","stimuli/stim018_inanimate_tree_2.png","30"
"html-button-response-mod","35","142196","0.0-35.0","73395","","","","","","triplet","1979.1000000238419","","","","0","stimuli/stim019_inanimate_tree_3.png","stimuli/stim004_animate_fish_4.png","stimuli/stim024_inanimate_tools_4.png","31"
"html-button-response-mod","36","145080","0.0-36.0","73395","","","","","","triplet","2378.7999999523163","","","","1","stimuli/stim013_inanimate_boats_1.png","stimuli/fish_lowercase.png","stimuli/tools_lowercase.png","32"
"html-button-response-mod","37","147396","0.0-37.0","73395","","","","","","triplet","1811.9000000357628","","","","1","stimuli/fish_uppercase.png","stimuli/stim016_inanimate_boats_4.png","stimuli/bird_lowercase.png","33"
"html-button-response-mod","38","149347","0.0-38.0","73395","","","","","","triplet","1448","","","","0","stimuli/tree_uppercase.png","stimuli/boats_lowercase.png","stimuli/stim013_inanimate_boats_1.png","34"
"html-button-response-mod","39","152580","0.0-39.0","73395","","","","","","triplet","2728.599999964237","","","","0","stimuli/stim008_animate_bird_4.png","stimuli/stim003_animate_fish_3.png","stimuli/stim001_animate_fish_1.png","35"
"html-button-response-mod","40","158111","0.0-40.0","73395","","","","","","triplet","5029.599999964237","","","","1","stimuli/stim003_animate_fish_3.png","stimuli/stim024_inanimate_tools_4.png","stimuli/fish_lowercase.png","36"
"html-button-response-mod","41","160564","0.0-41.0","73395","","","","","","triplet","1945.199999988079","","","","0","stimuli/tools_uppercase.png","stimuli/stim008_animate_bird_4.png","stimuli/stim007_animate_bird_3.png","37"
"html-button-response-mod","42","163695","0.0-42.0","73395","","","","","","triplet","2625.900000035763","","","","0","stimuli/stim021_inanimate_tools_1.png","stimuli/face_lowercase.png","stimuli/stim001_animate_fish_1.png","38"
"html-button-response-mod","43","168130","0.0-43.0","73395","","","","","","triplet","3931.399999976158","","","","2","stimuli/stim007_animate_bird_3.png","stimuli/stim014_inanimate_boats_2.png","stimuli/stim018_inanimate_tree_2.png","39"
"html-button-response-mod","44","178181","0.0-44.0","73395","","","","","","triplet","9546.699999988079","","","","2","stimuli/stim005_animate_bird_1.png","stimuli/stim003_animate_fish_3.png","stimuli/tree_lowercase.png","40"
"html-button-response-mod","45","179966","0.0-45.0","73395","","","","","","triplet","1282.800000011921","","","","1","stimuli/stim012_animate_face_4.png","stimuli/tools_lowercase.png","stimuli/stim010_animate_face_2.png","41"
"html-button-response-mod","46","182163","0.0-46.0","73395","","","","","","triplet","1691.1000000238419","","","","2","stimuli/tree_uppercase.png","stimuli/stim006_animate_bird_2.png","stimuli/stim023_inanimate_tools_3.png","42"
"html-button-response-mod","47","184697","0.0-47.0","73395","","","","","","triplet","2029.199999988079","","","","2","stimuli/tree_lowercase.png","stimuli/stim008_animate_bird_4.png","stimuli/stim013_inanimate_boats_1.png","43"
"html-button-response-mod","48","186645","0.0-48.0","73395","","","","","","triplet","1442.5","","","","2","stimuli/bird_uppercase.png","stimuli/boats_uppercase.png","stimuli/stim012_animate_face_4.png","44"
"html-button-response-mod","49","188514","0.0-49.0","73395","","","","","","triplet","1366.199999988079","","","","2","stimuli/bird_lowercase.png","stimuli/tree_lowercase.png","stimuli/stim005_animate_bird_1.png","45"
"html-button-response-mod","50","190330","0.0-50.0","73395","","","","","","triplet","1312.7000000476837","","","","1","stimuli/tools_uppercase.png","stimuli/stim018_inanimate_tree_2.png","stimuli/stim023_inanimate_tools_3.png","46"
"html-button-response-mod","51","194612","0.0-51.0","73395","","","","","","triplet","3775.199999988079","","","","1","stimuli/tools_lowercase.png","stimuli/stim024_inanimate_tools_4.png","stimuli/stim008_animate_bird_4.png","47"
"html-button-response-mod","52","196780","0.0-52.0","73395","","","","","","triplet","1661","","","","1","stimuli/stim014_inanimate_boats_2.png","stimuli/tools_uppercase.png","stimuli/boats_lowercase.png","48"
"html-button-response-mod","53","199996","0.0-53.0","73395","","","","","","triplet","2712.300000011921","","","","0","stimuli/stim014_inanimate_boats_2.png","stimuli/stim001_animate_fish_1.png","stimuli/stim004_animate_fish_4.png","49"
"html-button-response","54","209463","0.0-54.0","73395","","","","","","break","8964","<p>BREAK</p><p>Take a break for as long as you need</p><p>Click the button to continue</p>","0","","","","","",""
"html-button-response-mod","55","212114","0.0-55.0","73395","","","","","","triplet","2648.7999999523163","","","","0","stimuli/fish_uppercase.png","stimuli/stim017_inanimate_tree_1.png","stimuli/stim020_inanimate_tree_4.png","50"
"html-button-response-mod","56","214162","0.0-56.0","73395","","","","","","triplet","1541.699999988079","","","","0","stimuli/bird_lowercase.png","stimuli/stim012_animate_face_4.png","stimuli/stim009_animate_face_1.png","51"
"html-button-response-mod","57","216030","0.0-57.0","73395","","","","","","triplet","1360.4000000357628","","","","0","stimuli/stim021_inanimate_tools_1.png","stimuli/stim018_inanimate_tree_2.png","stimuli/tree_lowercase.png","52"
"html-button-response-mod","58","220198","0.0-58.0","73395","","","","","","triplet","3664.599999964237","","","","1","stimuli/tools_uppercase.png","stimuli/stim008_animate_bird_4.png","stimuli/stim023_inanimate_tools_3.png","53"
"html-button-response-mod","59","223147","0.0-59.0","73395","","","","","","triplet","2445.100000023842","","","","0","stimuli/stim019_inanimate_tree_3.png","stimuli/stim008_animate_bird_4.png","stimuli/stim002_animate_fish_2.png","54"
"html-button-response-mod","60","227513","0.0-60.0","73395","","","","","","triplet","3859.900000035763","","","","0","stimuli/stim011_animate_face_3.png","stimuli/stim005_animate_bird_1.png","stimuli/stim007_animate_bird_3.png","55"
"html-button-response-mod","61","229399","0.0-61.0","73395","","","","","","triplet","1377.800000011921","","","","2","stimuli/stim010_animate_face_2.png","stimuli/stim016_inanimate_boats_4.png","stimuli/stim024_inanimate_tools_4.png","56"
"html-button-response-mod","62","232296","0.0-62.0","73395","","","","","","triplet","2392","","","","1","stimuli/stim024_inanimate_tools_4.png","stimuli/stim020_inanimate_tree_4.png","stimuli/stim016_inanimate_boats_4.png","57"
"html-button-response-mod","63","234714","0.0-63.0","73395","","","","","","triplet","1910.800000011921","","","","0","stimuli/stim008_animate_bird_4.png","stimuli/stim014_inanimate_boats_2.png","stimuli/stim013_inanimate_boats_1.png","58"
"html-button-response-mod","64","236946","0.0-64.0","73395","","","","","","triplet","1725.5","","","","2","stimuli/stim013_inanimate_boats_1.png","stimuli/stim009_animate_face_1.png","stimuli/tree_uppercase.png","59"
"html-button-response-mod","65","239946","0.0-65.0","73395","","","","","","triplet","2492.800000011921","","","","2","stimuli/stim004_animate_fish_4.png","stimuli/stim013_inanimate_boats_1.png","stimuli/stim019_inanimate_tree_3.png","60"
"html-button-response-mod","66","241996","0.0-66.0","73395","","","","","","triplet","1545.5","","","","0","stimuli/stim017_inanimate_tree_1.png","stimuli/boats_uppercase.png","stimuli/bird_uppercase.png","61"
"html-button-response-mod","67","244414","0.0-67.0","73395","","","","","","triplet","1911.4000000357628","","","","0","stimuli/tools_uppercase.png","stimuli/stim013_inanimate_boats_1.png","stimuli/stim018_inanimate_tree_2.png","62"
"html-button-response-mod","68","246363","0.0-68.0","73395","","","","","","triplet","1442.8999999761581","","","","2","stimuli/stim013_inanimate_boats_1.png","stimuli/stim015_inanimate_boats_3.png","stimuli/boats_uppercase.png","63"
"html-button-response-mod","69","248312","0.0-69.0","73395","","","","","","triplet","1441.4000000357628","","","","2","stimuli/face_uppercase.png","stimuli/stim009_animate_face_1.png","stimuli/stim019_inanimate_tree_3.png","64"
"html-button-response-mod","70","251466","0.0-70.0","73395","","","","","","triplet","2645.7000000476837","","","","0","stimuli/stim001_animate_fish_1.png","stimuli/face_lowercase.png","stimuli/boats_uppercase.png","65"
"html-button-response-mod","71","253646","0.0-71.0","73395","","","","","","triplet","1677.300000011921","","","","1","stimuli/stim002_animate_fish_2.png","stimuli/stim010_animate_face_2.png","stimuli/stim005_animate_bird_1.png","66"
"html-button-response-mod","72","256281","0.0-72.0","73395","","","","","","triplet","2127.699999988079","","","","1","stimuli/stim023_inanimate_tools_3.png","stimuli/tree_uppercase.png","stimuli/stim001_animate_fish_1.png","67"
"html-button-response-mod","73","258813","0.0-73.0","73395","","","","","","triplet","2028.3999999761581","","","","1","stimuli/tree_uppercase.png","stimuli/stim011_animate_face_3.png","stimuli/stim010_animate_face_2.png","68"
"html-button-response-mod","74","261131","0.0-74.0","73395","","","","","","triplet","1810.5","","","","2","stimuli/stim009_animate_face_1.png","stimuli/stim007_animate_bird_3.png","stimuli/stim022_inanimate_tools_2.png","69"
"html-button-response-mod","75","263131","0.0-75.0","73395","","","","","","triplet","1493.0999999642372","","","","0","stimuli/stim011_animate_face_3.png","stimuli/stim003_animate_fish_3.png","stimuli/stim018_inanimate_tree_2.png","70"
"html-button-response-mod","76","264648","0.0-76.0","73395","","","","","","triplet","1013.2000000476837","","","","2","stimuli/stim022_inanimate_tools_2.png","stimuli/stim009_animate_face_1.png","stimuli/bird_uppercase.png","71"
"html-button-response-mod","77","266279","0.0-77.0","73395","","","","","","triplet","1125.5999999642372","","","","1","stimuli/stim023_inanimate_tools_3.png","stimuli/fish_uppercase.png","stimuli/stim020_inanimate_tree_4.png","72"
"html-button-response-mod","78","267699","0.0-78.0","73395","","","","","","triplet","915.8000000119209","","","","2","stimuli/stim007_animate_bird_3.png","stimuli/stim006_animate_bird_2.png","stimuli/tools_uppercase.png","73"
"html-button-response-mod","79","270732","0.0-79.0","73395","","","","","","triplet","2529.399999976158","","","","0","stimuli/tree_uppercase.png","stimuli/fish_uppercase.png","stimuli/bird_lowercase.png","74"
"html-button-response-mod","80","273481","0.0-80.0","73395","","","","","","triplet","2243.899999976158","","","","0","stimuli/stim023_inanimate_tools_3.png","stimuli/stim012_animate_face_4.png","stimuli/stim008_animate_bird_4.png","75"
"html-button-response-mod","81","275282","0.0-81.0","73395","","","","","","triplet","1294","","","","2","stimuli/stim003_animate_fish_3.png","stimuli/stim004_animate_fish_4.png","stimuli/stim008_animate_bird_4.png","76"
"html-button-response-mod","82","277065","0.0-82.0","73395","","","","","","triplet","1277.2000000476837","","","","1","stimuli/stim018_inanimate_tree_2.png","stimuli/fish_uppercase.png","stimuli/stim007_animate_bird_3.png","77"
"html-button-response-mod","83","278931","0.0-83.0","73395","","","","","","triplet","1360.9000000357628","","","","2","stimuli/fish_lowercase.png","stimuli/bird_uppercase.png","stimuli/stim021_inanimate_tools_1.png","78"
"html-button-response-mod","84","281050","0.0-84.0","73395","","","","","","triplet","1611.199999988079","","","","2","stimuli/tree_lowercase.png","stimuli/stim007_animate_bird_3.png","stimuli/boats_uppercase.png","79"
"html-button-response-mod","85","282897","0.0-85.0","73395","","","","","","triplet","1343.5","","","","1","stimuli/stim014_inanimate_boats_2.png","stimuli/tools_lowercase.png","stimuli/boats_lowercase.png","80"
"html-button-response-mod","86","284614","0.0-86.0","73395","","","","","","triplet","1210.4000000357628","","","","0","stimuli/stim017_inanimate_tree_1.png","stimuli/stim011_animate_face_3.png","stimuli/stim012_animate_face_4.png","81"
"html-button-response-mod","87","286249","0.0-87.0","73395","","","","","","triplet","1130.300000011921","","","","2","stimuli/stim009_animate_face_1.png","stimuli/stim006_animate_bird_2.png","stimuli/tools_lowercase.png","82"
"html-button-response-mod","88","291365","0.0-88.0","73395","","","","","","triplet","4610.800000011921","","","","2","stimuli/stim009_animate_face_1.png","stimuli/stim001_animate_fish_1.png","stimuli/stim016_inanimate_boats_4.png","83"
"html-button-response-mod","89","295182","0.0-89.0","73395","","","","","","triplet","3311.800000011921","","","","0","stimuli/tools_uppercase.png","stimuli/stim019_inanimate_tree_3.png","stimuli/stim007_animate_bird_3.png","84"
"html-button-response-mod","90","296813","0.0-90.0","73395","","","","","","triplet","1126.8999999761581","","","","1","stimuli/stim012_animate_face_4.png","stimuli/stim024_inanimate_tools_4.png","stimuli/stim016_inanimate_boats_4.png","85"
"html-button-response-mod","91","299265","0.0-91.0","73395","","","","","","triplet","1944.800000011921","","","","2","stimuli/bird_lowercase.png","stimuli/fish_uppercase.png","stimuli/stim013_inanimate_boats_1.png","86"
"html-button-response-mod","92","301330","0.0-92.0","73395","","","","","","triplet","1561.699999988079","","","","0","stimuli/fish_lowercase.png","stimuli/stim024_inanimate_tools_4.png","stimuli/stim021_inanimate_tools_1.png","87"
"html-button-response-mod","93","303315","0.0-93.0","73395","","","","","","triplet","1477.699999988079","","","","0","stimuli/stim004_animate_fish_4.png","stimuli/fish_lowercase.png","stimuli/tools_uppercase.png","88"
"html-button-response-mod","94","305082","0.0-94.0","73395","","","","","","triplet","1262.2999999523163","","","","0","stimuli/stim014_inanimate_boats_2.png","stimuli/boats_lowercase.png","stimuli/stim011_animate_face_3.png","89"
"html-button-response-mod","95","307347","0.0-95.0","73395","","","","","","triplet","1757.5","","","","1","stimuli/stim002_animate_fish_2.png","stimuli/stim009_animate_face_1.png","stimuli/stim005_animate_bird_1.png","90"
"html-button-response-mod","96","309615","0.0-96.0","73395","","","","","","triplet","1761.300000011921","","","","0","stimuli/boats_uppercase.png","stimuli/stim021_inanimate_tools_1.png","stimuli/stim004_animate_fish_4.png","91"
"html-button-response-mod","97","312064","0.0-97.0","73395","","","","","","triplet","1943.699999988079","","","","1","stimuli/tree_lowercase.png","stimuli/bird_uppercase.png","stimuli/tree_uppercase.png","92"
"html-button-response-mod","98","314358","0.0-98.0","73395","","","","","","triplet","1711","","","","0","stimuli/tree_uppercase.png","stimuli/bird_uppercase.png","stimuli/stim008_animate_bird_4.png","93"
"html-button-response-mod","99","316874","0.0-99.0","73395","","","","","","triplet","2013.5","","","","0","stimuli/tree_lowercase.png","stimuli/stim006_animate_bird_2.png","stimuli/stim003_animate_fish_3.png","94"
"html-button-response-mod","100","318876","0.0-100.0","73395","","","","","","triplet","1494.199999988079","","","","0","stimuli/tree_lowercase.png","stimuli/stim015_inanimate_boats_3.png","stimuli/tools_lowercase.png","95"
"html-button-response-mod","101","320908","0.0-101.0","73395","","","","","","triplet","1528.199999988079","","","","2","stimuli/stim013_inanimate_boats_1.png","stimuli/stim024_inanimate_tools_4.png","stimuli/bird_lowercase.png","96"
"html-button-response-mod","102","322358","0.0-102.0","73395","","","","","","triplet","946.7000000476837","","","","2","stimuli/stim010_animate_face_2.png","stimuli/stim009_animate_face_1.png","stimuli/boats_uppercase.png","97"
"html-button-response-mod","103","324023","0.0-103.0","73395","","","","","","triplet","1161.800000011921","","","","0","stimuli/tree_uppercase.png","stimuli/stim015_inanimate_boats_3.png","stimuli/stim008_animate_bird_4.png","98"
"html-button-response-mod","104","325509","0.0-104.0","73395","","","","","","triplet","984","","","","2","stimuli/stim015_inanimate_boats_3.png","stimuli/stim012_animate_face_4.png","stimuli/face_lowercase.png","99"
"html-button-response","105","981159","0.0-105.0","73395","","","","","","break","655134.8999999762","<p>BREAK</p><p>Take a break for as long as you need</p><p>Click the button to continue</p>","0","","","","","",""
"html-button-response-mod","106","983077","0.0-106.0","73395","","","","","","triplet","1915.6000000238419","","","","0","stimuli/tools_lowercase.png","stimuli/stim011_animate_face_3.png","stimuli/stim020_inanimate_tree_4.png","100"
"html-button-response-mod","107","985561","0.0-107.0","73395","","","","","","triplet","1980.5","","","","0","stimuli/tree_lowercase.png","stimuli/stim015_inanimate_boats_3.png","stimuli/stim004_animate_fish_4.png","101"
"html-button-response-mod","108","989175","0.0-108.0","73395","","","","","","triplet","3109.5","","","","1","stimuli/stim020_inanimate_tree_4.png","stimuli/stim012_animate_face_4.png","stimuli/tree_lowercase.png","102"
"html-button-response-mod","109","991210","0.0-109.0","73395","","","","","","triplet","1529.699999988079","","","","1","stimuli/stim013_inanimate_boats_1.png","stimuli/face_uppercase.png","stimuli/stim021_inanimate_tools_1.png","103"
"html-button-response-mod","110","993193","0.0-110.0","73395","","","","","","triplet","1476.5","","","","0","stimuli/stim014_inanimate_boats_2.png","stimuli/stim006_animate_bird_2.png","stimuli/stim020_inanimate_tree_4.png","104"
"html-button-response-mod","111","995477","0.0-111.0","73395","","","","","","triplet","1781","","","","0","stimuli/stim016_inanimate_boats_4.png","stimuli/stim017_inanimate_tree_1.png","stimuli/stim004_animate_fish_4.png","105"
"html-button-response-mod","112","997427","0.0-112.0","73395","","","","","","triplet","1445.6000000238419","","","","0","stimuli/stim011_animate_face_3.png","stimuli/stim015_inanimate_boats_3.png","stimuli/stim003_animate_fish_3.png","106"
"html-button-response-mod","113","999760","0.0-113.0","73395","","","","","","triplet","1827.199999988079","","","","0","stimuli/stim022_inanimate_tools_2.png","stimuli/stim012_animate_face_4.png","stimuli/stim007_animate_bird_3.png","107"
"html-button-response-mod","114","1002244","0.0-114.0","73395","","","","","","triplet","1978.5","","","","1","stimuli/stim011_animate_face_3.png","stimuli/tools_lowercase.png","stimuli/stim017_inanimate_tree_1.png","108"
"html-button-response-mod","115","1004443","0.0-115.0","73395","","","","","","triplet","1694.4000000357628","","","","0","stimuli/stim009_animate_face_1.png","stimuli/stim021_inanimate_tools_1.png","stimuli/stim024_inanimate_tools_4.png","109"
"html-button-response-mod","116","1006427","0.0-116.0","73395","","","","","","triplet","1477.300000011921","","","","1","stimuli/tools_uppercase.png","stimuli/stim008_animate_bird_4.png","stimuli/stim014_inanimate_boats_2.png","110"
"html-button-response-mod","117","1008129","0.0-117.0","73395","","","","","","triplet","1197.800000011921","","","","0","stimuli/stim021_inanimate_tools_1.png","stimuli/stim006_animate_bird_2.png","stimuli/fish_uppercase.png","111"
"html-button-response-mod","118","1009961","0.0-118.0","73395","","","","","","triplet","1328.3999999761581","","","","0","stimuli/stim019_inanimate_tree_3.png","stimuli/stim016_inanimate_boats_4.png","stimuli/stim024_inanimate_tools_4.png","112"
"html-button-response-mod","119","1012310","0.0-119.0","73395","","","","","","triplet","1843.3999999761581","","","","2","stimuli/stim012_animate_face_4.png","stimuli/face_lowercase.png","stimuli/boats_lowercase.png","113"
"html-button-response-mod","120","1013910","0.0-120.0","73395","","","","","","triplet","1093.2000000476837","","","","2","stimuli/stim007_animate_bird_3.png","stimuli/stim005_animate_bird_1.png","stimuli/stim003_animate_fish_3.png","114"
"html-button-response-mod","121","1016044","0.0-121.0","73395","","","","","","triplet","1627.1000000238419","","","","2","stimuli/stim009_animate_face_1.png","stimuli/tools_lowercase.png","stimuli/tree_lowercase.png","115"
"html-button-response-mod","122","1017710","0.0-122.0","73395","","","","","","triplet","1159.5","","","","1","stimuli/stim018_inanimate_tree_2.png","stimuli/fish_lowercase.png","stimuli/stim020_inanimate_tree_4.png","116"
"html-button-response-mod","123","1019177","0.0-123.0","73395","","","","","","triplet","959.1999999880791","","","","1","stimuli/stim020_inanimate_tree_4.png","stimuli/stim021_inanimate_tools_1.png","stimuli/stim017_inanimate_tree_1.png","117"
"html-button-response-mod","124","1020827","0.0-124.0","73395","","","","","","triplet","1143.300000011921","","","","1","stimuli/stim015_inanimate_boats_3.png","stimuli/face_uppercase.png","stimuli/stim023_inanimate_tools_3.png","118"
"html-button-response-mod","125","1022862","0.0-125.0","73395","","","","","","triplet","1531.8999999761581","","","","1","stimuli/stim002_animate_fish_2.png","stimuli/bird_lowercase.png","stimuli/stim024_inanimate_tools_4.png","119"
"html-button-response-mod","126","1024661","0.0-126.0","73395","","","","","","triplet","1294.300000011921","","","","1","stimuli/bird_uppercase.png","stimuli/stim024_inanimate_tools_4.png","stimuli/boats_uppercase.png","120"
"html-button-response-mod","127","1026462","0.0-127.0","73395","","","","","","triplet","1295.5","","","","1","stimuli/stim018_inanimate_tree_2.png","stimuli/boats_uppercase.png","stimuli/stim010_animate_face_2.png","121"
"html-button-response-mod","128","1028228","0.0-128.0","73395","","","","","","triplet","1262.199999988079","","","","0","stimuli/fish_uppercase.png","stimuli/stim022_inanimate_tools_2.png","stimuli/stim011_animate_face_3.png","122"
"html-button-response-mod","129","1029744","0.0-129.0","73395","","","","","","triplet","1010.3999999761581","","","","0","stimuli/stim013_inanimate_boats_1.png","stimuli/stim002_animate_fish_2.png","stimuli/fish_lowercase.png","123"
"html-button-response-mod","130","1031730","0.0-130.0","73395","","","","","","triplet","1481.9000000357628","","","","0","stimuli/stim021_inanimate_tools_1.png","stimuli/stim004_animate_fish_4.png","stimuli/stim014_inanimate_boats_2.png","124"
"html-button-response-mod","131","1033860","0.0-131.0","73395","","","","","","triplet","1625.5","","","","1","stimuli/stim001_animate_fish_1.png","stimuli/stim023_inanimate_tools_3.png","stimuli/stim010_animate_face_2.png","125"
"html-button-response-mod","132","1035579","0.0-132.0","73395","","","","","","triplet","1211.5","","","","2","stimuli/stim014_inanimate_boats_2.png","stimuli/stim016_inanimate_boats_4.png","stimuli/stim005_animate_bird_1.png","126"
"html-button-response-mod","133","1038129","0.0-133.0","73395","","","","","","triplet","2046.3999999761581","","","","2","stimuli/stim014_inanimate_boats_2.png","stimuli/stim013_inanimate_boats_1.png","stimuli/stim019_inanimate_tree_3.png","127"
"html-button-response-mod","134","1040696","0.0-134.0","73395","","","","","","triplet","2061.800000011921","","","","2","stimuli/fish_uppercase.png","stimuli/bird_uppercase.png","stimuli/stim023_inanimate_tools_3.png","128"
"html-button-response-mod","135","1042794","0.0-135.0","73395","","","","","","triplet","1589.6000000238419","","","","1","stimuli/boats_lowercase.png","stimuli/stim008_animate_bird_4.png","stimuli/face_uppercase.png","129"
"html-button-response-mod","136","1045711","0.0-136.0","73395","","","","","","triplet","2408.699999988079","","","","2","stimuli/stim014_inanimate_boats_2.png","stimuli/tools_lowercase.png","stimuli/stim017_inanimate_tree_1.png","130"
"html-button-response-mod","137","1049828","0.0-137.0","73395","","","","","","triplet","3612","","","","0","stimuli/stim022_inanimate_tools_2.png","stimuli/stim012_animate_face_4.png","stimuli/stim004_animate_fish_4.png","131"
"html-button-response-mod","138","1052427","0.0-138.0","73395","","","","","","triplet","2091","","","","2","stimuli/stim006_animate_bird_2.png","stimuli/tree_uppercase.png","stimuli/tools_uppercase.png","132"
"html-button-response-mod","139","1054912","0.0-139.0","73395","","","","","","triplet","1977.5","","","","0","stimuli/bird_lowercase.png","stimuli/stim011_animate_face_3.png","stimuli/stim009_animate_face_1.png","133"
"html-button-response-mod","140","1057145","0.0-140.0","73395","","","","","","triplet","1728.800000011921","","","","1","stimuli/bird_uppercase.png","stimuli/stim019_inanimate_tree_3.png","stimuli/stim013_inanimate_boats_1.png","134"
"html-button-response-mod","141","1059162","0.0-141.0","73395","","","","","","triplet","1509.5","","","","1","stimuli/tools_uppercase.png","stimuli/stim018_inanimate_tree_2.png","stimuli/tools_lowercase.png","135"
"html-button-response-mod","142","1060996","0.0-142.0","73395","","","","","","triplet","1329.5","","","","1","stimuli/stim007_animate_bird_3.png","stimuli/stim009_animate_face_1.png","stimuli/stim005_animate_bird_1.png","136"
"html-button-response-mod","143","1063529","0.0-143.0","73395","","","","","","triplet","2026.199999988079","","","","2","stimuli/stim019_inanimate_tree_3.png","stimuli/tools_lowercase.png","stimuli/boats_uppercase.png","137"
"html-button-response-mod","144","1065944","0.0-144.0","73395","","","","","","triplet","1907.800000011921","","","","1","stimuli/stim017_inanimate_tree_1.png","stimuli/tree_uppercase.png","stimuli/fish_lowercase.png","138"
"html-button-response-mod","145","1068230","0.0-145.0","73395","","","","","","triplet","1778.6000000238419","","","","1","stimuli/bird_uppercase.png","stimuli/stim011_animate_face_3.png","stimuli/stim022_inanimate_tools_2.png","139"
"html-button-response-mod","146","1070113","0.0-146.0","73395","","","","","","triplet","1376.300000011921","","","","0","stimuli/face_uppercase.png","stimuli/stim003_animate_fish_3.png","stimuli/stim016_inanimate_boats_4.png","140"
"html-button-response-mod","147","1071547","0.0-147.0","73395","","","","","","triplet","929.1000000238419","","","","0","stimuli/face_lowercase.png","stimuli/stim017_inanimate_tree_1.png","stimuli/stim013_inanimate_boats_1.png","141"
"html-button-response-mod","148","1073629","0.0-148.0","73395","","","","","","triplet","1575.4000000357628","","","","0","stimuli/stim005_animate_bird_1.png","stimuli/stim024_inanimate_tools_4.png","stimuli/stim023_inanimate_tools_3.png","142"
"html-button-response-mod","149","1075278","0.0-149.0","73395","","","","","","triplet","1141.4000000357628","","","","1","stimuli/face_lowercase.png","stimuli/tools_lowercase.png","stimuli/stim010_animate_face_2.png","143"
"html-button-response-mod","150","1077363","0.0-150.0","73395","","","","","","triplet","1575.8999999761581","","","","0","stimuli/boats_uppercase.png","stimuli/stim006_animate_bird_2.png","stimuli/fish_lowercase.png","144"
"html-button-response-mod","151","1079148","0.0-151.0","73395","","","","","","triplet","1279.8999999761581","","","","1","stimuli/fish_uppercase.png","stimuli/stim016_inanimate_boats_4.png","stimuli/fish_lowercase.png","145"
"html-button-response-mod","152","1081345","0.0-152.0","73395","","","","","","triplet","1688.699999988079","","","","1","stimuli/stim014_inanimate_boats_2.png","stimuli/stim021_inanimate_tools_1.png","stimuli/tree_uppercase.png","146"
"html-button-response-mod","153","1083213","0.0-153.0","73395","","","","","","triplet","1362.0999999642372","","","","1","stimuli/tools_uppercase.png","stimuli/stim001_animate_fish_1.png","stimuli/face_uppercase.png","147"
"html-button-response-mod","154","1085113","0.0-154.0","73395","","","","","","triplet","1393.699999988079","","","","0","stimuli/stim015_inanimate_boats_3.png","stimuli/stim012_animate_face_4.png","stimuli/face_uppercase.png","148"
"html-button-response-mod","155","1088497","0.0-155.0","73395","","","","","","triplet","2877.900000035763","","","","0","stimuli/stim018_inanimate_tree_2.png","stimuli/stim005_animate_bird_1.png","stimuli/stim010_animate_face_2.png","149"
"html-button-response","156","3574545","0.0-156.0","73395","","","","","","break","2485503.399999976","<p>BREAK</p><p>Take a break for as long as you need</p><p>Click the button to continue</p>","0","","","","","",""
"html-button-response-mod","157","3577227","0.0-157.0","73395","","","","","","triplet","2679.5","","","","1","stimuli/stim023_inanimate_tools_3.png","stimuli/fish_lowercase.png","stimuli/tools_uppercase.png","150"
"html-button-response-mod","158","3579244","0.0-158.0","73395","","","","","","triplet","1509.8999999761581","","","","2","stimuli/stim020_inanimate_tree_4.png","stimuli/stim002_animate_fish_2.png","stimuli/boats_uppercase.png","151"
"html-button-response-mod","159","3582678","0.0-159.0","73395","","","","","","triplet","2929.5","","","","1","stimuli/stim017_inanimate_tree_1.png","stimuli/tree_uppercase.png","stimuli/stim018_inanimate_tree_2.png","152"
"html-button-response-mod","160","3585094","0.0-160.0","73395","","","","","","triplet","1912.199999988079","","","","2","stimuli/bird_uppercase.png","stimuli/stim001_animate_fish_1.png","stimuli/stim010_animate_face_2.png","153"
"html-button-response-mod","161","3587594","0.0-161.0","73395","","","","","","triplet","1994.800000011921","","","","0","stimuli/stim022_inanimate_tools_2.png","stimuli/bird_lowercase.png","stimuli/face_uppercase.png","154"
"html-button-response-mod","162","3589496","0.0-162.0","73395","","","","","","triplet","1395.8999999761581","","","","0","stimuli/boats_lowercase.png","stimuli/stim002_animate_fish_2.png","stimuli/face_lowercase.png","155"
"html-button-response-mod","163","3591411","0.0-163.0","73395","","","","","","triplet","1410.800000011921","","","","2","stimuli/stim012_animate_face_4.png","stimuli/face_lowercase.png","stimuli/stim005_animate_bird_1.png","156"
"html-button-response-mod","164","3594561","0.0-164.0","73395","","","","","","triplet","2641.699999988079","","","","1","stimuli/bird_lowercase.png","stimuli/stim001_animate_fish_1.png","stimuli/stim008_animate_bird_4.png","157"
"html-button-response-mod","165","3596678","0.0-165.0","73395","","","","","","triplet","1608.6000000238419","","","","2","stimuli/stim001_animate_fish_1.png","stimuli/stim004_animate_fish_4.png","stimuli/stim016_inanimate_boats_4.png","158"
"html-button-response-mod","166","3599962","0.0-166.0","73395","","","","","","triplet","2775.699999988079","","","","2","stimuli/tools_uppercase.png","stimuli/stim016_inanimate_boats_4.png","stimuli/stim001_animate_fish_1.png","159"
"html-button-response-mod","167","3601562","0.0-167.0","73395","","","","","","triplet","1092.2000000476837","","","","2","stimuli/stim016_inanimate_boats_4.png","stimuli/face_uppercase.png","stimuli/stim022_inanimate_tools_2.png","160"
"html-button-response-mod","168","3603546","0.0-168.0","73395","","","","","","triplet","1481","","","","2","stimuli/stim018_inanimate_tree_2.png","stimuli/stim019_inanimate_tree_3.png","stimuli/stim023_inanimate_tools_3.png","161"
"html-button-response-mod","169","3605979","0.0-169.0","73395","","","","","","triplet","1924.8999999761581","","","","1","stimuli/stim014_inanimate_boats_2.png","stimuli/tree_lowercase.png","stimuli/stim006_animate_bird_2.png","162"
"html-button-response-mod","170","3607845","0.0-170.0","73395","","","","","","triplet","1357.8999999761581","","","","0","stimuli/stim015_inanimate_boats_3.png","stimuli/stim003_animate_fish_3.png","stimuli/stim021_inanimate_tools_1.png","163"
"html-button-response-mod","171","3609512","0.0-171.0","73395","","","","","","triplet","1160.199999988079","","","","0","stimuli/fish_uppercase.png","stimuli/stim019_inanimate_tree_3.png","stimuli/stim018_inanimate_tree_2.png","164"
"html-button-response-mod","172","3611412","0.0-172.0","73395","","","","","","triplet","1393.1000000238419","","","","2","stimuli/tools_lowercase.png","stimuli/stim023_inanimate_tools_3.png","stimuli/face_uppercase.png","165"
"html-button-response-mod","173","3614261","0.0-173.0","73395","","","","","","triplet","2345.400000035763","","","","1","stimuli/stim011_animate_face_3.png","stimuli/stim006_animate_bird_2.png","stimuli/stim012_animate_face_4.png","166"
"html-button-response-mod","174","3615945","0.0-174.0","73395","","","","","","triplet","1181","","","","0","stimuli/fish_lowercase.png","stimuli/stim017_inanimate_tree_1.png","stimuli/stim009_animate_face_1.png","167"
"html-button-response-mod","175","3617629","0.0-175.0","73395","","","","","","triplet","1177.300000011921","","","","1","stimuli/stim004_animate_fish_4.png","stimuli/face_lowercase.png","stimuli/stim016_inanimate_boats_4.png","168"
"html-button-response-mod","176","3619979","0.0-176.0","73395","","","","","","triplet","1844","","","","2","stimuli/stim009_animate_face_1.png","stimuli/fish_uppercase.png","stimuli/tree_uppercase.png","169"
"html-button-response-mod","177","3623045","0.0-177.0","73395","","","","","","triplet","2557.5","","","","0","stimuli/face_lowercase.png","stimuli/boats_lowercase.png","stimuli/stim001_animate_fish_1.png","170"
"html-button-response-mod","178","3625279","0.0-178.0","73395","","","","","","triplet","1730.3999999761581","","","","1","stimuli/stim001_animate_fish_1.png","stimuli/stim017_inanimate_tree_1.png","stimuli/stim003_animate_fish_3.png","171"
"html-button-response-mod","179","3627229","0.0-179.0","73395","","","","","","triplet","1441","","","","1","stimuli/stim009_animate_face_1.png","stimuli/tools_uppercase.png","stimuli/stim005_animate_bird_1.png","172"
"html-button-response-mod","180","3629096","0.0-180.0","73395","","","","","","triplet","1360.800000011921","","","","0","stimuli/stim010_animate_face_2.png","stimuli/stim008_animate_bird_4.png","stimuli/stim003_animate_fish_3.png","173"
"html-button-response-mod","181","3633797","0.0-181.0","73395","","","","","","triplet","4196.199999988079","","","","0","stimuli/stim021_inanimate_tools_1.png","stimuli/tree_lowercase.png","stimuli/face_lowercase.png","174"
"html-button-response-mod","182","3636128","0.0-182.0","73395","","","","","","triplet","1823.199999988079","","","","1","stimuli/stim005_animate_bird_1.png","stimuli/stim022_inanimate_tools_2.png","stimuli/boats_lowercase.png","175"
"html-button-response-mod","183","3639082","0.0-183.0","73395","","","","","","triplet","2445.899999976158","","","","0","stimuli/stim021_inanimate_tools_1.png","stimuli/stim008_animate_bird_4.png","stimuli/tree_uppercase.png","176"
"html-button-response-mod","184","3643496","0.0-184.0","73395","","","","","","triplet","3909.199999988079","","","","2","stimuli/stim005_animate_bird_1.png","stimuli/fish_lowercase.png","stimuli/stim024_inanimate_tools_4.png","177"
"html-button-response-mod","185","3645714","0.0-185.0","73395","","","","","","triplet","1712.1000000238419","","","","2","stimuli/stim024_inanimate_tools_4.png","stimuli/stim007_animate_bird_3.png","stimuli/boats_lowercase.png","178"
"html-button-response-mod","186","3647396","0.0-186.0","73395","","","","","","triplet","1173.3999999761581","","","","1","stimuli/stim021_inanimate_tools_1.png","stimuli/stim010_animate_face_2.png","stimuli/tools_uppercase.png","179"
"html-button-response-mod","187","3650180","0.0-187.0","73395","","","","","","triplet","2278.699999988079","","","","1","stimuli/fish_uppercase.png","stimuli/stim006_animate_bird_2.png","stimuli/stim003_animate_fish_3.png","180"
"html-button-response-mod","188","3653396","0.0-188.0","73395","","","","","","triplet","2709.199999988079","","","","1","stimuli/bird_uppercase.png","stimuli/stim001_animate_fish_1.png","stimuli/tree_uppercase.png","181"
"html-button-response-mod","189","3654630","0.0-189.0","73395","","","","","","triplet","728.3000000119209","","","","0","stimuli/stim017_inanimate_tree_1.png","stimuli/fish_uppercase.png","stimuli/fish_lowercase.png","182"
"html-button-response-mod","190","3656347","0.0-190.0","73395","","","","","","triplet","1210.9000000357628","","","","2","stimuli/stim010_animate_face_2.png","stimuli/stim020_inanimate_tree_4.png","stimuli/stim023_inanimate_tools_3.png","183"
"html-button-response-mod","191","3658096","0.0-191.0","73395","","","","","","triplet","1240.699999988079","","","","0","stimuli/bird_lowercase.png","stimuli/stim024_inanimate_tools_4.png","stimuli/stim017_inanimate_tree_1.png","184"
"html-button-response-mod","192","3660080","0.0-192.0","73395","","","","","","triplet","1478.1000000238419","","","","2","stimuli/stim002_animate_fish_2.png","stimuli/stim016_inanimate_boats_4.png","stimuli/face_lowercase.png","185"
"html-button-response-mod","193","3661847","0.0-193.0","73395","","","","","","triplet","1257.8999999761581","","","","2","stimuli/stim010_animate_face_2.png","stimuli/stim020_inanimate_tree_4.png","stimuli/tools_lowercase.png","186"
"html-button-response-mod","194","3663997","0.0-194.0","73395","","","","","","triplet","1641.300000011921","","","","0","stimuli/stim005_animate_bird_1.png","stimuli/fish_uppercase.png","stimuli/boats_lowercase.png","187"
"html-button-response-mod","195","3665397","0.0-195.0","73395","","","","","","triplet","890.8999999761581","","","","0","stimuli/stim004_animate_fish_4.png","stimuli/stim018_inanimate_tree_2.png","stimuli/stim019_inanimate_tree_3.png","188"
"html-button-response-mod","196","3667631","0.0-196.0","73395","","","","","","triplet","1725.5","","","","1","stimuli/stim004_animate_fish_4.png","stimuli/boats_lowercase.png","stimuli/stim018_inanimate_tree_2.png","189"
"html-button-response-mod","197","3669246","0.0-197.0","73395","","","","","","triplet","1110.0999999642372","","","","0","stimuli/tree_lowercase.png","stimuli/stim011_animate_face_3.png","stimuli/stim009_animate_face_1.png","190"
"html-button-response-mod","198","3671546","0.0-198.0","73395","","","","","","triplet","1791.800000011921","","","","2","stimuli/stim024_inanimate_tools_4.png","stimuli/tools_uppercase.png","stimuli/stim009_animate_face_1.png","191"
"html-button-response-mod","199","3674563","0.0-199.0","73395","","","","","","triplet","2508.300000011921","","","","1","stimuli/stim005_animate_bird_1.png","stimuli/stim017_inanimate_tree_1.png","stimuli/fish_lowercase.png","192"
"html-button-response-mod","200","3676313","0.0-200.0","73395","","","","","","triplet","1246.7999999523163","","","","0","stimuli/fish_uppercase.png","stimuli/stim006_animate_bird_2.png","stimuli/stim017_inanimate_tree_1.png","193"
"html-button-response-mod","201","3677880","0.0-201.0","73395","","","","","","triplet","1058.3999999761581","","","","0","stimuli/fish_lowercase.png","stimuli/stim013_inanimate_boats_1.png","stimuli/face_uppercase.png","194"
"html-button-response-mod","202","3679297","0.0-202.0","73395","","","","","","triplet","913.3000000119209","","","","0","stimuli/stim015_inanimate_boats_3.png","stimuli/stim013_inanimate_boats_1.png","stimuli/bird_uppercase.png","195"
"html-button-response-mod","203","3681097","0.0-203.0","73395","","","","","","triplet","1295.5","","","","2","stimuli/stim023_inanimate_tools_3.png","stimuli/stim014_inanimate_boats_2.png","stimuli/stim012_animate_face_4.png","196"
"html-button-response-mod","204","3683165","0.0-204.0","73395","","","","","","triplet","1563.800000011921","","","","2","stimuli/stim021_inanimate_tools_1.png","stimuli/stim007_animate_bird_3.png","stimuli/stim020_inanimate_tree_4.png","197"
"html-button-response-mod","205","3685330","0.0-205.0","73395","","","","","","triplet","1661.300000011921","","","","0","stimuli/stim013_inanimate_boats_1.png","stimuli/tree_uppercase.png","stimuli/stim017_inanimate_tree_1.png","198"
"html-button-response-mod","206","3687047","0.0-206.0","73395","","","","","","triplet","1212","","","","2","stimuli/stim015_inanimate_boats_3.png","stimuli/stim002_animate_fish_2.png","stimuli/stim024_inanimate_tools_4.png","199"
"html-button-response","207","3694714","0.0-207.0","73395","","","","","","break","7158.100000023842","<p>BREAK</p><p>Take a break for as long as you need</p><p>Click the button to continue</p>","0","","","","","",""
"html-button-response-mod","208","3696349","0.0-208.0","73395","","","","","","triplet","1631.3999999761581","","","","2","stimuli/face_uppercase.png","stimuli/bird_uppercase.png","stimuli/stim001_animate_fish_1.png","200"
"html-button-response-mod","209","3698248","0.0-209.0","73395","","","","","","triplet","1392.699999988079","","","","1","stimuli/fish_lowercase.png","stimuli/stim022_inanimate_tools_2.png","stimuli/stim004_animate_fish_4.png","201"
"html-button-response-mod","210","3700196","0.0-210.0","73395","","","","","","triplet","1440","","","","0","stimuli/face_lowercase.png","stimuli/stim004_animate_fish_4.png","stimuli/stim005_animate_bird_1.png","202"
"html-button-response-mod","211","3701931","0.0-211.0","73395","","","","","","triplet","1229.300000011921","","","","2","stimuli/tools_lowercase.png","stimuli/tools_uppercase.png","stimuli/stim002_animate_fish_2.png","203"
"html-button-response-mod","212","3704230","0.0-212.0","73395","","","","","","triplet","1795.699999988079","","","","2","stimuli/stim004_animate_fish_4.png","stimuli/stim013_inanimate_boats_1.png","stimuli/fish_uppercase.png","204"
"html-button-response-mod","213","3707248","0.0-213.0","73395","","","","","","triplet","2511.300000011921","","","","1","stimuli/bird_uppercase.png","stimuli/tools_lowercase.png","stimuli/stim002_animate_fish_2.png","205"
"html-button-response-mod","214","3708965","0.0-214.0","73395","","","","","","triplet","1208.300000011921","","","","2","stimuli/tools_lowercase.png","stimuli/tree_lowercase.png","stimuli/stim010_animate_face_2.png","206"
"html-button-response-mod","215","3710848","0.0-215.0","73395","","","","","","triplet","1374.8999999761581","","","","0","stimuli/tree_lowercase.png","stimuli/stim023_inanimate_tools_3.png","stimuli/stim005_animate_bird_1.png","207"
"html-button-response-mod","216","3712448","0.0-216.0","73395","","","","","","triplet","1091.4000000357628","","","","1","stimuli/stim018_inanimate_tree_2.png","stimuli/tools_uppercase.png","stimuli/stim011_animate_face_3.png","208"
"html-button-response-mod","217","3714313","0.0-217.0","73395","","","","","","triplet","1358.9000000357628","","","","1","stimuli/stim015_inanimate_boats_3.png","stimuli/fish_uppercase.png","stimuli/stim009_animate_face_1.png","209"
"html-button-response-mod","218","3717083","0.0-218.0","73395","","","","","","triplet","2261.900000035763","","","","1","stimuli/stim017_inanimate_tree_1.png","stimuli/stim021_inanimate_tools_1.png","stimuli/stim004_animate_fish_4.png","210"
"html-button-response-mod","219","3719866","0.0-219.0","73395","","","","","","triplet","2278.699999988079","","","","2","stimuli/stim021_inanimate_tools_1.png","stimuli/stim017_inanimate_tree_1.png","stimuli/face_uppercase.png","211"
"html-button-response-mod","220","3721299","0.0-220.0","73395","","","","","","triplet","928.3999999761581","","","","2","stimuli/stim022_inanimate_tools_2.png","stimuli/stim016_inanimate_boats_4.png","stimuli/face_lowercase.png","212"
"html-button-response-mod","221","3723198","0.0-221.0","73395","","","","","","triplet","1393.2999999523163","","","","0","stimuli/boats_uppercase.png","stimuli/stim004_animate_fish_4.png","stimuli/stim009_animate_face_1.png","213"
"html-button-response-mod","222","3724765","0.0-222.0","73395","","","","","","triplet","1058","","","","2","stimuli/stim012_animate_face_4.png","stimuli/stim013_inanimate_boats_1.png","stimuli/boats_uppercase.png","214"
"html-button-response-mod","223","3726983","0.0-223.0","73395","","","","","","triplet","1710.800000011921","","","","2","stimuli/bird_lowercase.png","stimuli/stim004_animate_fish_4.png","stimuli/stim017_inanimate_tree_1.png","215"
"html-button-response-mod","224","3729015","0.0-224.0","73395","","","","","","triplet","1522.8999999761581","","","","2","stimuli/stim019_inanimate_tree_3.png","stimuli/stim004_animate_fish_4.png","stimuli/stim022_inanimate_tools_2.png","216"
"html-button-response-mod","225","3730715","0.0-225.0","73395","","","","","","triplet","1195.9000000357628","","","","2","stimuli/stim006_animate_bird_2.png","stimuli/stim019_inanimate_tree_3.png","stimuli/stim010_animate_face_2.png","217"
"html-button-response-mod","226","3732631","0.0-226.0","73395","","","","","","triplet","1410.300000011921","","","","1","stimuli/fish_uppercase.png","stimuli/stim009_animate_face_1.png","stimuli/boats_uppercase.png","218"
"html-button-response-mod","227","3734000","0.0-227.0","73395","","","","","","triplet","862.9000000357628","","","","1","stimuli/stim007_animate_bird_3.png","stimuli/stim014_inanimate_boats_2.png","stimuli/stim023_inanimate_tools_3.png","219"
"html-button-response-mod","228","3735848","0.0-228.0","73395","","","","","","triplet","1344.800000011921","","","","2","stimuli/tools_lowercase.png","stimuli/stim005_animate_bird_1.png","stimuli/stim021_inanimate_tools_1.png","220"
"html-button-response-mod","229","3737415","0.0-229.0","73395","","","","","","triplet","1057.699999988079","","","","1","stimuli/stim002_animate_fish_2.png","stimuli/stim024_inanimate_tools_4.png","stimuli/stim021_inanimate_tools_1.png","221"
"html-button-response-mod","230","3738898","0.0-230.0","73395","","","","","","triplet","977.6000000238419","","","","0","stimuli/stim006_animate_bird_2.png","stimuli/tools_uppercase.png","stimuli/boats_uppercase.png","222"
"html-button-response-mod","231","3740682","0.0-231.0","73395","","","","","","triplet","1278.8999999761581","","","","0","stimuli/fish_uppercase.png","stimuli/stim002_animate_fish_2.png","stimuli/stim015_inanimate_boats_3.png","223"
"html-button-response-mod","232","3742082","0.0-232.0","73395","","","","","","triplet","892.4000000357628","","","","1","stimuli/stim017_inanimate_tree_1.png","stimuli/fish_uppercase.png","stimuli/stim018_inanimate_tree_2.png","224"
"html-button-response-mod","233","3743632","0.0-233.0","73395","","","","","","triplet","1040.5999999642372","","","","1","stimuli/bird_uppercase.png","stimuli/stim023_inanimate_tools_3.png","stimuli/bird_lowercase.png","225"
"html-button-response-mod","234","3745050","0.0-234.0","73395","","","","","","triplet","912.5","","","","1","stimuli/stim003_animate_fish_3.png","stimuli/stim010_animate_face_2.png","stimuli/stim023_inanimate_tools_3.png","226"
"html-button-response-mod","235","3747182","0.0-235.0","73395","","","","","","triplet","1626.199999988079","","","","2","stimuli/tree_lowercase.png","stimuli/stim020_inanimate_tree_4.png","stimuli/stim024_inanimate_tools_4.png","227"
"html-button-response-mod","236","3748633","0.0-236.0","73395","","","","","","triplet","944.8999999761581","","","","0","stimuli/face_uppercase.png","stimuli/stim019_inanimate_tree_3.png","stimuli/stim020_inanimate_tree_4.png","228"
"html-button-response-mod","237","3750608","0.0-237.0","73395","","","","","","triplet","1541.9000000357628","","","","2","stimuli/stim015_inanimate_boats_3.png","stimuli/stim001_animate_fish_1.png","stimuli/stim021_inanimate_tools_1.png","229"
"html-button-response-mod","238","3752243","0.0-238.0","73395","","","","","","triplet","1129.5999999642372","","","","2","stimuli/stim020_inanimate_tree_4.png","stimuli/stim021_inanimate_tools_1.png","stimuli/tree_lowercase.png","230"
"html-button-response-mod","239","3753774","0.0-239.0","73395","","","","","","triplet","1024.8999999761581","","","","2","stimuli/stim004_animate_fish_4.png","stimuli/tree_uppercase.png","stimuli/face_lowercase.png","231"
"html-button-response-mod","240","3755260","0.0-240.0","73395","","","","","","triplet","978.3000000119209","","","","2","stimuli/stim010_animate_face_2.png","stimuli/stim016_inanimate_boats_4.png","stimuli/tree_uppercase.png","232"
"html-button-response-mod","241","3757159","0.0-241.0","73395","","","","","","triplet","1394.699999988079","","","","1","stimuli/stim011_animate_face_3.png","stimuli/stim015_inanimate_boats_3.png","stimuli/stim006_animate_bird_2.png","233"
"html-button-response-mod","242","3758610","0.0-242.0","73395","","","","","","triplet","945.8000000119209","","","","1","stimuli/stim005_animate_bird_1.png","stimuli/boats_lowercase.png","stimuli/stim010_animate_face_2.png","234"
"html-button-response-mod","243","3759793","0.0-243.0","73395","","","","","","triplet","677","","","","1","stimuli/stim016_inanimate_boats_4.png","stimuli/face_lowercase.png","stimuli/stim010_animate_face_2.png","235"
"html-button-response-mod","244","3760992","0.0-244.0","73395","","","","","","triplet","691.8999999761581","","","","1","stimuli/stim016_inanimate_boats_4.png","stimuli/tools_uppercase.png","stimuli/stim006_animate_bird_2.png","236"
"html-button-response-mod","245","3762975","0.0-245.0","73395","","","","","","triplet","1478.5999999642372","","","","1","stimuli/stim011_animate_face_3.png","stimuli/boats_uppercase.png","stimuli/stim012_animate_face_4.png","237"
"html-button-response-mod","246","3764359","0.0-246.0","73395","","","","","","triplet","874.5","","","","1","stimuli/stim023_inanimate_tools_3.png","stimuli/boats_uppercase.png","stimuli/stim019_inanimate_tree_3.png","238"
"html-button-response-mod","247","3765992","0.0-247.0","73395","","","","","","triplet","1127.8999999761581","","","","1","stimuli/stim012_animate_face_4.png","stimuli/bird_uppercase.png","stimuli/stim003_animate_fish_3.png","239"
"html-button-response-mod","248","3769528","0.0-248.0","73395","","","","","","triplet","3027.600000023842","","","","0","stimuli/stim017_inanimate_tree_1.png","stimuli/stim024_inanimate_tools_4.png","stimuli/stim014_inanimate_boats_2.png","240"
"html-button-response-mod","249","3771375","0.0-249.0","73395","","","","","","triplet","1341.8999999761581","","","","1","stimuli/bird_lowercase.png","stimuli/fish_uppercase.png","stimuli/face_uppercase.png","241"
"html-button-response-mod","250","3773010","0.0-250.0","73395","","","","","","triplet","1126.300000011921","","","","1","stimuli/stim023_inanimate_tools_3.png","stimuli/tools_uppercase.png","stimuli/stim021_inanimate_tools_1.png","242"
"html-button-response-mod","251","3775125","0.0-251.0","73395","","","","","","triplet","1612.0999999642372","","","","2","stimuli/stim015_inanimate_boats_3.png","stimuli/stim017_inanimate_tree_1.png","stimuli/face_uppercase.png","243"
"html-button-response-mod","252","3776692","0.0-252.0","73395","","","","","","triplet","1063.300000011921","","","","1","stimuli/stim004_animate_fish_4.png","stimuli/boats_lowercase.png","stimuli/stim011_animate_face_3.png","244"
"html-button-response-mod","253","3779742","0.0-253.0","73395","","","","","","triplet","2543.699999988079","","","","1","stimuli/stim008_animate_bird_4.png","stimuli/face_uppercase.png","stimuli/stim013_inanimate_boats_1.png","245"
"html-button-response-mod","254","3781810","0.0-254.0","73395","","","","","","triplet","1559.6000000238419","","","","2","stimuli/tools_lowercase.png","stimuli/fish_lowercase.png","stimuli/boats_uppercase.png","246"
"html-button-response-mod","255","3784009","0.0-255.0","73395","","","","","","triplet","1695.6000000238419","","","","1","stimuli/fish_lowercase.png","stimuli/stim016_inanimate_boats_4.png","stimuli/face_lowercase.png","247"
"html-button-response-mod","256","3785876","0.0-256.0","73395","","","","","","triplet","1362.1000000238419","","","","0","stimuli/boats_lowercase.png","stimuli/face_uppercase.png","stimuli/tree_uppercase.png","248"
"html-button-response-mod","257","3787492","0.0-257.0","73395","","","","","","triplet","1108.699999988079","","","","0","stimuli/stim013_inanimate_boats_1.png","stimuli/stim010_animate_face_2.png","stimuli/stim014_inanimate_boats_2.png","249"
"html-button-response","258","3800962","0.0-258.0","73395","","","","","","break","12963.100000023842","<p>BREAK</p><p>Take a break for as long as you need</p><p>Click the button to continue</p>","0","","","","","",""
"html-button-response-mod","259","3802326","0.0-259.0","73395","","","","","","triplet","1362","","","","2","stimuli/stim010_animate_face_2.png","stimuli/stim018_inanimate_tree_2.png","stimuli/stim008_animate_bird_4.png","250"
"html-button-response-mod","260","3804327","0.0-260.0","73395","","","","","","triplet","1495.199999988079","","","","0","stimuli/face_lowercase.png","stimuli/stim014_inanimate_boats_2.png","stimuli/stim008_animate_bird_4.png","251"
"html-button-response-mod","261","3805875","0.0-261.0","73395","","","","","","triplet","1041.8999999761581","","","","2","stimuli/tree_uppercase.png","stimuli/boats_uppercase.png","stimuli/stim016_inanimate_boats_4.png","252"
"html-button-response-mod","262","3807725","0.0-262.0","73395","","","","","","triplet","1341.4000000357628","","","","2","stimuli/stim017_inanimate_tree_1.png","stimuli/stim008_animate_bird_4.png","stimuli/tools_lowercase.png","253"
"html-button-response-mod","263","3810009","0.0-263.0","73395","","","","","","triplet","1775.6000000238419","","","","0","stimuli/stim021_inanimate_tools_1.png","stimuli/stim010_animate_face_2.png","stimuli/stim012_animate_face_4.png","254"
"html-button-response-mod","264","3814342","0.0-264.0","73395","","","","","","triplet","3825.300000011921","","","","1","stimuli/stim017_inanimate_tree_1.png","stimuli/boats_lowercase.png","stimuli/tree_uppercase.png","255"
"html-button-response-mod","265","3816092","0.0-265.0","73395","","","","","","triplet","1244.699999988079","","","","0","stimuli/tools_lowercase.png","stimuli/stim009_animate_face_1.png","stimuli/stim023_inanimate_tools_3.png","256"
"html-button-response-mod","266","3817825","0.0-266.0","73395","","","","","","triplet","1225.5","","","","1","stimuli/stim002_animate_fish_2.png","stimuli/tree_uppercase.png","stimuli/stim023_inanimate_tools_3.png","257"
"html-button-response-mod","267","3819376","0.0-267.0","73395","","","","","","triplet","1043.699999988079","","","","0","stimuli/stim022_inanimate_tools_2.png","stimuli/stim004_animate_fish_4.png","stimuli/bird_lowercase.png","258"
"html-button-response-mod","268","3820776","0.0-268.0","73395","","","","","","triplet","891.9000000357628","","","","0","stimuli/boats_lowercase.png","stimuli/stim011_animate_face_3.png","stimuli/stim020_inanimate_tree_4.png","259"
"html-button-response-mod","269","3822859","0.0-269.0","73395","","","","","","triplet","1575.5999999642372","","","","2","stimuli/stim018_inanimate_tree_2.png","stimuli/stim014_inanimate_boats_2.png","stimuli/stim024_inanimate_tools_4.png","260"
"html-button-response-mod","270","3825227","0.0-270.0","73395","","","","","","triplet","1859.199999988079","","","","0","stimuli/stim015_inanimate_boats_3.png","stimuli/bird_lowercase.png","stimuli/face_lowercase.png","261"
"html-button-response-mod","271","3827659","0.0-271.0","73395","","","","","","triplet","1926.199999988079","","","","2","stimuli/stim017_inanimate_tree_1.png","stimuli/stim022_inanimate_tools_2.png","stimuli/face_lowercase.png","262"
"html-button-response-mod","272","3829610","0.0-272.0","73395","","","","","","triplet","1442.199999988079","","","","2","stimuli/stim023_inanimate_tools_3.png","stimuli/stim010_animate_face_2.png","stimuli/stim016_inanimate_boats_4.png","263"
"html-button-response-mod","273","3831209","0.0-273.0","73395","","","","","","triplet","1092","","","","1","stimuli/stim023_inanimate_tools_3.png","stimuli/stim005_animate_bird_1.png","stimuli/stim021_inanimate_tools_1.png","264"
"html-button-response-mod","274","3834177","0.0-274.0","73395","","","","","","triplet","2460.699999988079","","","","2","stimuli/fish_lowercase.png","stimuli/face_lowercase.png","stimuli/tree_uppercase.png","265"
"html-button-response-mod","275","3836943","0.0-275.0","73395","","","","","","triplet","2259","","","","1","stimuli/bird_uppercase.png","stimuli/stim003_animate_fish_3.png","stimuli/stim007_animate_bird_3.png","266"
"html-button-response-mod","276","3838778","0.0-276.0","73395","","","","","","triplet","1329.9000000357628","","","","1","stimuli/stim017_inanimate_tree_1.png","stimuli/stim011_animate_face_3.png","stimuli/stim007_animate_bird_3.png","267"
"html-button-response-mod","277","3840710","0.0-277.0","73395","","","","","","triplet","1428.800000011921","","","","0","stimuli/stim013_inanimate_boats_1.png","stimuli/tree_uppercase.png","stimuli/tools_uppercase.png","268"
"html-button-response-mod","278","3843125","0.0-278.0","73395","","","","","","triplet","1906.199999988079","","","","0","stimuli/tree_uppercase.png","stimuli/stim005_animate_bird_1.png","stimuli/stim002_animate_fish_2.png","269"
"html-button-response-mod","279","3844726","0.0-279.0","73395","","","","","","triplet","1092.1000000238419","","","","2","stimuli/stim019_inanimate_tree_3.png","stimuli/stim017_inanimate_tree_1.png","stimuli/stim005_animate_bird_1.png","270"
"html-button-response-mod","280","3846276","0.0-280.0","73395","","","","","","triplet","1042.699999988079","","","","2","stimuli/stim001_animate_fish_1.png","stimuli/stim015_inanimate_boats_3.png","stimuli/bird_lowercase.png","271"
"html-button-response-mod","281","3848460","0.0-281.0","73395","","","","","","triplet","1677.6000000238419","","","","0","stimuli/fish_lowercase.png","stimuli/stim006_animate_bird_2.png","stimuli/stim002_animate_fish_2.png","272"
"html-button-response-mod","282","3850309","0.0-282.0","73395","","","","","","triplet","1340.9000000357628","","","","2","stimuli/stim006_animate_bird_2.png","stimuli/stim003_animate_fish_3.png","stimuli/stim016_inanimate_boats_4.png","273"
"html-button-response-mod","283","3852676","0.0-283.0","73395","","","","","","triplet","1860","","","","1","stimuli/stim011_animate_face_3.png","stimuli/tools_lowercase.png","stimuli/stim006_animate_bird_2.png","274"
"html-button-response-mod","284","3854176","0.0-284.0","73395","","","","","","triplet","991.6999999880791","","","","2","stimuli/tree_lowercase.png","stimuli/bird_lowercase.png","stimuli/stim023_inanimate_tools_3.png","275"
"html-button-response-mod","285","3855843","0.0-285.0","73395","","","","","","triplet","1159.0999999642372","","","","1","stimuli/boats_uppercase.png","stimuli/stim015_inanimate_boats_3.png","stimuli/bird_uppercase.png","276"
"html-button-response-mod","286","3857343","0.0-286.0","73395","","","","","","triplet","993.3999999761581","","","","0","stimuli/stim022_inanimate_tools_2.png","stimuli/tree_uppercase.png","stimuli/fish_uppercase.png","277"
"html-button-response-mod","287","3858976","0.0-287.0","73395","","","","","","triplet","1126.1000000238419","","","","1","stimuli/tree_lowercase.png","stimuli/stim023_inanimate_tools_3.png","stimuli/tools_lowercase.png","278"
"html-button-response-mod","288","3861028","0.0-288.0","73395","","","","","","triplet","1543.8999999761581","","","","1","stimuli/bird_lowercase.png","stimuli/stim009_animate_face_1.png","stimuli/stim010_animate_face_2.png","279"
"html-button-response-mod","289","3862311","0.0-289.0","73395","","","","","","triplet","777.1999999880791","","","","1","stimuli/stim011_animate_face_3.png","stimuli/boats_lowercase.png","stimuli/fish_lowercase.png","280"
"html-button-response-mod","290","3864193","0.0-290.0","73395","","","","","","triplet","1375.0999999642372","","","","2","stimuli/stim017_inanimate_tree_1.png","stimuli/stim010_animate_face_2.png","stimuli/stim002_animate_fish_2.png","281"
"html-button-response-mod","291","3865592","0.0-291.0","73395","","","","","","triplet","890","","","","2","stimuli/stim002_animate_fish_2.png","stimuli/stim020_inanimate_tree_4.png","stimuli/stim013_inanimate_boats_1.png","282"
"html-button-response-mod","292","3866943","0.0-292.0","73395","","","","","","triplet","843.5","","","","1","stimuli/bird_uppercase.png","stimuli/stim008_animate_bird_4.png","stimuli/fish_uppercase.png","283"
"html-button-response-mod","293","3868309","0.0-293.0","73395","","","","","","triplet","859","","","","1","stimuli/stim009_animate_face_1.png","stimuli/bird_uppercase.png","stimuli/stim012_animate_face_4.png","284"
"html-button-response-mod","294","3870628","0.0-294.0","73395","","","","","","triplet","1811.0999999642372","","","","0","stimuli/stim024_inanimate_tools_4.png","stimuli/stim019_inanimate_tree_3.png","stimuli/stim002_animate_fish_2.png","285"
"html-button-response-mod","295","3871993","0.0-295.0","73395","","","","","","triplet","859.3000000119209","","","","2","stimuli/fish_uppercase.png","stimuli/boats_uppercase.png","stimuli/stim019_inanimate_tree_3.png","286"
"html-button-response-mod","296","3878627","0.0-296.0","73395","","","","","","triplet","6127.699999988079","","","","1","stimuli/stim007_animate_bird_3.png","stimuli/stim002_animate_fish_2.png","stimuli/stim005_animate_bird_1.png","287"
"html-button-response-mod","297","3882443","0.0-297.0","73395","","","","","","triplet","3309.7000000476837","","","","1","stimuli/stim015_inanimate_boats_3.png","stimuli/stim024_inanimate_tools_4.png","stimuli/stim007_animate_bird_3.png","288"
"html-button-response-mod","298","3884142","0.0-298.0","73395","","","","","","triplet","1194.0999999642372","","","","2","stimuli/stim007_animate_bird_3.png","stimuli/stim009_animate_face_1.png","stimuli/tools_uppercase.png","289"
"html-button-response-mod","299","3888844","0.0-299.0","73395","","","","","","triplet","4194.399999976158","","","","1","stimuli/stim003_animate_fish_3.png","stimuli/tree_lowercase.png","stimuli/stim015_inanimate_boats_3.png","290"
"html-button-response-mod","300","3891277","0.0-300.0","73395","","","","","","triplet","1925.6000000238419","","","","2","stimuli/stim003_animate_fish_3.png","stimuli/stim023_inanimate_tools_3.png","stimuli/boats_uppercase.png","291"
"html-button-response-mod","301","3893894","0.0-301.0","73395","","","","","","triplet","2110.900000035763","","","","1","stimuli/tools_uppercase.png","stimuli/stim009_animate_face_1.png","stimuli/stim003_animate_fish_3.png","292"
"html-button-response-mod","302","3896613","0.0-302.0","73395","","","","","","triplet","2213.699999988079","","","","1","stimuli/stim006_animate_bird_2.png","stimuli/stim024_inanimate_tools_4.png","stimuli/stim005_animate_bird_1.png","293"
"html-button-response-mod","303","3915459","0.0-303.0","73395","","","","","","triplet","18338.400000035763","","","","2","stimuli/bird_lowercase.png","stimuli/boats_lowercase.png","stimuli/stim024_inanimate_tools_4.png","294"
"html-button-response-mod","304","3919510","0.0-304.0","73395","","","","","","triplet","3547.5","","","","2","stimuli/bird_uppercase.png","stimuli/stim002_animate_fish_2.png","stimuli/stim015_inanimate_boats_3.png","295"
"html-button-response-mod","305","3922096","0.0-305.0","73395","","","","","","triplet","2081.699999988079","","","","0","stimuli/boats_lowercase.png","stimuli/stim024_inanimate_tools_4.png","stimuli/stim021_inanimate_tools_1.png","296"
"html-button-response-mod","306","3926195","0.0-306.0","73395","","","","","","triplet","3593.599999964237","","","","1","stimuli/stim005_animate_bird_1.png","stimuli/stim015_inanimate_boats_3.png","stimuli/face_uppercase.png","297"
"html-button-response-mod","307","3927827","0.0-307.0","73395","","","","","","triplet","1125.699999988079","","","","1","stimuli/stim005_animate_bird_1.png","stimuli/tools_uppercase.png","stimuli/stim004_animate_fish_4.png","298"
"html-button-response-mod","308","4247610","0.0-308.0","73395","","","","","","triplet","319280.2999999523","","","","2","stimuli/stim008_animate_bird_4.png","stimuli/stim003_animate_fish_3.png","stimuli/boats_lowercase.png","299"
"html-button-response","309","4280012","0.0-309.0","73395","","","","","","break","31896.100000023842","<p>BREAK</p><p>Take a break for as long as you need</p><p>Click the button to continue</p>","0","","","","","",""
"html-button-response-mod","310","4281443","0.0-310.0","73395","","","","","","triplet","1429.699999988079","","","","2","stimuli/stim005_animate_bird_1.png","stimuli/stim006_animate_bird_2.png","stimuli/stim020_inanimate_tree_4.png","300"
"html-button-response-mod","311","4283211","0.0-311.0","73395","","","","","","triplet","1261.7000000476837","","","","2","stimuli/stim007_animate_bird_3.png","stimuli/stim016_inanimate_boats_4.png","stimuli/stim024_inanimate_tools_4.png","301"
"html-button-response-mod","312","4284530","0.0-312.0","73395","","","","","","triplet","811.3999999761581","","","","2","stimuli/stim015_inanimate_boats_3.png","stimuli/stim011_animate_face_3.png","stimuli/boats_lowercase.png","302"
"html-button-response-mod","313","4286096","0.0-313.0","73395","","","","","","triplet","1063","","","","2","stimuli/fish_lowercase.png","stimuli/stim003_animate_fish_3.png","stimuli/stim009_animate_face_1.png","303"
"html-button-response-mod","314","4287744","0.0-314.0","73395","","","","","","triplet","1145.1000000238419","","","","2","stimuli/stim013_inanimate_boats_1.png","stimuli/stim008_animate_bird_4.png","stimuli/stim023_inanimate_tools_3.png","304"
"html-button-response-mod","315","4289128","0.0-315.0","73395","","","","","","triplet","879.3000000119209","","","","2","stimuli/stim015_inanimate_boats_3.png","stimuli/stim016_inanimate_boats_4.png","stimuli/bird_uppercase.png","305"
"html-button-response-mod","316","4290513","0.0-316.0","73395","","","","","","triplet","877.6999999880791","","","","2","stimuli/fish_uppercase.png","stimuli/tools_lowercase.png","stimuli/stim013_inanimate_boats_1.png","306"
"html-button-response-mod","317","4291728","0.0-317.0","73395","","","","","","triplet","708.1999999880791","","","","2","stimuli/stim004_animate_fish_4.png","stimuli/stim019_inanimate_tree_3.png","stimuli/stim009_animate_face_1.png","307"
"html-button-response-mod","318","4293646","0.0-318.0","73395","","","","","","triplet","1414.9000000357628","","","","0","stimuli/face_uppercase.png","stimuli/stim016_inanimate_boats_4.png","stimuli/stim008_animate_bird_4.png","308"
"html-button-response-mod","319","4295097","0.0-319.0","73395","","","","","","triplet","947.5999999642372","","","","0","stimuli/stim017_inanimate_tree_1.png","stimuli/stim003_animate_fish_3.png","stimuli/stim011_animate_face_3.png","309"
"html-button-response-mod","320","4297928","0.0-320.0","73395","","","","","","triplet","2327.699999988079","","","","1","stimuli/stim016_inanimate_boats_4.png","stimuli/fish_lowercase.png","stimuli/stim008_animate_bird_4.png","310"
"html-button-response-mod","321","4299544","0.0-321.0","73395","","","","","","triplet","1111.1000000238419","","","","1","stimuli/stim003_animate_fish_3.png","stimuli/tree_uppercase.png","stimuli/stim006_animate_bird_2.png","311"
"html-button-response-mod","322","4301197","0.0-322.0","73395","","","","","","triplet","1147.8999999761581","","","","2","stimuli/stim002_animate_fish_2.png","stimuli/stim008_animate_bird_4.png","stimuli/tree_uppercase.png","312"
"html-button-response-mod","323","4303245","0.0-323.0","73395","","","","","","triplet","1543.9000000357628","","","","1","stimuli/boats_lowercase.png","stimuli/stim018_inanimate_tree_2.png","stimuli/fish_uppercase.png","313"
"html-button-response-mod","324","4306329","0.0-324.0","73395","","","","","","triplet","2579.900000035763","","","","2","stimuli/stim024_inanimate_tools_4.png","stimuli/stim023_inanimate_tools_3.png","stimuli/stim001_animate_fish_1.png","314"
"html-button-response-mod","325","4308794","0.0-325.0","73395","","","","","","triplet","1961.9000000357628","","","","1","stimuli/stim002_animate_fish_2.png","stimuli/face_lowercase.png","stimuli/stim001_animate_fish_1.png","315"
"html-button-response-mod","326","4310345","0.0-326.0","73395","","","","","","triplet","1045.8999999761581","","","","2","stimuli/stim003_animate_fish_3.png","stimuli/stim002_animate_fish_2.png","stimuli/stim018_inanimate_tree_2.png","316"
"html-button-response-mod","327","4311995","0.0-327.0","73395","","","","","","triplet","1145.800000011921","","","","1","stimuli/tree_uppercase.png","stimuli/bird_lowercase.png","stimuli/stim017_inanimate_tree_1.png","317"
"html-button-response-mod","328","4314512","0.0-328.0","73395","","","","","","triplet","2012.8999999761581","","","","2","stimuli/stim016_inanimate_boats_4.png","stimuli/stim017_inanimate_tree_1.png","stimuli/stim007_animate_bird_3.png","318"
"html-button-response-mod","329","4316547","0.0-329.0","73395","","","","","","triplet","1526.9000000357628","","","","2","stimuli/stim014_inanimate_boats_2.png","stimuli/stim001_animate_fish_1.png","stimuli/stim012_animate_face_4.png","319"
"html-button-response-mod","330","4319662","0.0-330.0","73395","","","","","","triplet","2607.5","","","","1","stimuli/tree_lowercase.png","stimuli/face_uppercase.png","stimuli/boats_lowercase.png","320"
"html-button-response-mod","331","4321262","0.0-331.0","73395","","","","","","triplet","1092.1000000238419","","","","0","stimuli/tools_lowercase.png","stimuli/stim023_inanimate_tools_3.png","stimuli/stim011_animate_face_3.png","321"
"html-button-response-mod","332","4322928","0.0-332.0","73395","","","","","","triplet","1157.7999999523163","","","","2","stimuli/stim015_inanimate_boats_3.png","stimuli/stim007_animate_bird_3.png","stimuli/stim018_inanimate_tree_2.png","322"
"html-button-response-mod","333","4324446","0.0-333.0","73395","","","","","","triplet","1009.5","","","","0","stimuli/boats_lowercase.png","stimuli/stim016_inanimate_boats_4.png","stimuli/stim018_inanimate_tree_2.png","323"
"html-button-response-mod","334","4325927","0.0-334.0","73395","","","","","","triplet","973.1000000238419","","","","2","stimuli/tools_uppercase.png","stimuli/bird_uppercase.png","stimuli/stim010_animate_face_2.png","324"
"html-button-response-mod","335","4327446","0.0-335.0","73395","","","","","","triplet","1013.8000000119209","","","","0","stimuli/stim018_inanimate_tree_2.png","stimuli/stim001_animate_fish_1.png","stimuli/stim002_animate_fish_2.png","325"
"html-button-response-mod","336","4328878","0.0-336.0","73395","","","","","","triplet","923.3000000119209","","","","1","stimuli/stim013_inanimate_boats_1.png","stimuli/bird_uppercase.png","stimuli/stim012_animate_face_4.png","326"
"html-button-response-mod","337","4330895","0.0-337.0","73395","","","","","","triplet","1513","","","","0","stimuli/stim022_inanimate_tools_2.png","stimuli/stim001_animate_fish_1.png","stimuli/stim012_animate_face_4.png","327"
"html-button-response-mod","338","4333361","0.0-338.0","73395","","","","","","triplet","1962.7000000476837","","","","2","stimuli/stim012_animate_face_4.png","stimuli/stim007_animate_bird_3.png","stimuli/boats_uppercase.png","328"
"html-button-response-mod","339","4334946","0.0-339.0","73395","","","","","","triplet","1076","","","","2","stimuli/stim022_inanimate_tools_2.png","stimuli/stim013_inanimate_boats_1.png","stimuli/stim004_animate_fish_4.png","329"
"html-button-response-mod","340","4336578","0.0-340.0","73395","","","","","","triplet","1125.3999999761581","","","","0","stimuli/stim006_animate_bird_2.png","stimuli/bird_uppercase.png","stimuli/fish_uppercase.png","330"
"html-button-response-mod","341","4337897","0.0-341.0","73395","","","","","","triplet","815","","","","1","stimuli/stim019_inanimate_tree_3.png","stimuli/stim015_inanimate_boats_3.png","stimuli/stim017_inanimate_tree_1.png","331"
"html-button-response-mod","342","4339314","0.0-342.0","73395","","","","","","triplet","913.6999999880791","","","","0","stimuli/boats_lowercase.png","stimuli/stim003_animate_fish_3.png","stimuli/stim002_animate_fish_2.png","332"
"html-button-response-mod","343","4340897","0.0-343.0","73395","","","","","","triplet","1077.199999988079","","","","2","stimuli/stim003_animate_fish_3.png","stimuli/stim001_animate_fish_1.png","stimuli/boats_uppercase.png","333"
"html-button-response-mod","344","4342596","0.0-344.0","73395","","","","","","triplet","1195.199999988079","","","","2","stimuli/stim019_inanimate_tree_3.png","stimuli/stim010_animate_face_2.png","stimuli/face_lowercase.png","334"
"html-button-response-mod","345","4344445","0.0-345.0","73395","","","","","","triplet","1341.800000011921","","","","0","stimuli/stim024_inanimate_tools_4.png","stimuli/boats_uppercase.png","stimuli/bird_lowercase.png","335"
"html-button-response-mod","346","4345997","0.0-346.0","73395","","","","","","triplet","1048.199999988079","","","","2","stimuli/stim003_animate_fish_3.png","stimuli/stim002_animate_fish_2.png","stimuli/stim007_animate_bird_3.png","336"
"html-button-response-mod","347","4347678","0.0-347.0","73395","","","","","","triplet","1177.5","","","","0","stimuli/stim010_animate_face_2.png","stimuli/stim002_animate_fish_2.png","stimuli/tools_uppercase.png","337"
"html-button-response-mod","348","4348947","0.0-348.0","73395","","","","","","triplet","761.2999999523163","","","","1","stimuli/stim013_inanimate_boats_1.png","stimuli/face_lowercase.png","stimuli/stim015_inanimate_boats_3.png","338"
"html-button-response-mod","349","4350914","0.0-349.0","73395","","","","","","triplet","1462.800000011921","","","","2","stimuli/stim005_animate_bird_1.png","stimuli/face_lowercase.png","stimuli/tools_lowercase.png","339"
"html-button-response-mod","350","4352895","0.0-350.0","73395","","","","","","triplet","1475.1000000238419","","","","1","stimuli/face_lowercase.png","stimuli/stim003_animate_fish_3.png","stimuli/boats_lowercase.png","340"
"html-button-response-mod","351","4354330","0.0-351.0","73395","","","","","","triplet","930.3000000119209","","","","2","stimuli/boats_uppercase.png","stimuli/tree_uppercase.png","stimuli/stim021_inanimate_tools_1.png","341"
"html-button-response-mod","352","4355695","0.0-352.0","73395","","","","","","triplet","858.6000000238419","","","","0","stimuli/boats_uppercase.png","stimuli/stim002_animate_fish_2.png","stimuli/stim023_inanimate_tools_3.png","342"
"html-button-response-mod","353","4357162","0.0-353.0","73395","","","","","","triplet","962.9000000357628","","","","2","stimuli/stim001_animate_fish_1.png","stimuli/stim008_animate_bird_4.png","stimuli/tools_uppercase.png","343"
"html-button-response-mod","354","4359282","0.0-354.0","73395","","","","","","triplet","1612.699999988079","","","","0","stimuli/stim013_inanimate_boats_1.png","stimuli/fish_lowercase.png","stimuli/tree_uppercase.png","344"
"html-button-response-mod","355","4360762","0.0-355.0","73395","","","","","","triplet","973.1000000238419","","","","2","stimuli/tree_lowercase.png","stimuli/boats_lowercase.png","stimuli/stim015_inanimate_boats_3.png","345"
"html-button-response-mod","356","4362510","0.0-356.0","73395","","","","","","triplet","1242.5","","","","0","stimuli/stim001_animate_fish_1.png","stimuli/stim024_inanimate_tools_4.png","stimuli/stim002_animate_fish_2.png","346"
"html-button-response-mod","357","4365047","0.0-357.0","73395","","","","","","triplet","2029.7000000476837","","","","0","stimuli/stim013_inanimate_boats_1.png","stimuli/fish_uppercase.png","stimuli/stim007_animate_bird_3.png","347"
"html-button-response-mod","358","4367195","0.0-358.0","73395","","","","","","triplet","1641.7000000476837","","","","1","stimuli/tools_lowercase.png","stimuli/stim016_inanimate_boats_4.png","stimuli/stim021_inanimate_tools_1.png","348"
"html-button-response-mod","359","4369561","0.0-359.0","73395","","","","","","triplet","1857.199999988079","","","","1","stimuli/stim002_animate_fish_2.png","stimuli/stim023_inanimate_tools_3.png","stimuli/stim007_animate_bird_3.png","349"
"html-button-response","360","4371429","0.0-360.0","73395","","","","","","break","1360.5","<p>BREAK</p><p>Take a break for as long as you need</p><p>Click the button to continue</p>","0","","","","","",""
"html-button-response-mod","361","4373546","0.0-361.0","73395","","","","","","triplet","2114.800000011921","","","","1","stimuli/face_uppercase.png","stimuli/stim019_inanimate_tree_3.png","stimuli/boats_uppercase.png","350"
"html-button-response-mod","362","4375095","0.0-362.0","73395","","","","","","triplet","1040.5","","","","0","stimuli/stim022_inanimate_tools_2.png","stimuli/stim001_animate_fish_1.png","stimuli/stim004_animate_fish_4.png","351"
"html-button-response-mod","363","4376862","0.0-363.0","73395","","","","","","triplet","1257.4000000357628","","","","1","stimuli/stim009_animate_face_1.png","stimuli/stim006_animate_bird_2.png","stimuli/stim015_inanimate_boats_3.png","352"
"html-button-response-mod","364","4378462","0.0-364.0","73395","","","","","","triplet","1092","","","","0","stimuli/tools_uppercase.png","stimuli/stim023_inanimate_tools_3.png","stimuli/stim015_inanimate_boats_3.png","353"
"html-button-response-mod","365","4380078","0.0-365.0","73395","","","","","","triplet","1106.800000011921","","","","0","stimuli/stim011_animate_face_3.png","stimuli/stim004_animate_fish_4.png","stimuli/stim017_inanimate_tree_1.png","354"
"html-button-response-mod","366","4381330","0.0-366.0","73395","","","","","","triplet","747.6999999880791","","","","0","stimuli/tools_lowercase.png","stimuli/stim021_inanimate_tools_1.png","stimuli/stim006_animate_bird_2.png","355"
"html-button-response-mod","367","4383147","0.0-367.0","73395","","","","","","triplet","1310.3999999761581","","","","1","stimuli/stim022_inanimate_tools_2.png","stimuli/stim009_animate_face_1.png","stimuli/stim024_inanimate_tools_4.png","356"
"html-button-response-mod","368","4384978","0.0-368.0","73395","","","","","","triplet","1327.5999999642372","","","","2","stimuli/stim012_animate_face_4.png","stimuli/stim008_animate_bird_4.png","stimuli/tools_uppercase.png","357"
"html-button-response-mod","369","4394379","0.0-369.0","73395","","","","","","triplet","8892.400000035763","","","","0","stimuli/bird_lowercase.png","stimuli/stim002_animate_fish_2.png","stimuli/stim007_animate_bird_3.png","358"
"html-button-response-mod","370","4396078","0.0-370.0","73395","","","","","","triplet","1191.5","","","","1","stimuli/stim009_animate_face_1.png","stimuli/tree_lowercase.png","stimuli/stim010_animate_face_2.png","359"
"html-button-response-mod","371","4397612","0.0-371.0","73395","","","","","","triplet","1025.9000000357628","","","","1","stimuli/stim009_animate_face_1.png","stimuli/stim018_inanimate_tree_2.png","stimuli/stim011_animate_face_3.png","360"
"html-button-response-mod","372","4400528","0.0-372.0","73395","","","","","","triplet","2409.099999964237","","","","0","stimuli/stim012_animate_face_4.png","stimuli/face_lowercase.png","stimuli/fish_lowercase.png","361"
"html-button-response-mod","373","4404665","0.0-373.0","73395","","","","","","triplet","3631.7999999523163","","","","0","stimuli/stim014_inanimate_boats_2.png","stimuli/face_lowercase.png","stimuli/stim017_inanimate_tree_1.png","362"
"html-button-response-mod","374","4405996","0.0-374.0","73395","","","","","","triplet","825.5999999642372","","","","0","stimuli/stim014_inanimate_boats_2.png","stimuli/face_uppercase.png","stimuli/tools_uppercase.png","363"
"html-button-response-mod","375","4407929","0.0-375.0","73395","","","","","","triplet","1429.5","","","","0","stimuli/stim010_animate_face_2.png","stimuli/stim002_animate_fish_2.png","stimuli/stim011_animate_face_3.png","364"
"html-button-response-mod","376","4409446","0.0-376.0","73395","","","","","","triplet","1009.8999999761581","","","","0","stimuli/tools_lowercase.png","stimuli/stim001_animate_fish_1.png","stimuli/stim020_inanimate_tree_4.png","365"
"html-button-response-mod","377","4410930","0.0-377.0","73395","","","","","","triplet","978","","","","2","stimuli/tools_uppercase.png","stimuli/boats_uppercase.png","stimuli/stim005_animate_bird_1.png","366"
"html-button-response-mod","378","4412478","0.0-378.0","73395","","","","","","triplet","1043.4000000357628","","","","1","stimuli/stim022_inanimate_tools_2.png","stimuli/fish_uppercase.png","stimuli/stim007_animate_bird_3.png","367"
"html-button-response-mod","379","4413814","0.0-379.0","73395","","","","","","triplet","831.5","","","","0","stimuli/tree_lowercase.png","stimuli/stim018_inanimate_tree_2.png","stimuli/stim024_inanimate_tools_4.png","368"
"html-button-response-mod","380","4415730","0.0-380.0","73395","","","","","","triplet","1410.0999999642372","","","","1","stimuli/stim003_animate_fish_3.png","stimuli/tree_lowercase.png","stimuli/stim012_animate_face_4.png","369"
"html-button-response-mod","381","4419363","0.0-381.0","73395","","","","","","triplet","3129.699999988079","","","","0","stimuli/stim012_animate_face_4.png","stimuli/tree_uppercase.png","stimuli/face_uppercase.png","370"
"html-button-response-mod","382","4420378","0.0-382.0","73395","","","","","","triplet","509.7000000476837","","","","0","stimuli/fish_lowercase.png","stimuli/stim008_animate_bird_4.png","stimuli/stim024_inanimate_tools_4.png","371"
"html-button-response-mod","383","4422730","0.0-383.0","73395","","","","","","triplet","1848","","","","2","stimuli/tree_uppercase.png","stimuli/stim019_inanimate_tree_3.png","stimuli/stim002_animate_fish_2.png","372"
"html-button-response-mod","384","4424579","0.0-384.0","73395","","","","","","triplet","1342.199999988079","","","","0","stimuli/stim015_inanimate_boats_3.png","stimuli/stim011_animate_face_3.png","stimuli/stim009_animate_face_1.png","373"
"html-button-response-mod","385","4426762","0.0-385.0","73395","","","","","","triplet","1674.6000000238419","","","","2","stimuli/stim013_inanimate_boats_1.png","stimuli/stim004_animate_fish_4.png","stimuli/tree_lowercase.png","374"
"html-button-response-mod","386","4428197","0.0-386.0","73395","","","","","","triplet","927.8000000119209","","","","2","stimuli/face_uppercase.png","stimuli/fish_uppercase.png","stimuli/stim016_inanimate_boats_4.png","375"
"html-button-response-mod","387","4429480","0.0-387.0","73395","","","","","","triplet","778","","","","2","stimuli/stim019_inanimate_tree_3.png","stimuli/stim018_inanimate_tree_2.png","stimuli/stim022_inanimate_tools_2.png","376"
"html-button-response-mod","388","4430930","0.0-388.0","73395","","","","","","triplet","944.2000000476837","","","","1","stimuli/fish_lowercase.png","stimuli/stim022_inanimate_tools_2.png","stimuli/bird_uppercase.png","377"
"html-button-response-mod","389","4432446","0.0-389.0","73395","","","","","","triplet","1010.6000000238419","","","","2","stimuli/stim006_animate_bird_2.png","stimuli/stim013_inanimate_boats_1.png","stimuli/face_lowercase.png","378"
"html-button-response-mod","390","4434130","0.0-390.0","73395","","","","","","triplet","1180.2999999523163","","","","2","stimuli/stim007_animate_bird_3.png","stimuli/stim024_inanimate_tools_4.png","stimuli/stim012_animate_face_4.png","379"
"html-button-response-mod","391","4435964","0.0-391.0","73395","","","","","","triplet","1326.699999988079","","","","1","stimuli/stim003_animate_fish_3.png","stimuli/stim018_inanimate_tree_2.png","stimuli/stim004_animate_fish_4.png","380"
"html-button-response-mod","392","4437647","0.0-392.0","73395","","","","","","triplet","1176.300000011921","","","","1","stimuli/stim008_animate_bird_4.png","stimuli/stim021_inanimate_tools_1.png","stimuli/stim003_animate_fish_3.png","381"
"html-button-response-mod","393","4439647","0.0-393.0","73395","","","","","","triplet","1495.5","","","","0","stimuli/stim007_animate_bird_3.png","stimuli/stim011_animate_face_3.png","stimuli/stim010_animate_face_2.png","382"
"html-button-response-mod","394","4440930","0.0-394.0","73395","","","","","","triplet","779.3999999761581","","","","0","stimuli/stim024_inanimate_tools_4.png","stimuli/stim004_animate_fish_4.png","stimuli/tools_uppercase.png","383"
"html-button-response-mod","395","4442397","0.0-395.0","73395","","","","","","triplet","963.5","","","","2","stimuli/stim009_animate_face_1.png","stimuli/stim014_inanimate_boats_2.png","stimuli/bird_lowercase.png","384"
"html-button-response-mod","396","4443613","0.0-396.0","73395","","","","","","triplet","709.5","","","","2","stimuli/bird_lowercase.png","stimuli/stim020_inanimate_tree_4.png","stimuli/stim022_inanimate_tools_2.png","385"
"html-button-response-mod","397","4444931","0.0-397.0","73395","","","","","","triplet","810.6000000238419","","","","2","stimuli/stim019_inanimate_tree_3.png","stimuli/boats_lowercase.png","stimuli/fish_uppercase.png","386"
"html-button-response-mod","398","4446996","0.0-398.0","73395","","","","","","triplet","1559","","","","0","stimuli/fish_lowercase.png","stimuli/stim019_inanimate_tree_3.png","stimuli/stim002_animate_fish_2.png","387"
"html-button-response-mod","399","4449395","0.0-399.0","73395","","","","","","triplet","1892","","","","2","stimuli/stim004_animate_fish_4.png","stimuli/fish_uppercase.png","stimuli/stim011_animate_face_3.png","388"
"html-button-response-mod","400","4451347","0.0-400.0","73395","","","","","","triplet","1443.199999988079","","","","2","stimuli/face_uppercase.png","stimuli/tree_lowercase.png","stimuli/bird_lowercase.png","389"
"html-button-response-mod","401","4453263","0.0-401.0","73395","","","","","","triplet","1409.6000000238419","","","","0","stimuli/boats_lowercase.png","stimuli/stim006_animate_bird_2.png","stimuli/stim008_animate_bird_4.png","390"
"html-button-response-mod","402","4455430","0.0-402.0","73395","","","","","","triplet","1660.8999999761581","","","","0","stimuli/stim003_animate_fish_3.png","stimuli/tree_lowercase.png","stimuli/fish_uppercase.png","391"
"html-button-response-mod","403","4457180","0.0-403.0","73395","","","","","","triplet","1242.7000000476837","","","","1","stimuli/fish_lowercase.png","stimuli/stim024_inanimate_tools_4.png","stimuli/bird_lowercase.png","392"
"html-button-response-mod","404","4460297","0.0-404.0","73395","","","","","","triplet","2611.099999964237","","","","0","stimuli/stim003_animate_fish_3.png","stimuli/stim007_animate_bird_3.png","stimuli/stim008_animate_bird_4.png","393"
"html-button-response-mod","405","4464463","0.0-405.0","73395","","","","","","triplet","3659","","","","2","stimuli/stim016_inanimate_boats_4.png","stimuli/stim013_inanimate_boats_1.png","stimuli/stim023_inanimate_tools_3.png","394"
"html-button-response-mod","406","4467014","0.0-406.0","73395","","","","","","triplet","2046.300000011921","","","","0","stimuli/stim021_inanimate_tools_1.png","stimuli/stim015_inanimate_boats_3.png","stimuli/stim012_animate_face_4.png","395"
"html-button-response-mod","407","4468863","0.0-407.0","73395","","","","","","triplet","1341.800000011921","","","","1","stimuli/stim019_inanimate_tree_3.png","stimuli/stim021_inanimate_tools_1.png","stimuli/tools_uppercase.png","396"
"html-button-response-mod","408","4470697","0.0-408.0","73395","","","","","","triplet","1328.6000000238419","","","","2","stimuli/stim002_animate_fish_2.png","stimuli/stim006_animate_bird_2.png","stimuli/stim019_inanimate_tree_3.png","397"
"html-button-response-mod","409","4473165","0.0-409.0","73395","","","","","","triplet","1960.5999999642372","","","","2","stimuli/stim002_animate_fish_2.png","stimuli/stim022_inanimate_tools_2.png","stimuli/stim012_animate_face_4.png","398"
"html-button-response-mod","410","4475630","0.0-410.0","73395","","","","","","triplet","1959.3999999761581","","","","0","stimuli/stim002_animate_fish_2.png","stimuli/tree_uppercase.png","stimuli/fish_uppercase.png","399"
"html-button-response","411","4477263","0.0-411.0","73395","","","","","","break","1126.5","<p>BREAK</p><p>Take a break for as long as you need</p><p>Click the button to continue</p>","0","","","","","",""
"survey-text","412","5317700","0.0-412.0","73395","","","","","","data_patterns","235286.19999998808","","{""Q0"":""When an image matched another image or word that represented the same thing, then I would choose it. ""}","","","","","",""
"survey-text","413","5320949","0.0-413.0","73395","","","","","","age_question","3247.699999988079","","{""Age"":""18""}","","","","","",""
"html-button-response","414","5322168","0.0-414.0","73395","","","","","","gender_question","1217.199999988079","How would you like your gender to be recorded?","1","","","","","",""
