"trial_type","trial_index","time_elapsed","internal_node_id","subject","success","timeout","failed_images","failed_audio","failed_video","test_part","rt","stimulus","response","end_time","button_pressed","stim0","stim1","stim2","trialnr"
"pavlovia","0","9","0.0-0.0","73078","","","","","","","","","","","","","","",""
"preload","1","3547","0.0-1.0","73078","true","false","[]","[]","[]","preload","","","","","","","","",""
"html-button-response","2","8150","0.0-2.0","73078","","","","","","","4599.60000038147","<p>Welcome to the experiment. To begin, please read the following and press the button at the bottom of the screen.</p><p></p><p><strong>Project Name: A study on cognitive processes involved in visual perception</p></strong><p></p><p><strong>PARTICIPANT INFORMATION STATEMENT</strong></p><p></p><strong>(1) What is the study about?</strong><br>You are invited to participate in a study that investigates the cognitive processes involved in perceiving and recognizing visual stimuli.If you decide to participate, you will be asked to complete a task in which you will view pictures, letters, numbers, or words presented on a computer screen.<br><strong>(2) Who can participate?</strong><br>Anyone aged 18 years or over with access to a computer (not a phone/tablet)<br><strong>(3) Where is the study located?</strong><br>The study will be conducted in your browser<br><strong>(4) Who is carrying out the study?</strong><br>The study is being conducted by Sophia Shatek from the Computational Cognitive Neuroscience laboratory at the University of Sydney.<br><strong>(5) What does the study involve?</strong><br>In this study, you will be asked to perform tasks where you will see different stimuli appear on the computer screen.You will respond by pressing a key or using a computer mouse.<br><strong>(6) How much time will the study take?</strong><br>The study takes about 30 minutes<br><strong>(7)	Can I withdraw from the study?</strong><br>Being in this study is completely voluntary - you are not under any obligation to consent. You can withdraw at any time without having to give a reason and without penalty.<br><strong>(8) Will anyone else know the results?</strong><br>All aspects of the study, including results, will be strictly confidential and only the researchers will have access to information on participants.The results and data from the study may be submitted for publication or shared with other research labs, but individual participants will not be identifiable.<br><strong>(9) Will the study benefit me?</strong><br>You will be awarded 0.5 credits for your participation.<br><strong>(10) Can I tell other people about the study?</strong><br>Yes, please tell them to contact Dr Thomas Carlson by email at thomas.carlson@sydney.edu.au.<br><strong>(11) What if I require further information about the study or my involvement in it?</strong><br>When you have read this information, the investigator will discuss it with you further and answer any questions you may have.If you would like to know more at any stage, please feel free to contact Dr Thomas Carlson directly by email at thomas.carlson@sydney.edu.au.If you would like to be informed about the outcomes of the study, contact Dr Thomas Carlson directly by email at thomas.carlson@sydney.edu.au.<br><strong>(12) What if I have a complaint or any concerns?</strong><br>Any person with concerns or complaints about the conduct of a research study can contact The Manager,Human Ethics Administration, University of Sydney on +61 2 8627 8176 (Telephone); +61 2 8627 8177 (Facsimile) or ro.humanethics@sydney.edu.au (Email).</p><p></p><strong>By participating in this experiment, you consent to participate in this study and acknowledge that:</strong><br>1. The procedures required for the project and the times involved have been explained to me, and any questions I have about the project have been answered to my satisfaction.<br>2.	I have read the Above Information Statement and have been given the opportunity to discuss the information and my involvement in the project with the researcher/s.<br>3. I understand that allowing my data to be used in research reports is completely voluntary - I am not under any obligation to consent.<br>4. I understand that my involvement is strictly confidential. I understand that any research data gathered from the results of the study may be publishedhowever no information about me will be used in any way that is identifiable.</p><p></p>","0","","","","","",""
"html-button-response","3","9316","0.0-3.0","73078","","","","","","opening_instructions","1163.5","<p>In this experiment, you will see three images appear on the screen.</p><p>You need to click the 'odd one out', or the image </p><p>that LOOKS MOST DIFFERENT to the other two. </p><p>Just go with your intuition, don't spend too long thinking about each one.</p>","0","12556","","","","",""
"html-button-response-mod","4","17933","0.0-4.0","73078","","","","","","triplet","8613.200000286102","","","","0","stimuli/stim012_animate_face_4.png","stimuli/face_lowercase.png","stimuli/tools_lowercase.png","0"
"html-button-response-mod","5","33584","0.0-5.0","73078","","","","","","triplet","15142.799999713898","","","","0","stimuli/boats_uppercase.png","stimuli/tools_uppercase.png","stimuli/stim024_inanimate_tools_4.png","1"
"html-button-response-mod","6","46569","0.0-6.0","73078","","","","","","triplet","12477.200000286102","","","","2","stimuli/stim008_animate_bird_4.png","stimuli/stim011_animate_face_3.png","stimuli/stim021_inanimate_tools_1.png","2"
"html-button-response-mod","7","52702","0.0-7.0","73078","","","","","","triplet","5625.200000286102","","","","1","stimuli/tools_uppercase.png","stimuli/stim022_inanimate_tools_2.png","stimuli/tools_lowercase.png","3"
"html-button-response-mod","8","55419","0.0-8.0","73078","","","","","","triplet","2211.699999809265","","","","2","stimuli/stim001_animate_fish_1.png","stimuli/stim004_animate_fish_4.png","stimuli/stim019_inanimate_tree_3.png","4"
"html-button-response-mod","9","58670","0.0-9.0","73078","","","","","","triplet","2742.199999809265","","","","2","stimuli/stim004_animate_fish_4.png","stimuli/stim016_inanimate_boats_4.png","stimuli/stim022_inanimate_tools_2.png","5"
"html-button-response-mod","10","64154","0.0-10.0","73078","","","","","","triplet","4976.5","","","","0","stimuli/stim010_animate_face_2.png","stimuli/stim004_animate_fish_4.png","stimuli/fish_lowercase.png","6"
"html-button-response-mod","11","68237","0.0-11.0","73078","","","","","","triplet","3578","","","","0","stimuli/boats_uppercase.png","stimuli/stim005_animate_bird_1.png","stimuli/stim007_animate_bird_3.png","7"
"html-button-response-mod","12","71103","0.0-12.0","73078","","","","","","triplet","2359.4000000953674","","","","2","stimuli/stim016_inanimate_boats_4.png","stimuli/stim013_inanimate_boats_1.png","stimuli/stim010_animate_face_2.png","8"
"html-button-response-mod","13","78156","0.0-13.0","73078","","","","","","triplet","6544.900000095367","","","","1","stimuli/stim013_inanimate_boats_1.png","stimuli/tree_uppercase.png","stimuli/stim024_inanimate_tools_4.png","9"
"html-button-response-mod","14","82354","0.0-14.0","73078","","","","","","triplet","3694.800000190735","","","","0","stimuli/tree_uppercase.png","stimuli/stim001_animate_fish_1.png","stimuli/stim016_inanimate_boats_4.png","10"
"html-button-response-mod","15","88222","0.0-15.0","73078","","","","","","triplet","5360.199999809265","","","","2","stimuli/stim016_inanimate_boats_4.png","stimuli/boats_uppercase.png","stimuli/fish_uppercase.png","11"
"html-button-response-mod","16","96090","0.0-16.0","73078","","","","","","triplet","7360.200000286102","","","","0","stimuli/stim010_animate_face_2.png","stimuli/stim006_animate_bird_2.png","stimuli/stim011_animate_face_3.png","12"
"html-button-response-mod","17","99390","0.0-17.0","73078","","","","","","triplet","2792.9000000953674","","","","2","stimuli/stim006_animate_bird_2.png","stimuli/fish_lowercase.png","stimuli/stim018_inanimate_tree_2.png","13"
"html-button-response-mod","18","100939","0.0-18.0","73078","","","","","","triplet","1046.0999999046326","","","","0","stimuli/tree_lowercase.png","stimuli/stim007_animate_bird_3.png","stimuli/stim005_animate_bird_1.png","14"
"html-button-response-mod","19","102122","0.0-19.0","73078","","","","","","triplet","681.4000000953674","","","","2","stimuli/stim020_inanimate_tree_4.png","stimuli/stim010_animate_face_2.png","stimuli/stim001_animate_fish_1.png","15"
"html-button-response-mod","20","103124","0.0-20.0","73078","","","","","","triplet","496.7000002861023","","","","0","stimuli/tree_lowercase.png","stimuli/stim005_animate_bird_1.png","stimuli/stim001_animate_fish_1.png","16"
"html-button-response-mod","21","104124","0.0-21.0","73078","","","","","","triplet","498.40000009536743","","","","2","stimuli/stim011_animate_face_3.png","stimuli/stim016_inanimate_boats_4.png","stimuli/stim020_inanimate_tree_4.png","17"
"html-button-response-mod","22","106240","0.0-22.0","73078","","","","","","triplet","1614","","","","0","stimuli/tree_uppercase.png","stimuli/stim004_animate_fish_4.png","stimuli/tree_lowercase.png","18"
"html-button-response-mod","23","107173","0.0-23.0","73078","","","","","","triplet","430.7000002861023","","","","1","stimuli/tools_uppercase.png","stimuli/stim023_inanimate_tools_3.png","stimuli/stim012_animate_face_4.png","19"
"html-button-response-mod","24","108390","0.0-24.0","73078","","","","","","triplet","714.5","","","","1","stimuli/stim003_animate_fish_3.png","stimuli/bird_uppercase.png","stimuli/stim011_animate_face_3.png","20"
"html-button-response-mod","25","110624","0.0-25.0","73078","","","","","","triplet","1730","","","","2","stimuli/stim002_animate_fish_2.png","stimuli/stim016_inanimate_boats_4.png","stimuli/stim015_inanimate_boats_3.png","21"
"html-button-response-mod","26","114741","0.0-26.0","73078","","","","","","triplet","3609.7000002861023","","","","1","stimuli/stim020_inanimate_tree_4.png","stimuli/fish_uppercase.png","stimuli/stim007_animate_bird_3.png","22"
"html-button-response-mod","27","117208","0.0-27.0","73078","","","","","","triplet","1959.0999999046326","","","","0","stimuli/stim024_inanimate_tools_4.png","stimuli/stim005_animate_bird_1.png","stimuli/stim009_animate_face_1.png","23"
"html-button-response-mod","28","119559","0.0-28.0","73078","","","","","","triplet","1843.0999999046326","","","","1","stimuli/tools_uppercase.png","stimuli/fish_lowercase.png","stimuli/stim022_inanimate_tools_2.png","24"
"html-button-response-mod","29","122462","0.0-29.0","73078","","","","","","triplet","2396.7999997138977","","","","0","stimuli/stim015_inanimate_boats_3.png","stimuli/stim018_inanimate_tree_2.png","stimuli/tree_lowercase.png","25"
"html-button-response-mod","30","125725","0.0-30.0","73078","","","","","","triplet","2759.4000000953674","","","","1","stimuli/stim019_inanimate_tree_3.png","stimuli/stim021_inanimate_tools_1.png","stimuli/fish_uppercase.png","26"
"html-button-response-mod","31","127643","0.0-31.0","73078","","","","","","triplet","1413","","","","1","stimuli/boats_lowercase.png","stimuli/fish_uppercase.png","stimuli/stim002_animate_fish_2.png","27"
"html-button-response-mod","32","129058","0.0-32.0","73078","","","","","","triplet","907.2000002861023","","","","0","stimuli/stim010_animate_face_2.png","stimuli/fish_lowercase.png","stimuli/stim012_animate_face_4.png","28"
"html-button-response-mod","33","130476","0.0-33.0","73078","","","","","","triplet","909","","","","1","stimuli/stim010_animate_face_2.png","stimuli/tree_lowercase.png","stimuli/stim020_inanimate_tree_4.png","29"
"html-button-response-mod","34","131393","0.0-34.0","73078","","","","","","triplet","414.19999980926514","","","","0","stimuli/stim024_inanimate_tools_4.png","stimuli/tree_lowercase.png","stimuli/face_uppercase.png","30"
"html-button-response-mod","35","132359","0.0-35.0","73078","","","","","","triplet","463.59999990463257","","","","2","stimuli/stim021_inanimate_tools_1.png","stimuli/stim016_inanimate_boats_4.png","stimuli/stim007_animate_bird_3.png","31"
"html-button-response-mod","36","133276","0.0-36.0","73078","","","","","","triplet","412.6000003814697","","","","0","stimuli/stim013_inanimate_boats_1.png","stimuli/stim005_animate_bird_1.png","stimuli/stim010_animate_face_2.png","32"
"html-button-response-mod","37","134077","0.0-37.0","73078","","","","","","triplet","297.80000019073486","","","","1","stimuli/stim023_inanimate_tools_3.png","stimuli/face_uppercase.png","stimuli/tree_lowercase.png","33"
"html-button-response-mod","38","134976","0.0-38.0","73078","","","","","","triplet","394.7999997138977","","","","1","stimuli/stim012_animate_face_4.png","stimuli/stim008_animate_bird_4.png","stimuli/bird_uppercase.png","34"
"html-button-response-mod","39","135859","0.0-39.0","73078","","","","","","triplet","380.30000019073486","","","","1","stimuli/stim006_animate_bird_2.png","stimuli/stim010_animate_face_2.png","stimuli/tree_uppercase.png","35"
"html-button-response-mod","40","137543","0.0-40.0","73078","","","","","","triplet","1179.2000002861023","","","","2","stimuli/stim015_inanimate_boats_3.png","stimuli/stim013_inanimate_boats_1.png","stimuli/bird_uppercase.png","36"
"html-button-response-mod","41","138660","0.0-41.0","73078","","","","","","triplet","614.5999999046326","","","","0","stimuli/face_uppercase.png","stimuli/stim017_inanimate_tree_1.png","stimuli/stim006_animate_bird_2.png","37"
"html-button-response-mod","42","139710","0.0-42.0","73078","","","","","","triplet","541.6999998092651","","","","0","stimuli/stim020_inanimate_tree_4.png","stimuli/stim001_animate_fish_1.png","stimuli/stim012_animate_face_4.png","38"
"html-button-response-mod","43","140576","0.0-43.0","73078","","","","","","triplet","364","","","","1","stimuli/bird_uppercase.png","stimuli/stim004_animate_fish_4.png","stimuli/boats_uppercase.png","39"
"html-button-response-mod","44","142261","0.0-44.0","73078","","","","","","triplet","1182","","","","1","stimuli/fish_uppercase.png","stimuli/tree_uppercase.png","stimuli/stim003_animate_fish_3.png","40"
"html-button-response-mod","45","143377","0.0-45.0","73078","","","","","","triplet","613.5","","","","0","stimuli/stim012_animate_face_4.png","stimuli/stim003_animate_fish_3.png","stimuli/tools_uppercase.png","41"
"html-button-response-mod","46","144376","0.0-46.0","73078","","","","","","triplet","497.09999990463257","","","","1","stimuli/stim002_animate_fish_2.png","stimuli/stim014_inanimate_boats_2.png","stimuli/stim006_animate_bird_2.png","42"
"html-button-response-mod","47","145427","0.0-47.0","73078","","","","","","triplet","546.8000001907349","","","","1","stimuli/stim015_inanimate_boats_3.png","stimuli/stim012_animate_face_4.png","stimuli/stim021_inanimate_tools_1.png","43"
"html-button-response-mod","48","146461","0.0-48.0","73078","","","","","","triplet","531","","","","1","stimuli/stim005_animate_bird_1.png","stimuli/boats_uppercase.png","stimuli/stim015_inanimate_boats_3.png","44"
"html-button-response-mod","49","147427","0.0-49.0","73078","","","","","","triplet","464.5","","","","0","stimuli/face_uppercase.png","stimuli/stim017_inanimate_tree_1.png","stimuli/stim009_animate_face_1.png","45"
"html-button-response-mod","50","148794","0.0-50.0","73078","","","","","","triplet","864.5","","","","0","stimuli/fish_uppercase.png","stimuli/stim019_inanimate_tree_3.png","stimuli/stim003_animate_fish_3.png","46"
"html-button-response-mod","51","149644","0.0-51.0","73078","","","","","","triplet","347.5","","","","1","stimuli/bird_uppercase.png","stimuli/stim024_inanimate_tools_4.png","stimuli/stim013_inanimate_boats_1.png","47"
"html-button-response-mod","52","150928","0.0-52.0","73078","","","","","","triplet","781.4000000953674","","","","2","stimuli/stim016_inanimate_boats_4.png","stimuli/stim015_inanimate_boats_3.png","stimuli/stim022_inanimate_tools_2.png","48"
"html-button-response-mod","53","152029","0.0-53.0","73078","","","","","","triplet","598.1999998092651","","","","0","stimuli/bird_uppercase.png","stimuli/face_lowercase.png","stimuli/stim008_animate_bird_4.png","49"
"html-button-response","54","153828","0.0-54.0","73078","","","","","","break","1296.3999996185303","<p>BREAK</p><p>Take a break for as long as you need</p><p>Click the button to continue</p>","0","","","","","",""
"html-button-response-mod","55","154578","0.0-55.0","73078","","","","","","triplet","746.8000001907349","","","","1","stimuli/face_uppercase.png","stimuli/stim013_inanimate_boats_1.png","stimuli/stim023_inanimate_tools_3.png","50"
"html-button-response-mod","56","155628","0.0-56.0","73078","","","","","","triplet","548.0999999046326","","","","2","stimuli/bird_lowercase.png","stimuli/stim016_inanimate_boats_4.png","stimuli/stim021_inanimate_tools_1.png","51"
"html-button-response-mod","57","156645","0.0-57.0","73078","","","","","","triplet","513.6999998092651","","","","1","stimuli/stim022_inanimate_tools_2.png","stimuli/stim009_animate_face_1.png","stimuli/stim013_inanimate_boats_1.png","52"
"html-button-response-mod","58","157612","0.0-58.0","73078","","","","","","triplet","464.19999980926514","","","","0","stimuli/face_uppercase.png","stimuli/stim002_animate_fish_2.png","stimuli/stim006_animate_bird_2.png","53"
"html-button-response-mod","59","158678","0.0-59.0","73078","","","","","","triplet","562.5999999046326","","","","2","stimuli/stim004_animate_fish_4.png","stimuli/stim021_inanimate_tools_1.png","stimuli/stim008_animate_bird_4.png","54"
"html-button-response-mod","60","160279","0.0-60.0","73078","","","","","","triplet","1099.5","","","","0","stimuli/boats_uppercase.png","stimuli/stim007_animate_bird_3.png","stimuli/stim018_inanimate_tree_2.png","55"
"html-button-response-mod","61","166063","0.0-61.0","73078","","","","","","triplet","5279.099999904633","","","","2","stimuli/stim004_animate_fish_4.png","stimuli/stim003_animate_fish_3.png","stimuli/fish_lowercase.png","56"
"html-button-response-mod","62","169230","0.0-62.0","73078","","","","","","triplet","2662.199999809265","","","","0","stimuli/face_lowercase.png","stimuli/stim004_animate_fish_4.png","stimuli/tree_uppercase.png","57"
"html-button-response-mod","63","170380","0.0-63.0","73078","","","","","","triplet","640.8000001907349","","","","0","stimuli/boats_uppercase.png","stimuli/stim015_inanimate_boats_3.png","stimuli/stim010_animate_face_2.png","58"
"html-button-response-mod","64","171313","0.0-64.0","73078","","","","","","triplet","430.8999996185303","","","","1","stimuli/stim018_inanimate_tree_2.png","stimuli/boats_uppercase.png","stimuli/stim004_animate_fish_4.png","59"
"html-button-response-mod","65","173180","0.0-65.0","73078","","","","","","triplet","1363","","","","2","stimuli/stim010_animate_face_2.png","stimuli/stim011_animate_face_3.png","stimuli/stim018_inanimate_tree_2.png","60"
"html-button-response-mod","66","174447","0.0-66.0","73078","","","","","","triplet","764.6999998092651","","","","1","stimuli/stim017_inanimate_tree_1.png","stimuli/stim015_inanimate_boats_3.png","stimuli/stim002_animate_fish_2.png","61"
"html-button-response-mod","67","175362","0.0-67.0","73078","","","","","","triplet","407.5","","","","0","stimuli/stim003_animate_fish_3.png","stimuli/boats_lowercase.png","stimuli/stim017_inanimate_tree_1.png","62"
"html-button-response-mod","68","176547","0.0-68.0","73078","","","","","","triplet","681.8000001907349","","","","2","stimuli/stim004_animate_fish_4.png","stimuli/stim021_inanimate_tools_1.png","stimuli/stim014_inanimate_boats_2.png","63"
"html-button-response-mod","69","178063","0.0-69.0","73078","","","","","","triplet","1012.3000001907349","","","","0","stimuli/stim017_inanimate_tree_1.png","stimuli/bird_uppercase.png","stimuli/stim001_animate_fish_1.png","64"
"html-button-response-mod","70","179614","0.0-70.0","73078","","","","","","triplet","1048.2000002861023","","","","2","stimuli/tree_uppercase.png","stimuli/stim018_inanimate_tree_2.png","stimuli/bird_lowercase.png","65"
"html-button-response-mod","71","182246","0.0-71.0","73078","","","","","","triplet","2127","","","","1","stimuli/stim006_animate_bird_2.png","stimuli/stim018_inanimate_tree_2.png","stimuli/stim005_animate_bird_1.png","66"
"html-button-response-mod","72","184330","0.0-72.0","73078","","","","","","triplet","1576.3000001907349","","","","1","stimuli/stim004_animate_fish_4.png","stimuli/tools_lowercase.png","stimuli/stim017_inanimate_tree_1.png","67"
"html-button-response-mod","73","186147","0.0-73.0","73078","","","","","","triplet","1307.7999997138977","","","","0","stimuli/boats_lowercase.png","stimuli/stim006_animate_bird_2.png","stimuli/stim008_animate_bird_4.png","68"
"html-button-response-mod","74","187980","0.0-74.0","73078","","","","","","triplet","1331.5","","","","0","stimuli/stim022_inanimate_tools_2.png","stimuli/stim013_inanimate_boats_1.png","stimuli/stim015_inanimate_boats_3.png","69"
"html-button-response-mod","75","189614","0.0-75.0","73078","","","","","","triplet","1130.4000000953674","","","","2","stimuli/stim015_inanimate_boats_3.png","stimuli/stim006_animate_bird_2.png","stimuli/fish_lowercase.png","70"
"html-button-response-mod","76","191598","0.0-76.0","73078","","","","","","triplet","1479.4000000953674","","","","0","stimuli/fish_lowercase.png","stimuli/fish_uppercase.png","stimuli/face_uppercase.png","71"
"html-button-response-mod","77","192347","0.0-77.0","73078","","","","","","triplet","246.39999961853027","","","","1","stimuli/stim002_animate_fish_2.png","stimuli/stim007_animate_bird_3.png","stimuli/stim015_inanimate_boats_3.png","72"
"html-button-response-mod","78","193331","0.0-78.0","73078","","","","","","triplet","481.5","","","","1","stimuli/stim023_inanimate_tools_3.png","stimuli/stim015_inanimate_boats_3.png","stimuli/stim002_animate_fish_2.png","73"
"html-button-response-mod","79","194181","0.0-79.0","73078","","","","","","triplet","348","","","","2","stimuli/stim006_animate_bird_2.png","stimuli/stim002_animate_fish_2.png","stimuli/stim012_animate_face_4.png","74"
"html-button-response-mod","80","195081","0.0-80.0","73078","","","","","","triplet","397.6000003814697","","","","1","stimuli/stim012_animate_face_4.png","stimuli/stim022_inanimate_tools_2.png","stimuli/stim013_inanimate_boats_1.png","75"
"html-button-response-mod","81","195947","0.0-81.0","73078","","","","","","triplet","363.5","","","","1","stimuli/tools_uppercase.png","stimuli/stim021_inanimate_tools_1.png","stimuli/tree_uppercase.png","76"
"html-button-response-mod","82","197149","0.0-82.0","73078","","","","","","triplet","698.1999998092651","","","","0","stimuli/stim020_inanimate_tree_4.png","stimuli/tools_lowercase.png","stimuli/fish_uppercase.png","77"
"html-button-response-mod","83","198031","0.0-83.0","73078","","","","","","triplet","378.40000009536743","","","","1","stimuli/stim019_inanimate_tree_3.png","stimuli/stim006_animate_bird_2.png","stimuli/stim021_inanimate_tools_1.png","78"
"html-button-response-mod","84","199065","0.0-84.0","73078","","","","","","triplet","531.1999998092651","","","","0","stimuli/fish_uppercase.png","stimuli/stim022_inanimate_tools_2.png","stimuli/stim020_inanimate_tree_4.png","79"
"html-button-response-mod","85","199950","0.0-85.0","73078","","","","","","triplet","380.90000009536743","","","","1","stimuli/stim020_inanimate_tree_4.png","stimuli/stim002_animate_fish_2.png","stimuli/tools_lowercase.png","80"
"html-button-response-mod","86","200982","0.0-86.0","73078","","","","","","triplet","529","","","","0","stimuli/face_lowercase.png","stimuli/stim011_animate_face_3.png","stimuli/boats_lowercase.png","81"
"html-button-response-mod","87","202249","0.0-87.0","73078","","","","","","triplet","757.9000000953674","","","","1","stimuli/stim006_animate_bird_2.png","stimuli/stim018_inanimate_tree_2.png","stimuli/stim009_animate_face_1.png","82"
"html-button-response-mod","88","203132","0.0-88.0","73078","","","","","","triplet","379.19999980926514","","","","1","stimuli/stim001_animate_fish_1.png","stimuli/stim004_animate_fish_4.png","stimuli/stim020_inanimate_tree_4.png","83"
"html-button-response-mod","89","204016","0.0-89.0","73078","","","","","","triplet","380.1000003814697","","","","2","stimuli/stim006_animate_bird_2.png","stimuli/stim010_animate_face_2.png","stimuli/stim005_animate_bird_1.png","84"
"html-button-response-mod","90","204966","0.0-90.0","73078","","","","","","triplet","443.69999980926514","","","","1","stimuli/stim011_animate_face_3.png","stimuli/stim002_animate_fish_2.png","stimuli/stim019_inanimate_tree_3.png","85"
"html-button-response-mod","91","206149","0.0-91.0","73078","","","","","","triplet","680.5","","","","0","stimuli/stim021_inanimate_tools_1.png","stimuli/tree_lowercase.png","stimuli/bird_uppercase.png","86"
"html-button-response-mod","92","207133","0.0-92.0","73078","","","","","","triplet","481.6000003814697","","","","2","stimuli/stim022_inanimate_tools_2.png","stimuli/stim014_inanimate_boats_2.png","stimuli/bird_lowercase.png","87"
"html-button-response-mod","93","208266","0.0-93.0","73078","","","","","","triplet","629.9000000953674","","","","0","stimuli/stim019_inanimate_tree_3.png","stimuli/stim022_inanimate_tools_2.png","stimuli/stim015_inanimate_boats_3.png","88"
"html-button-response-mod","94","209283","0.0-94.0","73078","","","","","","triplet","509.19999980926514","","","","1","stimuli/fish_uppercase.png","stimuli/stim001_animate_fish_1.png","stimuli/stim019_inanimate_tree_3.png","89"
"html-button-response-mod","95","210566","0.0-95.0","73078","","","","","","triplet","779.5","","","","0","stimuli/stim020_inanimate_tree_4.png","stimuli/stim015_inanimate_boats_3.png","stimuli/stim002_animate_fish_2.png","90"
"html-button-response-mod","96","211450","0.0-96.0","73078","","","","","","triplet","379.2000002861023","","","","1","stimuli/stim016_inanimate_boats_4.png","stimuli/stim010_animate_face_2.png","stimuli/tools_uppercase.png","91"
"html-button-response-mod","97","212549","0.0-97.0","73078","","","","","","triplet","596.4000000953674","","","","0","stimuli/stim020_inanimate_tree_4.png","stimuli/stim005_animate_bird_1.png","stimuli/bird_uppercase.png","92"
"html-button-response-mod","98","213566","0.0-98.0","73078","","","","","","triplet","514.5999999046326","","","","1","stimuli/stim007_animate_bird_3.png","stimuli/stim003_animate_fish_3.png","stimuli/stim024_inanimate_tools_4.png","93"
"html-button-response-mod","99","214482","0.0-99.0","73078","","","","","","triplet","413.90000009536743","","","","0","stimuli/tools_lowercase.png","stimuli/bird_lowercase.png","stimuli/face_lowercase.png","94"
"html-button-response-mod","100","215483","0.0-100.0","73078","","","","","","triplet","497.80000019073486","","","","2","stimuli/tools_uppercase.png","stimuli/stim003_animate_fish_3.png","stimuli/stim019_inanimate_tree_3.png","95"
"html-button-response-mod","101","216383","0.0-101.0","73078","","","","","","triplet","396.3999996185303","","","","0","stimuli/tree_uppercase.png","stimuli/fish_uppercase.png","stimuli/stim015_inanimate_boats_3.png","96"
"html-button-response-mod","102","217350","0.0-102.0","73078","","","","","","triplet","464.90000009536743","","","","2","stimuli/stim017_inanimate_tree_1.png","stimuli/face_uppercase.png","stimuli/stim012_animate_face_4.png","97"
"html-button-response-mod","103","218200","0.0-103.0","73078","","","","","","triplet","346.30000019073486","","","","1","stimuli/face_uppercase.png","stimuli/stim015_inanimate_boats_3.png","stimuli/stim003_animate_fish_3.png","98"
"html-button-response-mod","104","219083","0.0-104.0","73078","","","","","","triplet","381","","","","0","stimuli/tree_uppercase.png","stimuli/tree_lowercase.png","stimuli/bird_uppercase.png","99"
"html-button-response","105","220484","0.0-105.0","73078","","","","","","break","898","<p>BREAK</p><p>Take a break for as long as you need</p><p>Click the button to continue</p>","0","","","","","",""
"html-button-response-mod","106","221084","0.0-106.0","73078","","","","","","triplet","597.0999999046326","","","","0","stimuli/stim004_animate_fish_4.png","stimuli/stim016_inanimate_boats_4.png","stimuli/stim008_animate_bird_4.png","100"
"html-button-response-mod","107","222034","0.0-107.0","73078","","","","","","triplet","446.5","","","","2","stimuli/stim014_inanimate_boats_2.png","stimuli/stim008_animate_bird_4.png","stimuli/tree_lowercase.png","101"
"html-button-response-mod","108","222934","0.0-108.0","73078","","","","","","triplet","396","","","","0","stimuli/stim020_inanimate_tree_4.png","stimuli/tools_lowercase.png","stimuli/stim010_animate_face_2.png","102"
"html-button-response-mod","109","223933","0.0-109.0","73078","","","","","","triplet","497","","","","1","stimuli/stim002_animate_fish_2.png","stimuli/bird_lowercase.png","stimuli/stim018_inanimate_tree_2.png","103"
"html-button-response-mod","110","224883","0.0-110.0","73078","","","","","","triplet","447.19999980926514","","","","0","stimuli/stim002_animate_fish_2.png","stimuli/tools_uppercase.png","stimuli/stim008_animate_bird_4.png","104"
"html-button-response-mod","111","226434","0.0-111.0","73078","","","","","","triplet","1047.6999998092651","","","","0","stimuli/face_uppercase.png","stimuli/stim001_animate_fish_1.png","stimuli/stim019_inanimate_tree_3.png","105"
"html-button-response-mod","112","227418","0.0-112.0","73078","","","","","","triplet","481.80000019073486","","","","0","stimuli/stim010_animate_face_2.png","stimuli/tools_lowercase.png","stimuli/stim017_inanimate_tree_1.png","106"
"html-button-response-mod","113","228651","0.0-113.0","73078","","","","","","triplet","728.8000001907349","","","","1","stimuli/stim002_animate_fish_2.png","stimuli/stim001_animate_fish_1.png","stimuli/stim005_animate_bird_1.png","107"
"html-button-response-mod","114","230435","0.0-114.0","73078","","","","","","triplet","1279.8000001907349","","","","1","stimuli/stim004_animate_fish_4.png","stimuli/bird_lowercase.png","stimuli/stim024_inanimate_tools_4.png","108"
"html-button-response-mod","115","231501","0.0-115.0","73078","","","","","","triplet","563.9000000953674","","","","0","stimuli/face_lowercase.png","stimuli/stim021_inanimate_tools_1.png","stimuli/stim003_animate_fish_3.png","109"
"html-button-response-mod","116","232618","0.0-116.0","73078","","","","","","triplet","613.3000001907349","","","","2","stimuli/stim011_animate_face_3.png","stimuli/stim013_inanimate_boats_1.png","stimuli/stim010_animate_face_2.png","110"
"html-button-response-mod","117","233752","0.0-117.0","73078","","","","","","triplet","630","","","","2","stimuli/stim016_inanimate_boats_4.png","stimuli/tree_uppercase.png","stimuli/stim019_inanimate_tree_3.png","111"
"html-button-response-mod","118","235718","0.0-118.0","73078","","","","","","triplet","1457.0999999046326","","","","0","stimuli/tree_lowercase.png","stimuli/stim002_animate_fish_2.png","stimuli/stim011_animate_face_3.png","112"
"html-button-response-mod","119","236936","0.0-119.0","73078","","","","","","triplet","708.5999999046326","","","","0","stimuli/stim003_animate_fish_3.png","stimuli/stim017_inanimate_tree_1.png","stimuli/stim007_animate_bird_3.png","113"
"html-button-response-mod","120","238086","0.0-120.0","73078","","","","","","triplet","645.5999999046326","","","","2","stimuli/stim003_animate_fish_3.png","stimuli/stim024_inanimate_tools_4.png","stimuli/stim009_animate_face_1.png","114"
"html-button-response-mod","121","239085","0.0-121.0","73078","","","","","","triplet","496.5","","","","0","stimuli/stim023_inanimate_tools_3.png","stimuli/stim016_inanimate_boats_4.png","stimuli/stim021_inanimate_tools_1.png","115"
"html-button-response-mod","122","240585","0.0-122.0","73078","","","","","","triplet","995.6000003814697","","","","2","stimuli/stim022_inanimate_tools_2.png","stimuli/stim013_inanimate_boats_1.png","stimuli/bird_lowercase.png","116"
"html-button-response-mod","123","242119","0.0-123.0","73078","","","","","","triplet","1026.5","","","","2","stimuli/stim013_inanimate_boats_1.png","stimuli/stim014_inanimate_boats_2.png","stimuli/stim010_animate_face_2.png","117"
"html-button-response-mod","124","243336","0.0-124.0","73078","","","","","","triplet","708.8000001907349","","","","0","stimuli/stim015_inanimate_boats_3.png","stimuli/tree_uppercase.png","stimuli/stim013_inanimate_boats_1.png","118"
"html-button-response-mod","125","244419","0.0-125.0","73078","","","","","","triplet","580.7999997138977","","","","0","stimuli/boats_uppercase.png","stimuli/stim023_inanimate_tools_3.png","stimuli/tools_lowercase.png","119"
"html-button-response-mod","126","245636","0.0-126.0","73078","","","","","","triplet","712.2999997138977","","","","2","stimuli/stim015_inanimate_boats_3.png","stimuli/stim004_animate_fish_4.png","stimuli/stim010_animate_face_2.png","120"
"html-button-response-mod","127","246586","0.0-127.0","73078","","","","","","triplet","445.5","","","","0","stimuli/stim023_inanimate_tools_3.png","stimuli/bird_lowercase.png","stimuli/tree_lowercase.png","121"
"html-button-response-mod","128","247586","0.0-128.0","73078","","","","","","triplet","497.7000002861023","","","","2","stimuli/tools_uppercase.png","stimuli/bird_uppercase.png","stimuli/stim014_inanimate_boats_2.png","122"
"html-button-response-mod","129","248903","0.0-129.0","73078","","","","","","triplet","812.5","","","","1","stimuli/stim019_inanimate_tree_3.png","stimuli/boats_uppercase.png","stimuli/stim020_inanimate_tree_4.png","123"
"html-button-response-mod","130","250386","0.0-130.0","73078","","","","","","triplet","981.1999998092651","","","","2","stimuli/stim021_inanimate_tools_1.png","stimuli/stim009_animate_face_1.png","stimuli/boats_uppercase.png","124"
"html-button-response-mod","131","251719","0.0-131.0","73078","","","","","","triplet","829.2000002861023","","","","0","stimuli/tree_lowercase.png","stimuli/stim001_animate_fish_1.png","stimuli/stim006_animate_bird_2.png","125"
"html-button-response-mod","132","253153","0.0-132.0","73078","","","","","","triplet","926.1999998092651","","","","1","stimuli/stim007_animate_bird_3.png","stimuli/stim011_animate_face_3.png","stimuli/stim004_animate_fish_4.png","126"
"html-button-response-mod","133","255518","0.0-133.0","73078","","","","","","triplet","1862","","","","2","stimuli/tree_uppercase.png","stimuli/bird_lowercase.png","stimuli/stim020_inanimate_tree_4.png","127"
"html-button-response-mod","134","257385","0.0-134.0","73078","","","","","","triplet","1362.8000001907349","","","","2","stimuli/stim021_inanimate_tools_1.png","stimuli/stim019_inanimate_tree_3.png","stimuli/tools_lowercase.png","128"
"html-button-response-mod","135","258852","0.0-135.0","73078","","","","","","triplet","963","","","","0","stimuli/boats_lowercase.png","stimuli/face_lowercase.png","stimuli/stim024_inanimate_tools_4.png","129"
"html-button-response-mod","136","260385","0.0-136.0","73078","","","","","","triplet","1030.9000000953674","","","","2","stimuli/stim010_animate_face_2.png","stimuli/stim014_inanimate_boats_2.png","stimuli/bird_lowercase.png","130"
"html-button-response-mod","137","261704","0.0-137.0","73078","","","","","","triplet","817.1000003814697","","","","0","stimuli/stim018_inanimate_tree_2.png","stimuli/stim014_inanimate_boats_2.png","stimuli/stim004_animate_fish_4.png","131"
"html-button-response-mod","138","262670","0.0-138.0","73078","","","","","","triplet","462.59999990463257","","","","1","stimuli/fish_lowercase.png","stimuli/boats_lowercase.png","stimuli/stim014_inanimate_boats_2.png","132"
"html-button-response-mod","139","263637","0.0-139.0","73078","","","","","","triplet","464.2000002861023","","","","2","stimuli/stim013_inanimate_boats_1.png","stimuli/stim004_animate_fish_4.png","stimuli/stim002_animate_fish_2.png","133"
"html-button-response-mod","140","264522","0.0-140.0","73078","","","","","","triplet","382.09999990463257","","","","1","stimuli/fish_uppercase.png","stimuli/boats_lowercase.png","stimuli/stim014_inanimate_boats_2.png","134"
"html-button-response-mod","141","265404","0.0-141.0","73078","","","","","","triplet","378.09999990463257","","","","2","stimuli/stim022_inanimate_tools_2.png","stimuli/stim016_inanimate_boats_4.png","stimuli/stim010_animate_face_2.png","135"
"html-button-response-mod","142","266321","0.0-142.0","73078","","","","","","triplet","415","","","","0","stimuli/stim019_inanimate_tree_3.png","stimuli/stim016_inanimate_boats_4.png","stimuli/stim024_inanimate_tools_4.png","136"
"html-button-response-mod","143","267255","0.0-143.0","73078","","","","","","triplet","426.69999980926514","","","","2","stimuli/tree_lowercase.png","stimuli/stim003_animate_fish_3.png","stimuli/stim010_animate_face_2.png","137"
"html-button-response-mod","144","268120","0.0-144.0","73078","","","","","","triplet","361.7999997138977","","","","0","stimuli/fish_lowercase.png","stimuli/stim006_animate_bird_2.png","stimuli/tools_uppercase.png","138"
"html-button-response-mod","145","270022","0.0-145.0","73078","","","","","","triplet","1399.1999998092651","","","","2","stimuli/stim004_animate_fish_4.png","stimuli/stim020_inanimate_tree_4.png","stimuli/face_lowercase.png","139"
"html-button-response-mod","146","271355","0.0-146.0","73078","","","","","","triplet","823.9000000953674","","","","0","stimuli/fish_lowercase.png","stimuli/stim002_animate_fish_2.png","stimuli/stim017_inanimate_tree_1.png","140"
"html-button-response-mod","147","272788","0.0-147.0","73078","","","","","","triplet","929.2999997138977","","","","2","stimuli/stim020_inanimate_tree_4.png","stimuli/stim013_inanimate_boats_1.png","stimuli/bird_uppercase.png","141"
"html-button-response-mod","148","275039","0.0-148.0","73078","","","","","","triplet","1741","","","","2","stimuli/bird_lowercase.png","stimuli/face_lowercase.png","stimuli/tools_uppercase.png","142"
"html-button-response-mod","149","276504","0.0-149.0","73078","","","","","","triplet","956.5","","","","2","stimuli/stim011_animate_face_3.png","stimuli/stim007_animate_bird_3.png","stimuli/bird_lowercase.png","143"
"html-button-response-mod","150","278373","0.0-150.0","73078","","","","","","triplet","1363.7999997138977","","","","2","stimuli/stim006_animate_bird_2.png","stimuli/stim023_inanimate_tools_3.png","stimuli/fish_uppercase.png","144"
"html-button-response-mod","151","280105","0.0-151.0","73078","","","","","","triplet","1223.2000002861023","","","","0","stimuli/stim017_inanimate_tree_1.png","stimuli/fish_uppercase.png","stimuli/fish_lowercase.png","145"
"html-button-response-mod","152","281506","0.0-152.0","73078","","","","","","triplet","891.4000000953674","","","","2","stimuli/bird_lowercase.png","stimuli/stim014_inanimate_boats_2.png","stimuli/stim019_inanimate_tree_3.png","146"
"html-button-response-mod","153","282373","0.0-153.0","73078","","","","","","triplet","364.30000019073486","","","","0","stimuli/stim003_animate_fish_3.png","stimuli/stim022_inanimate_tools_2.png","stimuli/stim017_inanimate_tree_1.png","147"
"html-button-response-mod","154","283323","0.0-154.0","73078","","","","","","triplet","445.30000019073486","","","","2","stimuli/stim013_inanimate_boats_1.png","stimuli/stim017_inanimate_tree_1.png","stimuli/fish_lowercase.png","148"
"html-button-response-mod","155","284239","0.0-155.0","73078","","","","","","triplet","413.5","","","","0","stimuli/stim001_animate_fish_1.png","stimuli/stim022_inanimate_tools_2.png","stimuli/stim009_animate_face_1.png","149"
"html-button-response","156","285673","0.0-156.0","73078","","","","","","break","930.6000003814697","<p>BREAK</p><p>Take a break for as long as you need</p><p>Click the button to continue</p>","0","","","","","",""
"html-button-response-mod","157","286489","0.0-157.0","73078","","","","","","triplet","813","","","","2","stimuli/stim022_inanimate_tools_2.png","stimuli/stim010_animate_face_2.png","stimuli/stim015_inanimate_boats_3.png","150"
"html-button-response-mod","158","287572","0.0-158.0","73078","","","","","","triplet","580.7000002861023","","","","1","stimuli/bird_lowercase.png","stimuli/tools_lowercase.png","stimuli/stim017_inanimate_tree_1.png","151"
"html-button-response-mod","159","288473","0.0-159.0","73078","","","","","","triplet","397.2999997138977","","","","2","stimuli/fish_lowercase.png","stimuli/stim022_inanimate_tools_2.png","stimuli/stim004_animate_fish_4.png","152"
"html-button-response-mod","160","289340","0.0-160.0","73078","","","","","","triplet","364.5","","","","0","stimuli/stim010_animate_face_2.png","stimuli/stim017_inanimate_tree_1.png","stimuli/stim016_inanimate_boats_4.png","153"
"html-button-response-mod","161","290207","0.0-161.0","73078","","","","","","triplet","357.80000019073486","","","","2","stimuli/stim015_inanimate_boats_3.png","stimuli/fish_uppercase.png","stimuli/boats_uppercase.png","154"
"html-button-response-mod","162","291040","0.0-162.0","73078","","","","","","triplet","330.5","","","","1","stimuli/face_uppercase.png","stimuli/stim018_inanimate_tree_2.png","stimuli/tree_uppercase.png","155"
"html-button-response-mod","163","291922","0.0-163.0","73078","","","","","","triplet","378.7000002861023","","","","0","stimuli/stim016_inanimate_boats_4.png","stimuli/tree_lowercase.png","stimuli/stim018_inanimate_tree_2.png","156"
"html-button-response-mod","164","292774","0.0-164.0","73078","","","","","","triplet","348.09999990463257","","","","2","stimuli/tree_uppercase.png","stimuli/fish_lowercase.png","stimuli/stim019_inanimate_tree_3.png","157"
"html-button-response-mod","165","293522","0.0-165.0","73078","","","","","","triplet","244.2000002861023","","","","0","stimuli/fish_lowercase.png","stimuli/stim016_inanimate_boats_4.png","stimuli/stim018_inanimate_tree_2.png","158"
"html-button-response-mod","166","294424","0.0-166.0","73078","","","","","","triplet","397.90000009536743","","","","2","stimuli/face_lowercase.png","stimuli/stim021_inanimate_tools_1.png","stimuli/stim011_animate_face_3.png","159"
"html-button-response-mod","167","295289","0.0-167.0","73078","","","","","","triplet","361.90000009536743","","","","0","stimuli/bird_uppercase.png","stimuli/tree_lowercase.png","stimuli/stim001_animate_fish_1.png","160"
"html-button-response-mod","168","296391","0.0-168.0","73078","","","","","","triplet","598.3999996185303","","","","0","stimuli/stim019_inanimate_tree_3.png","stimuli/stim009_animate_face_1.png","stimuli/stim015_inanimate_boats_3.png","161"
"html-button-response-mod","169","297723","0.0-169.0","73078","","","","","","triplet","829.3000001907349","","","","0","stimuli/stim017_inanimate_tree_1.png","stimuli/stim018_inanimate_tree_2.png","stimuli/tools_lowercase.png","162"
"html-button-response-mod","170","298690","0.0-170.0","73078","","","","","","triplet","463.1000003814697","","","","0","stimuli/tree_uppercase.png","stimuli/stim019_inanimate_tree_3.png","stimuli/fish_uppercase.png","163"
"html-button-response-mod","171","299624","0.0-171.0","73078","","","","","","triplet","429.69999980926514","","","","2","stimuli/stim016_inanimate_boats_4.png","stimuli/stim011_animate_face_3.png","stimuli/stim004_animate_fish_4.png","164"
"html-button-response-mod","172","300473","0.0-172.0","73078","","","","","","triplet","347.2999997138977","","","","0","stimuli/stim019_inanimate_tree_3.png","stimuli/stim004_animate_fish_4.png","stimuli/stim024_inanimate_tools_4.png","165"
"html-button-response-mod","173","301441","0.0-173.0","73078","","","","","","triplet","464.7999997138977","","","","1","stimuli/stim001_animate_fish_1.png","stimuli/stim007_animate_bird_3.png","stimuli/fish_lowercase.png","166"
"html-button-response-mod","174","302391","0.0-174.0","73078","","","","","","triplet","448","","","","1","stimuli/stim014_inanimate_boats_2.png","stimuli/stim001_animate_fish_1.png","stimuli/face_lowercase.png","167"
"html-button-response-mod","175","303357","0.0-175.0","73078","","","","","","triplet","463.6000003814697","","","","1","stimuli/stim021_inanimate_tools_1.png","stimuli/stim012_animate_face_4.png","stimuli/tools_lowercase.png","168"
"html-button-response-mod","176","304257","0.0-176.0","73078","","","","","","triplet","397.59999990463257","","","","1","stimuli/stim021_inanimate_tools_1.png","stimuli/stim019_inanimate_tree_3.png","stimuli/tree_uppercase.png","169"
"html-button-response-mod","177","305224","0.0-177.0","73078","","","","","","triplet","462.40000009536743","","","","0","stimuli/tools_lowercase.png","stimuli/stim009_animate_face_1.png","stimuli/fish_lowercase.png","170"
"html-button-response-mod","178","306091","0.0-178.0","73078","","","","","","triplet","364.80000019073486","","","","1","stimuli/tree_uppercase.png","stimuli/stim011_animate_face_3.png","stimuli/stim013_inanimate_boats_1.png","171"
"html-button-response-mod","179","306944","0.0-179.0","73078","","","","","","triplet","349.7999997138977","","","","2","stimuli/fish_lowercase.png","stimuli/stim023_inanimate_tools_3.png","stimuli/tools_uppercase.png","172"
"html-button-response-mod","180","307841","0.0-180.0","73078","","","","","","triplet","394.80000019073486","","","","0","stimuli/stim003_animate_fish_3.png","stimuli/bird_lowercase.png","stimuli/face_lowercase.png","173"
"html-button-response-mod","181","308625","0.0-181.0","73078","","","","","","triplet","282.09999990463257","","","","2","stimuli/stim021_inanimate_tools_1.png","stimuli/stim017_inanimate_tree_1.png","stimuli/stim004_animate_fish_4.png","174"
"html-button-response-mod","182","310041","0.0-182.0","73078","","","","","","triplet","913.7000002861023","","","","1","stimuli/stim006_animate_bird_2.png","stimuli/stim020_inanimate_tree_4.png","stimuli/fish_lowercase.png","175"
"html-button-response-mod","183","310908","0.0-183.0","73078","","","","","","triplet","362.80000019073486","","","","0","stimuli/face_lowercase.png","stimuli/stim014_inanimate_boats_2.png","stimuli/stim017_inanimate_tree_1.png","176"
"html-button-response-mod","184","311759","0.0-184.0","73078","","","","","","triplet","348.40000009536743","","","","2","stimuli/stim008_animate_bird_4.png","stimuli/stim007_animate_bird_3.png","stimuli/face_lowercase.png","177"
"html-button-response-mod","185","312675","0.0-185.0","73078","","","","","","triplet","412.5","","","","0","stimuli/stim012_animate_face_4.png","stimuli/stim016_inanimate_boats_4.png","stimuli/stim021_inanimate_tools_1.png","178"
"html-button-response-mod","186","313558","0.0-186.0","73078","","","","","","triplet","381.30000019073486","","","","2","stimuli/stim021_inanimate_tools_1.png","stimuli/stim009_animate_face_1.png","stimuli/stim020_inanimate_tree_4.png","179"
"html-button-response-mod","187","314308","0.0-187.0","73078","","","","","","triplet","246.59999990463257","","","","2","stimuli/stim012_animate_face_4.png","stimuli/stim008_animate_bird_4.png","stimuli/stim003_animate_fish_3.png","180"
"html-button-response-mod","188","315074","0.0-188.0","73078","","","","","","triplet","258.19999980926514","","","","2","stimuli/stim012_animate_face_4.png","stimuli/stim020_inanimate_tree_4.png","stimuli/stim013_inanimate_boats_1.png","181"
"html-button-response-mod","189","315757","0.0-189.0","73078","","","","","","triplet","179","","","","2","stimuli/stim002_animate_fish_2.png","stimuli/stim020_inanimate_tree_4.png","stimuli/stim008_animate_bird_4.png","182"
"html-button-response-mod","190","316508","0.0-190.0","73078","","","","","","triplet","245.09999990463257","","","","2","stimuli/stim018_inanimate_tree_2.png","stimuli/stim019_inanimate_tree_3.png","stimuli/stim009_animate_face_1.png","183"
"html-button-response-mod","191","317208","0.0-191.0","73078","","","","","","triplet","196.2000002861023","","","","2","stimuli/stim006_animate_bird_2.png","stimuli/face_lowercase.png","stimuli/stim017_inanimate_tree_1.png","184"
"html-button-response-mod","192","317908","0.0-192.0","73078","","","","","","triplet","191.2000002861023","","","","2","stimuli/tree_lowercase.png","stimuli/fish_lowercase.png","stimuli/stim005_animate_bird_1.png","185"
"html-button-response-mod","193","318608","0.0-193.0","73078","","","","","","triplet","194.5","","","","2","stimuli/stim004_animate_fish_4.png","stimuli/stim022_inanimate_tools_2.png","stimuli/face_lowercase.png","186"
"html-button-response-mod","194","319341","0.0-194.0","73078","","","","","","triplet","228.5","","","","2","stimuli/stim003_animate_fish_3.png","stimuli/stim012_animate_face_4.png","stimuli/stim010_animate_face_2.png","187"
"html-button-response-mod","195","320092","0.0-195.0","73078","","","","","","triplet","241.2999997138977","","","","2","stimuli/stim022_inanimate_tools_2.png","stimuli/stim014_inanimate_boats_2.png","stimuli/tools_uppercase.png","188"
"html-button-response-mod","196","320742","0.0-196.0","73078","","","","","","triplet","144.80000019073486","","","","2","stimuli/stim008_animate_bird_4.png","stimuli/stim016_inanimate_boats_4.png","stimuli/stim020_inanimate_tree_4.png","189"
"html-button-response-mod","197","321458","0.0-197.0","73078","","","","","","triplet","208.80000019073486","","","","2","stimuli/face_uppercase.png","stimuli/tree_uppercase.png","stimuli/stim006_animate_bird_2.png","190"
"html-button-response-mod","198","322159","0.0-198.0","73078","","","","","","triplet","195.7999997138977","","","","2","stimuli/stim015_inanimate_boats_3.png","stimuli/stim018_inanimate_tree_2.png","stimuli/boats_lowercase.png","191"
"html-button-response-mod","199","323838","0.0-199.0","73078","","","","","","triplet","1173.3000001907349","","","","0","stimuli/bird_uppercase.png","stimuli/tools_uppercase.png","stimuli/face_uppercase.png","192"
"html-button-response-mod","200","325226","0.0-200.0","73078","","","","","","triplet","885.5","","","","2","stimuli/stim019_inanimate_tree_3.png","stimuli/stim011_animate_face_3.png","stimuli/fish_lowercase.png","193"
"html-button-response-mod","201","325910","0.0-201.0","73078","","","","","","triplet","180.39999961853027","","","","0","stimuli/stim007_animate_bird_3.png","stimuli/face_uppercase.png","stimuli/stim010_animate_face_2.png","194"
"html-button-response-mod","202","326693","0.0-202.0","73078","","","","","","triplet","279.30000019073486","","","","2","stimuli/stim015_inanimate_boats_3.png","stimuli/stim006_animate_bird_2.png","stimuli/stim022_inanimate_tools_2.png","195"
"html-button-response-mod","203","327876","0.0-203.0","73078","","","","","","triplet","680.1000003814697","","","","0","stimuli/stim014_inanimate_boats_2.png","stimuli/tools_uppercase.png","stimuli/stim024_inanimate_tools_4.png","196"
"html-button-response-mod","204","328710","0.0-204.0","73078","","","","","","triplet","331.09999990463257","","","","1","stimuli/stim004_animate_fish_4.png","stimuli/boats_lowercase.png","stimuli/tree_lowercase.png","197"
"html-button-response-mod","205","329593","0.0-205.0","73078","","","","","","triplet","379.59999990463257","","","","1","stimuli/stim003_animate_fish_3.png","stimuli/stim016_inanimate_boats_4.png","stimuli/stim022_inanimate_tools_2.png","198"
"html-button-response-mod","206","330476","0.0-206.0","73078","","","","","","triplet","380","","","","1","stimuli/stim015_inanimate_boats_3.png","stimuli/bird_lowercase.png","stimuli/stim016_inanimate_boats_4.png","199"
"html-button-response","207","332460","0.0-207.0","73078","","","","","","break","1482","<p>BREAK</p><p>Take a break for as long as you need</p><p>Click the button to continue</p>","0","","","","","",""
"html-button-response-mod","208","332960","0.0-208.0","73078","","","","","","triplet","497.2999997138977","","","","0","stimuli/stim016_inanimate_boats_4.png","stimuli/stim019_inanimate_tree_3.png","stimuli/stim003_animate_fish_3.png","200"
"html-button-response-mod","209","335093","0.0-209.0","73078","","","","","","triplet","1630.2999997138977","","","","0","stimuli/bird_lowercase.png","stimuli/stim012_animate_face_4.png","stimuli/stim017_inanimate_tree_1.png","201"
"html-button-response-mod","210","335945","0.0-210.0","73078","","","","","","triplet","348.2999997138977","","","","1","stimuli/stim013_inanimate_boats_1.png","stimuli/stim004_animate_fish_4.png","stimuli/fish_uppercase.png","202"
"html-button-response-mod","211","337077","0.0-211.0","73078","","","","","","triplet","623.4000000953674","","","","0","stimuli/stim010_animate_face_2.png","stimuli/stim021_inanimate_tools_1.png","stimuli/stim019_inanimate_tree_3.png","203"
"html-button-response-mod","212","338143","0.0-212.0","73078","","","","","","triplet","562.0999999046326","","","","1","stimuli/face_lowercase.png","stimuli/stim007_animate_bird_3.png","stimuli/stim006_animate_bird_2.png","204"
"html-button-response-mod","213","338961","0.0-213.0","73078","","","","","","triplet","314.59999990463257","","","","0","stimuli/stim014_inanimate_boats_2.png","stimuli/stim016_inanimate_boats_4.png","stimuli/stim023_inanimate_tools_3.png","205"
"html-button-response-mod","214","339793","0.0-214.0","73078","","","","","","triplet","324.09999990463257","","","","1","stimuli/stim002_animate_fish_2.png","stimuli/bird_uppercase.png","stimuli/bird_lowercase.png","206"
"html-button-response-mod","215","340644","0.0-215.0","73078","","","","","","triplet","341.80000019073486","","","","1","stimuli/bird_uppercase.png","stimuli/stim019_inanimate_tree_3.png","stimuli/stim005_animate_bird_1.png","207"
"html-button-response-mod","216","341393","0.0-216.0","73078","","","","","","triplet","243","","","","1","stimuli/stim022_inanimate_tools_2.png","stimuli/fish_lowercase.png","stimuli/stim005_animate_bird_1.png","208"
"html-button-response-mod","217","342127","0.0-217.0","73078","","","","","","triplet","231.2000002861023","","","","1","stimuli/boats_lowercase.png","stimuli/tree_lowercase.png","stimuli/stim024_inanimate_tools_4.png","209"
"html-button-response-mod","218","342843","0.0-218.0","73078","","","","","","triplet","208.59999990463257","","","","0","stimuli/stim021_inanimate_tools_1.png","stimuli/stim010_animate_face_2.png","stimuli/boats_uppercase.png","210"
"html-button-response-mod","219","343593","0.0-219.0","73078","","","","","","triplet","246.69999980926514","","","","0","stimuli/tools_lowercase.png","stimuli/stim012_animate_face_4.png","stimuli/stim023_inanimate_tools_3.png","211"
"html-button-response-mod","220","344343","0.0-220.0","73078","","","","","","triplet","243.09999990463257","","","","0","stimuli/stim022_inanimate_tools_2.png","stimuli/stim012_animate_face_4.png","stimuli/stim006_animate_bird_2.png","212"
"html-button-response-mod","221","345093","0.0-221.0","73078","","","","","","triplet","243.90000009536743","","","","1","stimuli/stim022_inanimate_tools_2.png","stimuli/stim001_animate_fish_1.png","stimuli/face_lowercase.png","213"
"html-button-response-mod","222","345827","0.0-222.0","73078","","","","","","triplet","225.39999961853027","","","","1","stimuli/tree_uppercase.png","stimuli/stim010_animate_face_2.png","stimuli/tools_lowercase.png","214"
"html-button-response-mod","223","346594","0.0-223.0","73078","","","","","","triplet","259.19999980926514","","","","0","stimuli/bird_uppercase.png","stimuli/stim016_inanimate_boats_4.png","stimuli/stim010_animate_face_2.png","215"
"html-button-response-mod","224","347276","0.0-224.0","73078","","","","","","triplet","176.40000009536743","","","","1","stimuli/stim018_inanimate_tree_2.png","stimuli/stim006_animate_bird_2.png","stimuli/stim014_inanimate_boats_2.png","216"
"html-button-response-mod","225","347977","0.0-225.0","73078","","","","","","triplet","197.59999990463257","","","","1","stimuli/tools_uppercase.png","stimuli/boats_uppercase.png","stimuli/tree_uppercase.png","217"
"html-button-response-mod","226","348644","0.0-226.0","73078","","","","","","triplet","164.09999990463257","","","","1","stimuli/stim004_animate_fish_4.png","stimuli/tools_uppercase.png","stimuli/bird_uppercase.png","218"
"html-button-response-mod","227","349344","0.0-227.0","73078","","","","","","triplet","191.5","","","","0","stimuli/tools_uppercase.png","stimuli/stim015_inanimate_boats_3.png","stimuli/tree_lowercase.png","219"
"html-button-response-mod","228","350161","0.0-228.0","73078","","","","","","triplet","313.69999980926514","","","","0","stimuli/stim003_animate_fish_3.png","stimuli/face_lowercase.png","stimuli/bird_uppercase.png","220"
"html-button-response-mod","229","350944","0.0-229.0","73078","","","","","","triplet","280.59999990463257","","","","1","stimuli/stim010_animate_face_2.png","stimuli/tree_uppercase.png","stimuli/stim016_inanimate_boats_4.png","221"
"html-button-response-mod","230","351628","0.0-230.0","73078","","","","","","triplet","178.2999997138977","","","","1","stimuli/tools_uppercase.png","stimuli/stim001_animate_fish_1.png","stimuli/stim023_inanimate_tools_3.png","222"
"html-button-response-mod","231","352678","0.0-231.0","73078","","","","","","triplet","545.0999999046326","","","","0","stimuli/stim012_animate_face_4.png","stimuli/boats_lowercase.png","stimuli/stim014_inanimate_boats_2.png","223"
"html-button-response-mod","232","353428","0.0-232.0","73078","","","","","","triplet","246.09999990463257","","","","2","stimuli/stim017_inanimate_tree_1.png","stimuli/face_uppercase.png","stimuli/stim015_inanimate_boats_3.png","224"
"html-button-response-mod","233","355161","0.0-233.0","73078","","","","","","triplet","1230.5999999046326","","","","1","stimuli/stim022_inanimate_tools_2.png","stimuli/stim015_inanimate_boats_3.png","stimuli/stim003_animate_fish_3.png","225"
"html-button-response-mod","234","355793","0.0-234.0","73078","","","","","","triplet","126","","","","2","stimuli/fish_lowercase.png","stimuli/stim021_inanimate_tools_1.png","stimuli/stim018_inanimate_tree_2.png","226"
"html-button-response-mod","235","356461","0.0-235.0","73078","","","","","","triplet","161.30000019073486","","","","1","stimuli/stim008_animate_bird_4.png","stimuli/stim020_inanimate_tree_4.png","stimuli/stim022_inanimate_tools_2.png","227"
"html-button-response-mod","236","357095","0.0-236.0","73078","","","","","","triplet","127.19999980926514","","","","2","stimuli/fish_lowercase.png","stimuli/boats_uppercase.png","stimuli/stim017_inanimate_tree_1.png","228"
"html-button-response-mod","237","357661","0.0-237.0","73078","","","","","","triplet","60.09999990463257","","","","2","stimuli/boats_uppercase.png","stimuli/bird_uppercase.png","stimuli/stim022_inanimate_tools_2.png","229"
"html-button-response-mod","238","358461","0.0-238.0","73078","","","","","","triplet","293.59999990463257","","","","2","stimuli/stim011_animate_face_3.png","stimuli/stim009_animate_face_1.png","stimuli/tools_lowercase.png","230"
"html-button-response-mod","239","359295","0.0-239.0","73078","","","","","","triplet","331.1000003814697","","","","2","stimuli/stim008_animate_bird_4.png","stimuli/tree_uppercase.png","stimuli/stim010_animate_face_2.png","231"
"html-button-response-mod","240","360078","0.0-240.0","73078","","","","","","triplet","279.7999997138977","","","","1","stimuli/fish_uppercase.png","stimuli/tree_uppercase.png","stimuli/stim023_inanimate_tools_3.png","232"
"html-button-response-mod","241","361778","0.0-241.0","73078","","","","","","triplet","1196.0999999046326","","","","0","stimuli/stim003_animate_fish_3.png","stimuli/tools_lowercase.png","stimuli/stim014_inanimate_boats_2.png","233"
"html-button-response-mod","242","362729","0.0-242.0","73078","","","","","","triplet","442.40000009536743","","","","0","stimuli/stim012_animate_face_4.png","stimuli/fish_lowercase.png","stimuli/bird_uppercase.png","234"
"html-button-response-mod","243","363462","0.0-243.0","73078","","","","","","triplet","230.09999990463257","","","","1","stimuli/stim012_animate_face_4.png","stimuli/tools_lowercase.png","stimuli/stim011_animate_face_3.png","235"
"html-button-response-mod","244","364662","0.0-244.0","73078","","","","","","triplet","696.7999997138977","","","","2","stimuli/stim017_inanimate_tree_1.png","stimuli/stim009_animate_face_1.png","stimuli/stim003_animate_fish_3.png","236"
"html-button-response-mod","245","365747","0.0-245.0","73078","","","","","","triplet","582.5999999046326","","","","0","stimuli/stim018_inanimate_tree_2.png","stimuli/stim020_inanimate_tree_4.png","stimuli/stim021_inanimate_tools_1.png","237"
"html-button-response-mod","246","366663","0.0-246.0","73078","","","","","","triplet","413.69999980926514","","","","0","stimuli/stim018_inanimate_tree_2.png","stimuli/stim015_inanimate_boats_3.png","stimuli/fish_lowercase.png","238"
"html-button-response-mod","247","367579","0.0-247.0","73078","","","","","","triplet","412.59999990463257","","","","2","stimuli/stim003_animate_fish_3.png","stimuli/bird_uppercase.png","stimuli/stim007_animate_bird_3.png","239"
"html-button-response-mod","248","368413","0.0-248.0","73078","","","","","","triplet","331.3999996185303","","","","0","stimuli/stim007_animate_bird_3.png","stimuli/bird_uppercase.png","stimuli/stim015_inanimate_boats_3.png","240"
"html-button-response-mod","249","369530","0.0-249.0","73078","","","","","","triplet","614.0999999046326","","","","2","stimuli/stim010_animate_face_2.png","stimuli/tools_uppercase.png","stimuli/tools_lowercase.png","241"
"html-button-response-mod","250","370563","0.0-250.0","73078","","","","","","triplet","531","","","","0","stimuli/tree_lowercase.png","stimuli/stim011_animate_face_3.png","stimuli/stim020_inanimate_tree_4.png","242"
"html-button-response-mod","251","372480","0.0-251.0","73078","","","","","","triplet","1414.2999997138977","","","","0","stimuli/stim005_animate_bird_1.png","stimuli/stim010_animate_face_2.png","stimuli/stim014_inanimate_boats_2.png","243"
"html-button-response-mod","252","373596","0.0-252.0","73078","","","","","","triplet","612.7000002861023","","","","0","stimuli/stim019_inanimate_tree_3.png","stimuli/boats_lowercase.png","stimuli/face_uppercase.png","244"
"html-button-response-mod","253","374614","0.0-253.0","73078","","","","","","triplet","513.6000003814697","","","","2","stimuli/stim001_animate_fish_1.png","stimuli/bird_lowercase.png","stimuli/stim008_animate_bird_4.png","245"
"html-button-response-mod","254","375731","0.0-254.0","73078","","","","","","triplet","613.1999998092651","","","","1","stimuli/boats_uppercase.png","stimuli/face_uppercase.png","stimuli/tools_uppercase.png","246"
"html-button-response-mod","255","377331","0.0-255.0","73078","","","","","","triplet","1092.3000001907349","","","","2","stimuli/bird_uppercase.png","stimuli/stim016_inanimate_boats_4.png","stimuli/stim022_inanimate_tools_2.png","247"
"html-button-response-mod","256","378547","0.0-256.0","73078","","","","","","triplet","707.9000000953674","","","","2","stimuli/boats_lowercase.png","stimuli/stim010_animate_face_2.png","stimuli/stim002_animate_fish_2.png","248"
"html-button-response-mod","257","379146","0.0-257.0","73078","","","","","","triplet","91.7999997138977","","","","2","stimuli/stim006_animate_bird_2.png","stimuli/tools_uppercase.png","stimuli/stim009_animate_face_1.png","249"
"html-button-response","258","380665","0.0-258.0","73078","","","","","","break","1013.7999997138977","<p>BREAK</p><p>Take a break for as long as you need</p><p>Click the button to continue</p>","0","","","","","",""
"html-button-response-mod","259","381181","0.0-259.0","73078","","","","","","triplet","513.5999999046326","","","","2","stimuli/stim004_animate_fish_4.png","stimuli/stim023_inanimate_tools_3.png","stimuli/stim003_animate_fish_3.png","250"
"html-button-response-mod","260","382097","0.0-260.0","73078","","","","","","triplet","407.19999980926514","","","","1","stimuli/stim023_inanimate_tools_3.png","stimuli/stim003_animate_fish_3.png","stimuli/tools_uppercase.png","251"
"html-button-response-mod","261","383114","0.0-261.0","73078","","","","","","triplet","513.2999997138977","","","","0","stimuli/fish_uppercase.png","stimuli/face_lowercase.png","stimuli/fish_lowercase.png","252"
"html-button-response-mod","262","384064","0.0-262.0","73078","","","","","","triplet","446","","","","2","stimuli/tools_uppercase.png","stimuli/face_lowercase.png","stimuli/stim018_inanimate_tree_2.png","253"
"html-button-response-mod","263","384915","0.0-263.0","73078","","","","","","triplet","348","","","","0","stimuli/stim014_inanimate_boats_2.png","stimuli/stim003_animate_fish_3.png","stimuli/stim022_inanimate_tools_2.png","254"
"html-button-response-mod","264","385764","0.0-264.0","73078","","","","","","triplet","345.19999980926514","","","","1","stimuli/stim015_inanimate_boats_3.png","stimuli/bird_uppercase.png","stimuli/stim014_inanimate_boats_2.png","255"
"html-button-response-mod","265","386581","0.0-265.0","73078","","","","","","triplet","313.30000019073486","","","","2","stimuli/bird_uppercase.png","stimuli/stim011_animate_face_3.png","stimuli/tree_uppercase.png","256"
"html-button-response-mod","266","387381","0.0-266.0","73078","","","","","","triplet","298","","","","2","stimuli/stim022_inanimate_tools_2.png","stimuli/stim008_animate_bird_4.png","stimuli/stim003_animate_fish_3.png","257"
"html-button-response-mod","267","388115","0.0-267.0","73078","","","","","","triplet","224","","","","2","stimuli/stim012_animate_face_4.png","stimuli/face_lowercase.png","stimuli/stim015_inanimate_boats_3.png","258"
"html-button-response-mod","268","388865","0.0-268.0","73078","","","","","","triplet","244.30000019073486","","","","2","stimuli/tree_uppercase.png","stimuli/stim013_inanimate_boats_1.png","stimuli/boats_uppercase.png","259"
"html-button-response-mod","269","389597","0.0-269.0","73078","","","","","","triplet","223.39999961853027","","","","2","stimuli/stim016_inanimate_boats_4.png","stimuli/tools_uppercase.png","stimuli/stim011_animate_face_3.png","260"
"html-button-response-mod","270","390348","0.0-270.0","73078","","","","","","triplet","243.80000019073486","","","","2","stimuli/tree_lowercase.png","stimuli/tools_uppercase.png","stimuli/stim008_animate_bird_4.png","261"
"html-button-response-mod","271","391048","0.0-271.0","73078","","","","","","triplet","194.7000002861023","","","","2","stimuli/stim015_inanimate_boats_3.png","stimuli/stim004_animate_fish_4.png","stimuli/stim014_inanimate_boats_2.png","262"
"html-button-response-mod","272","391848","0.0-272.0","73078","","","","","","triplet","291.3999996185303","","","","2","stimuli/stim020_inanimate_tree_4.png","stimuli/stim024_inanimate_tools_4.png","stimuli/stim002_animate_fish_2.png","263"
"html-button-response-mod","273","392464","0.0-273.0","73078","","","","","","triplet","111.40000009536743","","","","2","stimuli/face_uppercase.png","stimuli/fish_uppercase.png","stimuli/stim011_animate_face_3.png","264"
"html-button-response-mod","274","393081","0.0-274.0","73078","","","","","","triplet","112.09999990463257","","","","2","stimuli/stim013_inanimate_boats_1.png","stimuli/stim007_animate_bird_3.png","stimuli/stim011_animate_face_3.png","265"
"html-button-response-mod","275","393865","0.0-275.0","73078","","","","","","triplet","277.80000019073486","","","","2","stimuli/stim011_animate_face_3.png","stimuli/stim015_inanimate_boats_3.png","stimuli/stim009_animate_face_1.png","266"
"html-button-response-mod","276","394614","0.0-276.0","73078","","","","","","triplet","242.5","","","","2","stimuli/face_lowercase.png","stimuli/face_uppercase.png","stimuli/tree_uppercase.png","267"
"html-button-response-mod","277","395231","0.0-277.0","73078","","","","","","triplet","112.59999990463257","","","","2","stimuli/stim015_inanimate_boats_3.png","stimuli/tools_lowercase.png","stimuli/stim023_inanimate_tools_3.png","268"
"html-button-response-mod","278","396048","0.0-278.0","73078","","","","","","triplet","313.40000009536743","","","","2","stimuli/stim017_inanimate_tree_1.png","stimuli/stim013_inanimate_boats_1.png","stimuli/stim001_animate_fish_1.png","269"
"html-button-response-mod","279","396781","0.0-279.0","73078","","","","","","triplet","225.90000009536743","","","","2","stimuli/tools_uppercase.png","stimuli/stim009_animate_face_1.png","stimuli/stim012_animate_face_4.png","270"
"html-button-response-mod","280","397598","0.0-280.0","73078","","","","","","triplet","310.3999996185303","","","","2","stimuli/boats_uppercase.png","stimuli/stim024_inanimate_tools_4.png","stimuli/stim010_animate_face_2.png","271"
"html-button-response-mod","281","398298","0.0-281.0","73078","","","","","","triplet","196.30000019073486","","","","2","stimuli/tools_uppercase.png","stimuli/tools_lowercase.png","stimuli/tree_lowercase.png","272"
"html-button-response-mod","282","398982","0.0-282.0","73078","","","","","","triplet","177.59999990463257","","","","2","stimuli/stim015_inanimate_boats_3.png","stimuli/stim021_inanimate_tools_1.png","stimuli/stim017_inanimate_tree_1.png","273"
"html-button-response-mod","283","399914","0.0-283.0","73078","","","","","","triplet","424.09999990463257","","","","2","stimuli/tree_uppercase.png","stimuli/stim008_animate_bird_4.png","stimuli/stim005_animate_bird_1.png","274"
"html-button-response-mod","284","400548","0.0-284.0","73078","","","","","","triplet","125.60000038146973","","","","2","stimuli/stim011_animate_face_3.png","stimuli/stim022_inanimate_tools_2.png","stimuli/stim014_inanimate_boats_2.png","275"
"html-button-response-mod","285","401148","0.0-285.0","73078","","","","","","triplet","92.5","","","","2","stimuli/bird_uppercase.png","stimuli/stim004_animate_fish_4.png","stimuli/tree_uppercase.png","276"
"html-button-response-mod","286","401915","0.0-286.0","73078","","","","","","triplet","262.7000002861023","","","","2","stimuli/stim002_animate_fish_2.png","stimuli/stim023_inanimate_tools_3.png","stimuli/tools_lowercase.png","277"
"html-button-response-mod","287","402549","0.0-287.0","73078","","","","","","triplet","125.2000002861023","","","","2","stimuli/tree_uppercase.png","stimuli/stim023_inanimate_tools_3.png","stimuli/tree_lowercase.png","278"
"html-button-response-mod","288","403365","0.0-288.0","73078","","","","","","triplet","313.69999980926514","","","","2","stimuli/stim023_inanimate_tools_3.png","stimuli/stim020_inanimate_tree_4.png","stimuli/stim021_inanimate_tools_1.png","279"
"html-button-response-mod","289","404065","0.0-289.0","73078","","","","","","triplet","196.90000009536743","","","","2","stimuli/stim013_inanimate_boats_1.png","stimuli/fish_lowercase.png","stimuli/stim018_inanimate_tree_2.png","280"
"html-button-response-mod","290","404882","0.0-290.0","73078","","","","","","triplet","309","","","","2","stimuli/stim001_animate_fish_1.png","stimuli/stim023_inanimate_tools_3.png","stimuli/stim020_inanimate_tree_4.png","281"
"html-button-response-mod","291","405565","0.0-291.0","73078","","","","","","triplet","175.90000009536743","","","","2","stimuli/tools_uppercase.png","stimuli/stim008_animate_bird_4.png","stimuli/face_lowercase.png","282"
"html-button-response-mod","292","406416","0.0-292.0","73078","","","","","","triplet","347.5","","","","2","stimuli/stim001_animate_fish_1.png","stimuli/stim008_animate_bird_4.png","stimuli/tools_lowercase.png","283"
"html-button-response-mod","293","407416","0.0-293.0","73078","","","","","","triplet","491.69999980926514","","","","2","stimuli/stim022_inanimate_tools_2.png","stimuli/stim010_animate_face_2.png","stimuli/stim007_animate_bird_3.png","284"
"html-button-response-mod","294","408082","0.0-294.0","73078","","","","","","triplet","159.69999980926514","","","","2","stimuli/stim005_animate_bird_1.png","stimuli/tools_uppercase.png","stimuli/stim015_inanimate_boats_3.png","285"
"html-button-response-mod","295","408949","0.0-295.0","73078","","","","","","triplet","358.90000009536743","","","","2","stimuli/stim008_animate_bird_4.png","stimuli/stim020_inanimate_tree_4.png","stimuli/face_lowercase.png","286"
"html-button-response-mod","296","409666","0.0-296.0","73078","","","","","","triplet","208.40000009536743","","","","2","stimuli/stim009_animate_face_1.png","stimuli/stim014_inanimate_boats_2.png","stimuli/fish_uppercase.png","287"
"html-button-response-mod","297","410283","0.0-297.0","73078","","","","","","triplet","113.90000009536743","","","","2","stimuli/stim018_inanimate_tree_2.png","stimuli/stim011_animate_face_3.png","stimuli/tools_uppercase.png","288"
"html-button-response-mod","298","411032","0.0-298.0","73078","","","","","","triplet","245.80000019073486","","","","2","stimuli/stim005_animate_bird_1.png","stimuli/stim009_animate_face_1.png","stimuli/bird_uppercase.png","289"
"html-button-response-mod","299","411783","0.0-299.0","73078","","","","","","triplet","247","","","","2","stimuli/stim019_inanimate_tree_3.png","stimuli/tree_uppercase.png","stimuli/tools_uppercase.png","290"
"html-button-response-mod","300","412433","0.0-300.0","73078","","","","","","triplet","141.60000038146973","","","","2","stimuli/boats_lowercase.png","stimuli/stim023_inanimate_tools_3.png","stimuli/stim019_inanimate_tree_3.png","291"
"html-button-response-mod","301","413200","0.0-301.0","73078","","","","","","triplet","260","","","","2","stimuli/stim008_animate_bird_4.png","stimuli/tree_uppercase.png","stimuli/stim021_inanimate_tools_1.png","292"
"html-button-response-mod","302","413783","0.0-302.0","73078","","","","","","triplet","79.7000002861023","","","","2","stimuli/tree_lowercase.png","stimuli/boats_uppercase.png","stimuli/stim022_inanimate_tools_2.png","293"
"html-button-response-mod","303","414750","0.0-303.0","73078","","","","","","triplet","463.1000003814697","","","","0","stimuli/stim022_inanimate_tools_2.png","stimuli/stim002_animate_fish_2.png","stimuli/bird_uppercase.png","294"
"html-button-response-mod","304","415901","0.0-304.0","73078","","","","","","triplet","648.5","","","","1","stimuli/fish_uppercase.png","stimuli/bird_lowercase.png","stimuli/stim007_animate_bird_3.png","295"
"html-button-response-mod","305","416651","0.0-305.0","73078","","","","","","triplet","246.69999980926514","","","","2","stimuli/stim010_animate_face_2.png","stimuli/fish_uppercase.png","stimuli/stim006_animate_bird_2.png","296"
"html-button-response-mod","306","417516","0.0-306.0","73078","","","","","","triplet","363.59999990463257","","","","1","stimuli/stim014_inanimate_boats_2.png","stimuli/stim018_inanimate_tree_2.png","stimuli/boats_lowercase.png","297"
"html-button-response-mod","307","418334","0.0-307.0","73078","","","","","","triplet","314.8999996185303","","","","2","stimuli/stim012_animate_face_4.png","stimuli/stim001_animate_fish_1.png","stimuli/stim024_inanimate_tools_4.png","298"
"html-button-response-mod","308","419167","0.0-308.0","73078","","","","","","triplet","330.40000009536743","","","","0","stimuli/tree_lowercase.png","stimuli/stim018_inanimate_tree_2.png","stimuli/stim003_animate_fish_3.png","299"
"html-button-response","309","419934","0.0-309.0","73078","","","","","","break","264.7999997138977","<p>BREAK</p><p>Take a break for as long as you need</p><p>Click the button to continue</p>","0","","","","","",""
"html-button-response-mod","310","420100","0.0-310.0","73078","","","","","","triplet","163.39999961853027","","","","1","stimuli/bird_lowercase.png","stimuli/stim018_inanimate_tree_2.png","stimuli/stim008_animate_bird_4.png","300"
"html-button-response-mod","311","421384","0.0-311.0","73078","","","","","","triplet","775.8000001907349","","","","2","stimuli/stim002_animate_fish_2.png","stimuli/stim003_animate_fish_3.png","stimuli/face_uppercase.png","301"
"html-button-response-mod","312","422301","0.0-312.0","73078","","","","","","triplet","412.40000009536743","","","","0","stimuli/stim022_inanimate_tools_2.png","stimuli/face_lowercase.png","stimuli/stim023_inanimate_tools_3.png","302"
"html-button-response-mod","313","423184","0.0-313.0","73078","","","","","","triplet","381","","","","2","stimuli/boats_uppercase.png","stimuli/tools_uppercase.png","stimuli/stim015_inanimate_boats_3.png","303"
"html-button-response-mod","314","424051","0.0-314.0","73078","","","","","","triplet","364.5","","","","0","stimuli/stim019_inanimate_tree_3.png","stimuli/tools_lowercase.png","stimuli/boats_uppercase.png","304"
"html-button-response-mod","315","424885","0.0-315.0","73078","","","","","","triplet","330","","","","2","stimuli/stim013_inanimate_boats_1.png","stimuli/stim004_animate_fish_4.png","stimuli/boats_lowercase.png","305"
"html-button-response-mod","316","425751","0.0-316.0","73078","","","","","","triplet","357.09999990463257","","","","2","stimuli/stim017_inanimate_tree_1.png","stimuli/bird_uppercase.png","stimuli/stim016_inanimate_boats_4.png","306"
"html-button-response-mod","317","426618","0.0-317.0","73078","","","","","","triplet","357.90000009536743","","","","2","stimuli/stim016_inanimate_boats_4.png","stimuli/stim008_animate_bird_4.png","stimuli/stim011_animate_face_3.png","307"
"html-button-response-mod","318","427318","0.0-318.0","73078","","","","","","triplet","191.39999961853027","","","","2","stimuli/face_lowercase.png","stimuli/stim023_inanimate_tools_3.png","stimuli/stim019_inanimate_tree_3.png","308"
"html-button-response-mod","319","428051","0.0-319.0","73078","","","","","","triplet","224","","","","2","stimuli/stim008_animate_bird_4.png","stimuli/fish_lowercase.png","stimuli/tools_uppercase.png","309"
"html-button-response-mod","320","428801","0.0-320.0","73078","","","","","","triplet","241.59999990463257","","","","2","stimuli/stim023_inanimate_tools_3.png","stimuli/stim001_animate_fish_1.png","stimuli/bird_lowercase.png","310"
"html-button-response-mod","321","429618","0.0-321.0","73078","","","","","","triplet","307.90000009536743","","","","2","stimuli/stim015_inanimate_boats_3.png","stimuli/tree_lowercase.png","stimuli/stim002_animate_fish_2.png","311"
"html-button-response-mod","322","430335","0.0-322.0","73078","","","","","","triplet","212.30000019073486","","","","2","stimuli/tree_uppercase.png","stimuli/stim001_animate_fish_1.png","stimuli/stim023_inanimate_tools_3.png","312"
"html-button-response-mod","323","431601","0.0-323.0","73078","","","","","","triplet","760.5","","","","2","stimuli/bird_uppercase.png","stimuli/stim024_inanimate_tools_4.png","stimuli/stim021_inanimate_tools_1.png","313"
"html-button-response-mod","324","432318","0.0-324.0","73078","","","","","","triplet","207.30000019073486","","","","2","stimuli/stim022_inanimate_tools_2.png","stimuli/face_uppercase.png","stimuli/stim016_inanimate_boats_4.png","314"
"html-button-response-mod","325","434051","0.0-325.0","73078","","","","","","triplet","1224.5999999046326","","","","2","stimuli/stim013_inanimate_boats_1.png","stimuli/boats_lowercase.png","stimuli/stim007_animate_bird_3.png","315"
"html-button-response-mod","326","434735","0.0-326.0","73078","","","","","","triplet","176.39999961853027","","","","2","stimuli/boats_lowercase.png","stimuli/tools_uppercase.png","stimuli/stim021_inanimate_tools_1.png","316"
"html-button-response-mod","327","435668","0.0-327.0","73078","","","","","","triplet","425.19999980926514","","","","2","stimuli/stim013_inanimate_boats_1.png","stimuli/fish_lowercase.png","stimuli/stim002_animate_fish_2.png","317"
"html-button-response-mod","328","436352","0.0-328.0","73078","","","","","","triplet","174.7000002861023","","","","2","stimuli/boats_uppercase.png","stimuli/stim002_animate_fish_2.png","stimuli/tools_uppercase.png","318"
"html-button-response-mod","329","437135","0.0-329.0","73078","","","","","","triplet","279.30000019073486","","","","2","stimuli/face_uppercase.png","stimuli/bird_uppercase.png","stimuli/stim015_inanimate_boats_3.png","319"
"html-button-response-mod","330","438385","0.0-330.0","73078","","","","","","triplet","745.3000001907349","","","","2","stimuli/tree_lowercase.png","stimuli/bird_uppercase.png","stimuli/stim008_animate_bird_4.png","320"
"html-button-response-mod","331","439868","0.0-331.0","73078","","","","","","triplet","976.2999997138977","","","","2","stimuli/stim010_animate_face_2.png","stimuli/boats_lowercase.png","stimuli/stim005_animate_bird_1.png","321"
"html-button-response-mod","332","441568","0.0-332.0","73078","","","","","","triplet","1191.5","","","","2","stimuli/stim008_animate_bird_4.png","stimuli/stim022_inanimate_tools_2.png","stimuli/face_lowercase.png","322"
"html-button-response-mod","333","442369","0.0-333.0","73078","","","","","","triplet","291.80000019073486","","","","2","stimuli/stim012_animate_face_4.png","stimuli/tools_uppercase.png","stimuli/stim011_animate_face_3.png","323"
"html-button-response-mod","334","443486","0.0-334.0","73078","","","","","","triplet","608.1000003814697","","","","2","stimuli/stim011_animate_face_3.png","stimuli/fish_lowercase.png","stimuli/boats_lowercase.png","324"
"html-button-response-mod","335","444420","0.0-335.0","73078","","","","","","triplet","425.30000019073486","","","","2","stimuli/stim016_inanimate_boats_4.png","stimuli/stim004_animate_fish_4.png","stimuli/stim023_inanimate_tools_3.png","325"
"html-button-response-mod","336","445202","0.0-336.0","73078","","","","","","triplet","273.5","","","","2","stimuli/stim018_inanimate_tree_2.png","stimuli/fish_lowercase.png","stimuli/stim007_animate_bird_3.png","326"
"html-button-response-mod","337","446119","0.0-337.0","73078","","","","","","triplet","408.59999990463257","","","","2","stimuli/stim004_animate_fish_4.png","stimuli/stim010_animate_face_2.png","stimuli/stim012_animate_face_4.png","327"
"html-button-response-mod","338","446919","0.0-338.0","73078","","","","","","triplet","291.30000019073486","","","","2","stimuli/bird_uppercase.png","stimuli/stim014_inanimate_boats_2.png","stimuli/tree_lowercase.png","328"
"html-button-response-mod","339","447803","0.0-339.0","73078","","","","","","triplet","376","","","","2","stimuli/boats_lowercase.png","stimuli/stim016_inanimate_boats_4.png","stimuli/stim018_inanimate_tree_2.png","329"
"html-button-response-mod","340","448487","0.0-340.0","73078","","","","","","triplet","180","","","","2","stimuli/stim005_animate_bird_1.png","stimuli/tools_uppercase.png","stimuli/stim009_animate_face_1.png","330"
"html-button-response-mod","341","449286","0.0-341.0","73078","","","","","","triplet","290.6000003814697","","","","2","stimuli/stim023_inanimate_tools_3.png","stimuli/tools_lowercase.png","stimuli/stim007_animate_bird_3.png","331"
"html-button-response-mod","342","449888","0.0-342.0","73078","","","","","","triplet","98","","","","2","stimuli/stim020_inanimate_tree_4.png","stimuli/fish_uppercase.png","stimuli/boats_uppercase.png","332"
"html-button-response-mod","343","450603","0.0-343.0","73078","","","","","","triplet","209.09999990463257","","","","2","stimuli/bird_lowercase.png","stimuli/stim003_animate_fish_3.png","stimuli/stim013_inanimate_boats_1.png","333"
"html-button-response-mod","344","451369","0.0-344.0","73078","","","","","","triplet","260.7999997138977","","","","2","stimuli/stim004_animate_fish_4.png","stimuli/tree_uppercase.png","stimuli/stim006_animate_bird_2.png","334"
"html-button-response-mod","345","452136","0.0-345.0","73078","","","","","","triplet","258.90000009536743","","","","2","stimuli/stim008_animate_bird_4.png","stimuli/face_lowercase.png","stimuli/stim011_animate_face_3.png","335"
"html-button-response-mod","346","452770","0.0-346.0","73078","","","","","","triplet","126.2000002861023","","","","2","stimuli/stim016_inanimate_boats_4.png","stimuli/stim008_animate_bird_4.png","stimuli/stim017_inanimate_tree_1.png","336"
"html-button-response-mod","347","453469","0.0-347.0","73078","","","","","","triplet","189.89999961853027","","","","2","stimuli/stim003_animate_fish_3.png","stimuli/fish_lowercase.png","stimuli/stim016_inanimate_boats_4.png","337"
"html-button-response-mod","348","454219","0.0-348.0","73078","","","","","","triplet","243.59999990463257","","","","2","stimuli/tools_uppercase.png","stimuli/stim010_animate_face_2.png","stimuli/stim003_animate_fish_3.png","338"
"html-button-response-mod","349","455064","0.0-349.0","73078","","","","","","triplet","338.69999980926514","","","","2","stimuli/face_lowercase.png","stimuli/tools_lowercase.png","stimuli/stim020_inanimate_tree_4.png","339"
"html-button-response-mod","350","457069","0.0-350.0","73078","","","","","","triplet","1124","","","","2","stimuli/tools_lowercase.png","stimuli/stim009_animate_face_1.png","stimuli/stim012_animate_face_4.png","340"
"html-button-response-mod","351","458021","0.0-351.0","73078","","","","","","triplet","447.7000002861023","","","","1","stimuli/tree_lowercase.png","stimuli/stim016_inanimate_boats_4.png","stimuli/stim020_inanimate_tree_4.png","341"
"html-button-response-mod","352","458755","0.0-352.0","73078","","","","","","triplet","231.5","","","","2","stimuli/tree_uppercase.png","stimuli/boats_lowercase.png","stimuli/stim015_inanimate_boats_3.png","342"
"html-button-response-mod","353","459454","0.0-353.0","73078","","","","","","triplet","190.5","","","","2","stimuli/tools_uppercase.png","stimuli/stim007_animate_bird_3.png","stimuli/stim024_inanimate_tools_4.png","343"
"html-button-response-mod","354","460121","0.0-354.0","73078","","","","","","triplet","160.7000002861023","","","","2","stimuli/stim013_inanimate_boats_1.png","stimuli/stim010_animate_face_2.png","stimuli/stim009_animate_face_1.png","344"
"html-button-response-mod","355","460803","0.0-355.0","73078","","","","","","triplet","174","","","","2","stimuli/stim011_animate_face_3.png","stimuli/stim023_inanimate_tools_3.png","stimuli/stim014_inanimate_boats_2.png","345"
"html-button-response-mod","356","461454","0.0-356.0","73078","","","","","","triplet","142.5","","","","2","stimuli/stim009_animate_face_1.png","stimuli/stim018_inanimate_tree_2.png","stimuli/stim005_animate_bird_1.png","346"
"html-button-response-mod","357","462137","0.0-357.0","73078","","","","","","triplet","175.2999997138977","","","","2","stimuli/tools_lowercase.png","stimuli/stim003_animate_fish_3.png","stimuli/stim021_inanimate_tools_1.png","347"
"html-button-response-mod","358","462855","0.0-358.0","73078","","","","","","triplet","212.19999980926514","","","","2","stimuli/stim007_animate_bird_3.png","stimuli/stim006_animate_bird_2.png","stimuli/boats_uppercase.png","348"
"html-button-response-mod","359","463471","0.0-359.0","73078","","","","","","triplet","107.09999990463257","","","","2","stimuli/face_uppercase.png","stimuli/tools_lowercase.png","stimuli/stim014_inanimate_boats_2.png","349"
"html-button-response","360","465255","0.0-360.0","73078","","","","","","break","1278.5999999046326","<p>BREAK</p><p>Take a break for as long as you need</p><p>Click the button to continue</p>","0","","","","","",""
"html-button-response-mod","361","465888","0.0-361.0","73078","","","","","","triplet","630.8000001907349","","","","1","stimuli/bird_lowercase.png","stimuli/stim014_inanimate_boats_2.png","stimuli/fish_uppercase.png","350"
"html-button-response-mod","362","467639","0.0-362.0","73078","","","","","","triplet","1244.3000001907349","","","","2","stimuli/stim021_inanimate_tools_1.png","stimuli/fish_uppercase.png","stimuli/fish_lowercase.png","351"
"html-button-response-mod","363","468371","0.0-363.0","73078","","","","","","triplet","227.40000009536743","","","","2","stimuli/boats_lowercase.png","stimuli/tools_lowercase.png","stimuli/stim011_animate_face_3.png","352"
"html-button-response-mod","364","469038","0.0-364.0","73078","","","","","","triplet","158.30000019073486","","","","2","stimuli/stim001_animate_fish_1.png","stimuli/stim019_inanimate_tree_3.png","stimuli/stim007_animate_bird_3.png","353"
"html-button-response-mod","365","469654","0.0-365.0","73078","","","","","","triplet","112.40000009536743","","","","2","stimuli/stim015_inanimate_boats_3.png","stimuli/face_uppercase.png","stimuli/stim019_inanimate_tree_3.png","354"
"html-button-response-mod","366","470305","0.0-366.0","73078","","","","","","triplet","146.5","","","","2","stimuli/stim003_animate_fish_3.png","stimuli/stim022_inanimate_tools_2.png","stimuli/tree_lowercase.png","355"
"html-button-response-mod","367","470955","0.0-367.0","73078","","","","","","triplet","141.7999997138977","","","","2","stimuli/stim023_inanimate_tools_3.png","stimuli/stim005_animate_bird_1.png","stimuli/stim013_inanimate_boats_1.png","356"
"html-button-response-mod","368","471588","0.0-368.0","73078","","","","","","triplet","124.5","","","","2","stimuli/stim008_animate_bird_4.png","stimuli/face_uppercase.png","stimuli/stim006_animate_bird_2.png","357"
"html-button-response-mod","369","472255","0.0-369.0","73078","","","","","","triplet","158.59999990463257","","","","2","stimuli/stim024_inanimate_tools_4.png","stimuli/stim021_inanimate_tools_1.png","stimuli/boats_uppercase.png","358"
"html-button-response-mod","370","472871","0.0-370.0","73078","","","","","","triplet","108.5","","","","2","stimuli/stim004_animate_fish_4.png","stimuli/tools_lowercase.png","stimuli/stim011_animate_face_3.png","359"
"html-button-response-mod","371","473522","0.0-371.0","73078","","","","","","triplet","145.90000009536743","","","","2","stimuli/stim023_inanimate_tools_3.png","stimuli/tree_lowercase.png","stimuli/stim013_inanimate_boats_1.png","360"
"html-button-response-mod","372","474154","0.0-372.0","73078","","","","","","triplet","124.2999997138977","","","","2","stimuli/tree_uppercase.png","stimuli/face_lowercase.png","stimuli/stim010_animate_face_2.png","361"
"html-button-response-mod","373","474805","0.0-373.0","73078","","","","","","triplet","142.2999997138977","","","","2","stimuli/tree_lowercase.png","stimuli/stim024_inanimate_tools_4.png","stimuli/face_lowercase.png","362"
"html-button-response-mod","374","475571","0.0-374.0","73078","","","","","","triplet","260.09999990463257","","","","2","stimuli/bird_lowercase.png","stimuli/stim007_animate_bird_3.png","stimuli/stim006_animate_bird_2.png","363"
"html-button-response-mod","375","476172","0.0-375.0","73078","","","","","","triplet","93.30000019073486","","","","2","stimuli/stim008_animate_bird_4.png","stimuli/stim007_animate_bird_3.png","stimuli/tree_lowercase.png","364"
"html-button-response-mod","376","476805","0.0-376.0","73078","","","","","","triplet","124.19999980926514","","","","2","stimuli/boats_uppercase.png","stimuli/bird_uppercase.png","stimuli/stim018_inanimate_tree_2.png","365"
"html-button-response-mod","377","477405","0.0-377.0","73078","","","","","","triplet","93.19999980926514","","","","2","stimuli/stim009_animate_face_1.png","stimuli/stim003_animate_fish_3.png","stimuli/bird_lowercase.png","366"
"html-button-response-mod","378","478005","0.0-378.0","73078","","","","","","triplet","91.09999990463257","","","","2","stimuli/stim023_inanimate_tools_3.png","stimuli/stim007_animate_bird_3.png","stimuli/boats_lowercase.png","367"
"html-button-response-mod","379","478805","0.0-379.0","73078","","","","","","triplet","296.69999980926514","","","","2","stimuli/stim011_animate_face_3.png","stimuli/stim012_animate_face_4.png","stimuli/stim018_inanimate_tree_2.png","368"
"html-button-response-mod","380","479389","0.0-380.0","73078","","","","","","triplet","76.7999997138977","","","","2","stimuli/tools_uppercase.png","stimuli/stim004_animate_fish_4.png","stimuli/fish_lowercase.png","369"
"html-button-response-mod","381","480038","0.0-381.0","73078","","","","","","triplet","145.59999990463257","","","","2","stimuli/stim018_inanimate_tree_2.png","stimuli/stim024_inanimate_tools_4.png","stimuli/stim020_inanimate_tree_4.png","370"
"html-button-response-mod","382","480855","0.0-382.0","73078","","","","","","triplet","313.90000009536743","","","","2","stimuli/boats_uppercase.png","stimuli/stim007_animate_bird_3.png","stimuli/stim002_animate_fish_2.png","371"
"html-button-response-mod","383","481638","0.0-383.0","73078","","","","","","triplet","274.69999980926514","","","","2","stimuli/stim001_animate_fish_1.png","stimuli/stim013_inanimate_boats_1.png","stimuli/fish_uppercase.png","372"
"html-button-response-mod","384","482439","0.0-384.0","73078","","","","","","triplet","296.09999990463257","","","","2","stimuli/stim001_animate_fish_1.png","stimuli/stim009_animate_face_1.png","stimuli/tools_lowercase.png","373"
"html-button-response-mod","385","483239","0.0-385.0","73078","","","","","","triplet","296.5","","","","2","stimuli/stim016_inanimate_boats_4.png","stimuli/fish_uppercase.png","stimuli/stim017_inanimate_tree_1.png","374"
"html-button-response-mod","386","484039","0.0-386.0","73078","","","","","","triplet","296.90000009536743","","","","2","stimuli/stim001_animate_fish_1.png","stimuli/stim011_animate_face_3.png","stimuli/stim017_inanimate_tree_1.png","375"
"html-button-response-mod","387","484656","0.0-387.0","73078","","","","","","triplet","110.30000019073486","","","","2","stimuli/stim011_animate_face_3.png","stimuli/stim016_inanimate_boats_4.png","stimuli/stim006_animate_bird_2.png","376"
"html-button-response-mod","388","485338","0.0-388.0","73078","","","","","","triplet","177.89999961853027","","","","2","stimuli/stim014_inanimate_boats_2.png","stimuli/stim024_inanimate_tools_4.png","stimuli/stim011_animate_face_3.png","377"
"html-button-response-mod","389","485972","0.0-389.0","73078","","","","","","triplet","126.5","","","","2","stimuli/stim021_inanimate_tools_1.png","stimuli/stim023_inanimate_tools_3.png","stimuli/stim019_inanimate_tree_3.png","378"
"html-button-response-mod","390","486656","0.0-390.0","73078","","","","","","triplet","175.69999980926514","","","","2","stimuli/bird_uppercase.png","stimuli/stim019_inanimate_tree_3.png","stimuli/stim012_animate_face_4.png","379"
"html-button-response-mod","391","487389","0.0-391.0","73078","","","","","","triplet","227","","","","2","stimuli/stim001_animate_fish_1.png","stimuli/boats_lowercase.png","stimuli/stim016_inanimate_boats_4.png","380"
"html-button-response-mod","392","488189","0.0-392.0","73078","","","","","","triplet","296.7000002861023","","","","2","stimuli/bird_uppercase.png","stimuli/stim015_inanimate_boats_3.png","stimuli/fish_uppercase.png","381"
"html-button-response-mod","393","488806","0.0-393.0","73078","","","","","","triplet","113.40000009536743","","","","2","stimuli/stim013_inanimate_boats_1.png","stimuli/stim018_inanimate_tree_2.png","stimuli/stim011_animate_face_3.png","382"
"html-button-response-mod","394","489589","0.0-394.0","73078","","","","","","triplet","276.90000009536743","","","","2","stimuli/stim007_animate_bird_3.png","stimuli/stim002_animate_fish_2.png","stimuli/fish_lowercase.png","383"
"html-button-response-mod","395","490223","0.0-395.0","73078","","","","","","triplet","129.59999990463257","","","","2","stimuli/tree_uppercase.png","stimuli/face_lowercase.png","stimuli/stim020_inanimate_tree_4.png","384"
"html-button-response-mod","396","491040","0.0-396.0","73078","","","","","","triplet","313.5","","","","2","stimuli/stim015_inanimate_boats_3.png","stimuli/boats_lowercase.png","stimuli/bird_uppercase.png","385"
"html-button-response-mod","397","491856","0.0-397.0","73078","","","","","","triplet","313.40000009536743","","","","2","stimuli/tools_lowercase.png","stimuli/stim002_animate_fish_2.png","stimuli/face_uppercase.png","386"
"html-button-response-mod","398","492473","0.0-398.0","73078","","","","","","triplet","111.40000009536743","","","","2","stimuli/stim007_animate_bird_3.png","stimuli/stim009_animate_face_1.png","stimuli/fish_lowercase.png","387"
"html-button-response-mod","399","493289","0.0-399.0","73078","","","","","","triplet","312.5","","","","2","stimuli/bird_uppercase.png","stimuli/stim017_inanimate_tree_1.png","stimuli/stim010_animate_face_2.png","388"
"html-button-response-mod","400","493939","0.0-400.0","73078","","","","","","triplet","142.59999990463257","","","","2","stimuli/stim024_inanimate_tools_4.png","stimuli/stim018_inanimate_tree_2.png","stimuli/stim014_inanimate_boats_2.png","389"
"html-button-response-mod","401","494573","0.0-401.0","73078","","","","","","triplet","125","","","","2","stimuli/boats_lowercase.png","stimuli/face_uppercase.png","stimuli/stim011_animate_face_3.png","390"
"html-button-response-mod","402","495440","0.0-402.0","73078","","","","","","triplet","359.09999990463257","","","","2","stimuli/stim004_animate_fish_4.png","stimuli/stim019_inanimate_tree_3.png","stimuli/stim011_animate_face_3.png","391"
"html-button-response-mod","403","496239","0.0-403.0","73078","","","","","","triplet","292.59999990463257","","","","2","stimuli/fish_uppercase.png","stimuli/stim023_inanimate_tools_3.png","stimuli/tools_lowercase.png","392"
"html-button-response-mod","404","497073","0.0-404.0","73078","","","","","","triplet","330.40000009536743","","","","2","stimuli/stim004_animate_fish_4.png","stimuli/stim017_inanimate_tree_1.png","stimuli/face_lowercase.png","393"
"html-button-response-mod","405","497907","0.0-405.0","73078","","","","","","triplet","326.5","","","","2","stimuli/stim024_inanimate_tools_4.png","stimuli/stim013_inanimate_boats_1.png","stimuli/stim008_animate_bird_4.png","394"
"html-button-response-mod","406","498724","0.0-406.0","73078","","","","","","triplet","310.40000009536743","","","","2","stimuli/stim019_inanimate_tree_3.png","stimuli/stim004_animate_fish_4.png","stimuli/stim007_animate_bird_3.png","395"
"html-button-response-mod","407","499374","0.0-407.0","73078","","","","","","triplet","143.59999990463257","","","","2","stimuli/stim017_inanimate_tree_1.png","stimuli/stim018_inanimate_tree_2.png","stimuli/stim019_inanimate_tree_3.png","396"
"html-button-response-mod","408","500007","0.0-408.0","73078","","","","","","triplet","126.40000009536743","","","","2","stimuli/stim011_animate_face_3.png","stimuli/stim017_inanimate_tree_1.png","stimuli/tree_lowercase.png","397"
"html-button-response-mod","409","500707","0.0-409.0","73078","","","","","","triplet","194.59999990463257","","","","2","stimuli/stim011_animate_face_3.png","stimuli/stim024_inanimate_tools_4.png","stimuli/stim023_inanimate_tools_3.png","398"
"html-button-response-mod","410","501490","0.0-410.0","73078","","","","","","triplet","275.80000019073486","","","","2","stimuli/fish_uppercase.png","stimuli/stim004_animate_fish_4.png","stimuli/bird_lowercase.png","399"
"html-button-response","411","503123","0.0-411.0","73078","","","","","","break","1126.5","<p>BREAK</p><p>Take a break for as long as you need</p><p>Click the button to continue</p>","0","","","","","",""
"survey-text","412","510677","0.0-412.0","73078","","","","","","data_patterns","7540","","{""Q0"":""yes\\\n""}","","","","","",""
"survey-text","413","513665","0.0-413.0","73078","","","","","","age_question","2982.9000000953674","","{""Age"":""19""}","","","","","",""
"html-button-response","414","516060","0.0-414.0","73078","","","","","","gender_question","2391.7999997138977","How would you like your gender to be recorded?","0","","","","","",""
"html-button-response","415","517975","0.0-415.0","73078","","","","","","debrief","1912.4000000953674","<p> Thank you for participating in this experiment! </p><p> We are investigating the dimensions along which you perceive the world </p><p>The images were all sorted according to whether they are animate or not, and </p><p> whether they are text or images. We are comparing this to some neuroimaging data to see </p> how your conscious classification relates to how your brain classifies the objects automatically. </p>","0","521199.59999990463","","","","",""
