"trial_type","trial_index","time_elapsed","internal_node_id","subject","success","timeout","failed_images","failed_audio","failed_video","test_part","rt","stimulus","response","end_time","button_pressed","stim0","stim1","stim2","trialnr"
"pavlovia","0","14","0.0-0.0","73644","","","","","","","","","","","","","","",""
"preload","1","811","0.0-1.0","73644","true","false","[]","[]","[]","preload","","","","","","","","",""
"html-button-response","2","75083","0.0-2.0","73644","","","","","","","74270.10000000894","<p>Welcome to the experiment. To begin, please read the following and press the button at the bottom of the screen.</p><p></p><p><strong>Project Name: A study on cognitive processes involved in visual perception</p></strong><p></p><p><strong>PARTICIPANT INFORMATION STATEMENT</strong></p><p></p><strong>(1) What is the study about?</strong><br>You are invited to participate in a study that investigates the cognitive processes involved in perceiving and recognizing visual stimuli.If you decide to participate, you will be asked to complete a task in which you will view pictures, letters, numbers, or words presented on a computer screen.<br><strong>(2) Who can participate?</strong><br>Anyone aged 18 years or over with access to a computer (not a phone/tablet)<br><strong>(3) Where is the study located?</strong><br>The study will be conducted in your browser<br><strong>(4) Who is carrying out the study?</strong><br>The study is being conducted by Sophia Shatek from the Computational Cognitive Neuroscience laboratory at the University of Sydney.<br><strong>(5) What does the study involve?</strong><br>In this study, you will be asked to perform tasks where you will see different stimuli appear on the computer screen.You will respond by pressing a key or using a computer mouse.<br><strong>(6) How much time will the study take?</strong><br>The study takes about 30 minutes<br><strong>(7)	Can I withdraw from the study?</strong><br>Being in this study is completely voluntary - you are not under any obligation to consent. You can withdraw at any time without having to give a reason and without penalty.<br><strong>(8) Will anyone else know the results?</strong><br>All aspects of the study, including results, will be strictly confidential and only the researchers will have access to information on participants.The results and data from the study may be submitted for publication or shared with other research labs, but individual participants will not be identifiable.<br><strong>(9) Will the study benefit me?</strong><br>You will be awarded 0.5 credits for your participation.<br><strong>(10) Can I tell other people about the study?</strong><br>Yes, please tell them to contact Dr Thomas Carlson by email at thomas.carlson@sydney.edu.au.<br><strong>(11) What if I require further information about the study or my involvement in it?</strong><br>When you have read this information, the investigator will discuss it with you further and answer any questions you may have.If you would like to know more at any stage, please feel free to contact Dr Thomas Carlson directly by email at thomas.carlson@sydney.edu.au.If you would like to be informed about the outcomes of the study, contact Dr Thomas Carlson directly by email at thomas.carlson@sydney.edu.au.<br><strong>(12) What if I have a complaint or any concerns?</strong><br>Any person with concerns or complaints about the conduct of a research study can contact The Manager,Human Ethics Administration, University of Sydney on +61 2 8627 8176 (Telephone); +61 2 8627 8177 (Facsimile) or ro.humanethics@sydney.edu.au (Email).</p><p></p><strong>By participating in this experiment, you consent to participate in this study and acknowledge that:</strong><br>1. The procedures required for the project and the times involved have been explained to me, and any questions I have about the project have been answered to my satisfaction.<br>2.	I have read the Above Information Statement and have been given the opportunity to discuss the information and my involvement in the project with the researcher/s.<br>3. I understand that allowing my data to be used in research reports is completely voluntary - I am not under any obligation to consent.<br>4. I understand that my involvement is strictly confidential. I understand that any research data gathered from the results of the study may be publishedhowever no information about me will be used in any way that is identifiable.</p><p></p>","0","","","","","",""
"html-button-response","3","83874","0.0-3.0","73644","","","","","","opening_instructions","8789.09999999404","<p>In this experiment, you will see three images appear on the screen.</p><p>You need to click the 'odd one out', or the image </p><p>that LOOKS MOST DIFFERENT to the other two. </p><p>Just go with your intuition, don't spend too long thinking about each one.</p>","0","87510.40000000596","","","","",""
"html-button-response-mod","4","87303","0.0-4.0","73644","","","","","","triplet","3425.800000011921","","","","1","stimuli/face_uppercase.png","stimuli/stim013_inanimate_boats_1.png","stimuli/stim007_animate_bird_3.png","0"
"html-button-response-mod","5","90546","0.0-5.0","73644","","","","","","triplet","2732.4000000059605","","","","2","stimuli/stim002_animate_fish_2.png","stimuli/stim012_animate_face_4.png","stimuli/face_uppercase.png","1"
"html-button-response-mod","6","93803","0.0-6.0","73644","","","","","","triplet","2754.2000000029802","","","","2","stimuli/tree_lowercase.png","stimuli/stim005_animate_bird_1.png","stimuli/boats_uppercase.png","2"
"html-button-response-mod","7","96483","0.0-7.0","73644","","","","","","triplet","2172.1000000089407","","","","2","stimuli/stim002_animate_fish_2.png","stimuli/stim005_animate_bird_1.png","stimuli/bird_lowercase.png","3"
"html-button-response-mod","8","99898","0.0-8.0","73644","","","","","","triplet","2908.2000000029802","","","","2","stimuli/stim011_animate_face_3.png","stimuli/stim013_inanimate_boats_1.png","stimuli/stim022_inanimate_tools_2.png","4"
"html-button-response-mod","9","101902","0.0-9.0","73644","","","","","","triplet","1498.5","","","","2","stimuli/stim012_animate_face_4.png","stimuli/stim016_inanimate_boats_4.png","stimuli/tree_uppercase.png","5"
"html-button-response-mod","10","104745","0.0-10.0","73644","","","","","","triplet","2339.9000000059605","","","","2","stimuli/stim010_animate_face_2.png","stimuli/stim011_animate_face_3.png","stimuli/stim018_inanimate_tree_2.png","6"
"html-button-response-mod","11","107981","0.0-11.0","73644","","","","","","triplet","2727.0999999940395","","","","2","stimuli/stim010_animate_face_2.png","stimuli/stim013_inanimate_boats_1.png","stimuli/stim021_inanimate_tools_1.png","7"
"html-button-response-mod","12","109813","0.0-12.0","73644","","","","","","triplet","1317.4000000059605","","","","0","stimuli/tools_lowercase.png","stimuli/stim020_inanimate_tree_4.png","stimuli/stim009_animate_face_1.png","8"
"html-button-response-mod","13","112265","0.0-13.0","73644","","","","","","triplet","1948.5","","","","0","stimuli/stim016_inanimate_boats_4.png","stimuli/fish_lowercase.png","stimuli/boats_lowercase.png","9"
"html-button-response-mod","14","113976","0.0-14.0","73644","","","","","","triplet","1199.1000000089407","","","","1","stimuli/tools_uppercase.png","stimuli/stim003_animate_fish_3.png","stimuli/boats_lowercase.png","10"
"html-button-response-mod","15","115680","0.0-15.0","73644","","","","","","triplet","1184.5","","","","1","stimuli/tree_uppercase.png","stimuli/stim023_inanimate_tools_3.png","stimuli/face_lowercase.png","11"
"html-button-response-mod","16","118166","0.0-16.0","73644","","","","","","triplet","1974.2999999970198","","","","0","stimuli/tree_uppercase.png","stimuli/stim014_inanimate_boats_2.png","stimuli/stim024_inanimate_tools_4.png","12"
"html-button-response-mod","17","119628","0.0-17.0","73644","","","","","","triplet","945.5","","","","0","stimuli/stim004_animate_fish_4.png","stimuli/tools_uppercase.png","stimuli/boats_uppercase.png","13"
"html-button-response-mod","18","121232","0.0-18.0","73644","","","","","","triplet","1094.199999988079","","","","0","stimuli/fish_lowercase.png","stimuli/stim016_inanimate_boats_4.png","stimuli/stim011_animate_face_3.png","14"
"html-button-response-mod","19","123206","0.0-19.0","73644","","","","","","triplet","1463.2000000029802","","","","2","stimuli/stim020_inanimate_tree_4.png","stimuli/stim004_animate_fish_4.png","stimuli/face_lowercase.png","15"
"html-button-response-mod","20","124824","0.0-20.0","73644","","","","","","triplet","1100.7000000029802","","","","1","stimuli/stim003_animate_fish_3.png","stimuli/face_uppercase.png","stimuli/stim017_inanimate_tree_1.png","16"
"html-button-response-mod","21","126543","0.0-21.0","73644","","","","","","triplet","1202.3999999910593","","","","0","stimuli/stim013_inanimate_boats_1.png","stimuli/fish_lowercase.png","stimuli/face_lowercase.png","17"
"html-button-response-mod","22","128303","0.0-22.0","73644","","","","","","triplet","1256.5","","","","0","stimuli/bird_uppercase.png","stimuli/stim006_animate_bird_2.png","stimuli/stim013_inanimate_boats_1.png","18"
"html-button-response-mod","23","132373","0.0-23.0","73644","","","","","","triplet","3565.8999999910593","","","","1","stimuli/stim018_inanimate_tree_2.png","stimuli/stim016_inanimate_boats_4.png","stimuli/stim009_animate_face_1.png","19"
"html-button-response-mod","24","134347","0.0-24.0","73644","","","","","","triplet","1462.7999999970198","","","","1","stimuli/stim021_inanimate_tools_1.png","stimuli/boats_lowercase.png","stimuli/stim013_inanimate_boats_1.png","20"
"html-button-response-mod","25","137370","0.0-25.0","73644","","","","","","triplet","2517.2999999970198","","","","1","stimuli/face_uppercase.png","stimuli/stim018_inanimate_tree_2.png","stimuli/fish_uppercase.png","21"
"html-button-response-mod","26","139158","0.0-26.0","73644","","","","","","triplet","1275.4000000059605","","","","0","stimuli/boats_uppercase.png","stimuli/stim008_animate_bird_4.png","stimuli/stim009_animate_face_1.png","22"
"html-button-response-mod","27","140748","0.0-27.0","73644","","","","","","triplet","1084.3999999910593","","","","0","stimuli/stim015_inanimate_boats_3.png","stimuli/face_lowercase.png","stimuli/boats_uppercase.png","23"
"html-button-response-mod","28","142345","0.0-28.0","73644","","","","","","triplet","1089.2000000029802","","","","1","stimuli/stim019_inanimate_tree_3.png","stimuli/bird_uppercase.png","stimuli/stim020_inanimate_tree_4.png","24"
"html-button-response-mod","29","144576","0.0-29.0","73644","","","","","","triplet","1720.5","","","","0","stimuli/stim019_inanimate_tree_3.png","stimuli/tools_lowercase.png","stimuli/tree_uppercase.png","25"
"html-button-response-mod","30","147541","0.0-30.0","73644","","","","","","triplet","2454.4000000059605","","","","2","stimuli/fish_lowercase.png","stimuli/tools_lowercase.png","stimuli/stim012_animate_face_4.png","26"
"html-button-response-mod","31","149187","0.0-31.0","73644","","","","","","triplet","1124.1000000089407","","","","2","stimuli/stim005_animate_bird_1.png","stimuli/stim019_inanimate_tree_3.png","stimuli/boats_lowercase.png","27"
"html-button-response-mod","32","150728","0.0-32.0","73644","","","","","","triplet","1029.4000000059605","","","","0","stimuli/tools_uppercase.png","stimuli/stim006_animate_bird_2.png","stimuli/stim007_animate_bird_3.png","28"
"html-button-response-mod","33","154726","0.0-33.0","73644","","","","","","triplet","3479.7000000029802","","","","2","stimuli/stim010_animate_face_2.png","stimuli/stim013_inanimate_boats_1.png","stimuli/stim018_inanimate_tree_2.png","29"
"html-button-response-mod","34","156893","0.0-34.0","73644","","","","","","triplet","1659.5999999940395","","","","2","stimuli/stim020_inanimate_tree_4.png","stimuli/stim001_animate_fish_1.png","stimuli/stim023_inanimate_tools_3.png","30"
"html-button-response-mod","35","159545","0.0-35.0","73644","","","","","","triplet","2142.1000000089407","","","","2","stimuli/stim007_animate_bird_3.png","stimuli/bird_lowercase.png","stimuli/stim024_inanimate_tools_4.png","31"
"html-button-response-mod","36","161504","0.0-36.0","73644","","","","","","triplet","1451.4000000059605","","","","0","stimuli/boats_lowercase.png","stimuli/stim019_inanimate_tree_3.png","stimuli/stim023_inanimate_tools_3.png","32"
"html-button-response-mod","37","162531","0.0-37.0","73644","","","","","","triplet","517.4000000059605","","","","0","stimuli/face_lowercase.png","stimuli/stim021_inanimate_tools_1.png","stimuli/stim006_animate_bird_2.png","33"
"html-button-response-mod","38","165090","0.0-38.0","73644","","","","","","triplet","2048.300000011921","","","","1","stimuli/stim014_inanimate_boats_2.png","stimuli/stim012_animate_face_4.png","stimuli/stim015_inanimate_boats_3.png","34"
"html-button-response-mod","39","167377","0.0-39.0","73644","","","","","","triplet","1774.7999999970198","","","","1","stimuli/stim008_animate_bird_4.png","stimuli/stim022_inanimate_tools_2.png","stimuli/stim003_animate_fish_3.png","35"
"html-button-response-mod","40","169452","0.0-40.0","73644","","","","","","triplet","1567.6000000089407","","","","0","stimuli/stim001_animate_fish_1.png","stimuli/bird_uppercase.png","stimuli/bird_lowercase.png","36"
"html-button-response-mod","41","171026","0.0-41.0","73644","","","","","","triplet","1071.5","","","","1","stimuli/stim010_animate_face_2.png","stimuli/tools_uppercase.png","stimuli/stim011_animate_face_3.png","37"
"html-button-response-mod","42","172310","0.0-42.0","73644","","","","","","triplet","770.5","","","","2","stimuli/stim010_animate_face_2.png","stimuli/stim008_animate_bird_4.png","stimuli/bird_lowercase.png","38"
"html-button-response-mod","43","174120","0.0-43.0","73644","","","","","","triplet","1306.2000000029802","","","","2","stimuli/stim001_animate_fish_1.png","stimuli/stim002_animate_fish_2.png","stimuli/stim018_inanimate_tree_2.png","39"
"html-button-response-mod","44","175888","0.0-44.0","73644","","","","","","triplet","1253.9000000059605","","","","2","stimuli/stim014_inanimate_boats_2.png","stimuli/stim012_animate_face_4.png","stimuli/tree_uppercase.png","40"
"html-button-response-mod","45","178454","0.0-45.0","73644","","","","","","triplet","2060.3999999910593","","","","2","stimuli/stim005_animate_bird_1.png","stimuli/stim010_animate_face_2.png","stimuli/stim022_inanimate_tools_2.png","41"
"html-button-response-mod","46","181498","0.0-46.0","73644","","","","","","triplet","2539.5","","","","0","stimuli/bird_lowercase.png","stimuli/stim017_inanimate_tree_1.png","stimuli/stim016_inanimate_boats_4.png","42"
"html-button-response-mod","47","182853","0.0-47.0","73644","","","","","","triplet","842.7999999970198","","","","0","stimuli/face_uppercase.png","stimuli/stim001_animate_fish_1.png","stimuli/stim008_animate_bird_4.png","43"
"html-button-response-mod","48","184506","0.0-48.0","73644","","","","","","triplet","1129.7000000029802","","","","2","stimuli/stim024_inanimate_tools_4.png","stimuli/stim006_animate_bird_2.png","stimuli/tree_lowercase.png","44"
"html-button-response-mod","49","187666","0.0-49.0","73644","","","","","","triplet","2651.7999999970198","","","","2","stimuli/stim005_animate_bird_1.png","stimuli/stim008_animate_bird_4.png","stimuli/stim012_animate_face_4.png","45"
"html-button-response-mod","50","189068","0.0-50.0","73644","","","","","","triplet","897.2000000029802","","","","2","stimuli/stim017_inanimate_tree_1.png","stimuli/stim020_inanimate_tree_4.png","stimuli/tools_lowercase.png","46"
"html-button-response-mod","51","192646","0.0-51.0","73644","","","","","","triplet","3067.5","","","","1","stimuli/stim018_inanimate_tree_2.png","stimuli/stim014_inanimate_boats_2.png","stimuli/stim008_animate_bird_4.png","47"
"html-button-response-mod","52","195212","0.0-52.0","73644","","","","","","triplet","2052.2999999970198","","","","0","stimuli/stim024_inanimate_tools_4.png","stimuli/stim018_inanimate_tree_2.png","stimuli/stim014_inanimate_boats_2.png","48"
"html-button-response-mod","53","197031","0.0-53.0","73644","","","","","","triplet","1305.7999999970198","","","","2","stimuli/stim006_animate_bird_2.png","stimuli/stim012_animate_face_4.png","stimuli/bird_uppercase.png","49"
"html-button-response","54","199809","0.0-54.0","73644","","","","","","break","2264.6000000089407","<p>BREAK</p><p>Take a break for as long as you need</p><p>Click the button to continue</p>","0","","","","","",""
"html-button-response-mod","55","200167","0.0-55.0","73644","","","","","","triplet","355.3999999910593","","","","2","stimuli/stim021_inanimate_tools_1.png","stimuli/fish_uppercase.png","stimuli/stim023_inanimate_tools_3.png","50"
"html-button-response-mod","56","202583","0.0-56.0","73644","","","","","","triplet","1902.2000000029802","","","","1","stimuli/stim001_animate_fish_1.png","stimuli/stim016_inanimate_boats_4.png","stimuli/stim002_animate_fish_2.png","51"
"html-button-response-mod","57","204628","0.0-57.0","73644","","","","","","triplet","1531.2000000029802","","","","2","stimuli/tree_lowercase.png","stimuli/face_lowercase.png","stimuli/stim010_animate_face_2.png","52"
"html-button-response-mod","58","207522","0.0-58.0","73644","","","","","","triplet","2379.5","","","","2","stimuli/bird_lowercase.png","stimuli/fish_lowercase.png","stimuli/stim014_inanimate_boats_2.png","53"
"html-button-response-mod","59","210630","0.0-59.0","73644","","","","","","triplet","2595.0999999940395","","","","0","stimuli/stim017_inanimate_tree_1.png","stimuli/stim009_animate_face_1.png","stimuli/stim014_inanimate_boats_2.png","54"
"html-button-response-mod","60","213683","0.0-60.0","73644","","","","","","triplet","2536.2999999970198","","","","1","stimuli/stim005_animate_bird_1.png","stimuli/stim004_animate_fish_4.png","stimuli/stim006_animate_bird_2.png","55"
"html-button-response-mod","61","215178","0.0-61.0","73644","","","","","","triplet","987","","","","1","stimuli/stim008_animate_bird_4.png","stimuli/face_lowercase.png","stimuli/stim007_animate_bird_3.png","56"
"html-button-response-mod","62","216890","0.0-62.0","73644","","","","","","triplet","1195","","","","0","stimuli/tools_uppercase.png","stimuli/stim008_animate_bird_4.png","stimuli/stim018_inanimate_tree_2.png","57"
"html-button-response-mod","63","218729","0.0-63.0","73644","","","","","","triplet","1330.5","","","","1","stimuli/fish_lowercase.png","stimuli/stim007_animate_bird_3.png","stimuli/fish_uppercase.png","58"
"html-button-response-mod","64","220181","0.0-64.0","73644","","","","","","triplet","947.7000000029802","","","","2","stimuli/stim018_inanimate_tree_2.png","stimuli/stim011_animate_face_3.png","stimuli/boats_lowercase.png","59"
"html-button-response-mod","65","221471","0.0-65.0","73644","","","","","","triplet","773.4000000059605","","","","2","stimuli/stim022_inanimate_tools_2.png","stimuli/stim002_animate_fish_2.png","stimuli/tools_uppercase.png","60"
"html-button-response-mod","66","222506","0.0-66.0","73644","","","","","","triplet","522.6000000089407","","","","2","stimuli/stim024_inanimate_tools_4.png","stimuli/stim003_animate_fish_3.png","stimuli/bird_lowercase.png","61"
"html-button-response-mod","67","224017","0.0-67.0","73644","","","","","","triplet","1000.3999999910593","","","","0","stimuli/boats_lowercase.png","stimuli/stim020_inanimate_tree_4.png","stimuli/stim023_inanimate_tools_3.png","62"
"html-button-response-mod","68","225249","0.0-68.0","73644","","","","","","triplet","718.7000000029802","","","","1","stimuli/stim019_inanimate_tree_3.png","stimuli/fish_lowercase.png","stimuli/stim020_inanimate_tree_4.png","63"
"html-button-response-mod","69","228942","0.0-69.0","73644","","","","","","triplet","3179.2999999970198","","","","2","stimuli/stim010_animate_face_2.png","stimuli/stim003_animate_fish_3.png","stimuli/stim018_inanimate_tree_2.png","64"
"html-button-response-mod","70","230503","0.0-70.0","73644","","","","","","triplet","1049.5","","","","1","stimuli/face_lowercase.png","stimuli/stim013_inanimate_boats_1.png","stimuli/face_uppercase.png","65"
"html-button-response-mod","71","259179","0.0-71.0","73644","","","","","","triplet","28167.5","","","","2","stimuli/stim022_inanimate_tools_2.png","stimuli/stim013_inanimate_boats_1.png","stimuli/boats_lowercase.png","66"
"html-button-response-mod","72","261238","0.0-72.0","73644","","","","","","triplet","1541.5999999940395","","","","1","stimuli/boats_lowercase.png","stimuli/stim018_inanimate_tree_2.png","stimuli/tools_lowercase.png","67"
"html-button-response-mod","73","264731","0.0-73.0","73644","","","","","","triplet","2986","","","","1","stimuli/stim014_inanimate_boats_2.png","stimuli/stim021_inanimate_tools_1.png","stimuli/stim015_inanimate_boats_3.png","68"
"html-button-response-mod","74","266521","0.0-74.0","73644","","","","","","triplet","1279.1000000089407","","","","0","stimuli/fish_lowercase.png","stimuli/stim024_inanimate_tools_4.png","stimuli/stim006_animate_bird_2.png","69"
"html-button-response-mod","75","268118","0.0-75.0","73644","","","","","","triplet","1080.5999999940395","","","","1","stimuli/stim006_animate_bird_2.png","stimuli/fish_uppercase.png","stimuli/stim012_animate_face_4.png","70"
"html-button-response-mod","76","269608","0.0-76.0","73644","","","","","","triplet","979.6000000089407","","","","0","stimuli/stim020_inanimate_tree_4.png","stimuli/tree_lowercase.png","stimuli/fish_lowercase.png","71"
"html-button-response-mod","77","270918","0.0-77.0","73644","","","","","","triplet","795.5","","","","0","stimuli/stim009_animate_face_1.png","stimuli/bird_lowercase.png","stimuli/fish_lowercase.png","72"
"html-button-response-mod","78","274140","0.0-78.0","73644","","","","","","triplet","2716.6000000089407","","","","2","stimuli/stim020_inanimate_tree_4.png","stimuli/stim005_animate_bird_1.png","stimuli/stim004_animate_fish_4.png","73"
"html-button-response-mod","79","276999","0.0-79.0","73644","","","","","","triplet","2353.199999988079","","","","1","stimuli/stim020_inanimate_tree_4.png","stimuli/stim022_inanimate_tools_2.png","stimuli/stim016_inanimate_boats_4.png","74"
"html-button-response-mod","80","284490","0.0-80.0","73644","","","","","","triplet","6986.5999999940395","","","","1","stimuli/stim011_animate_face_3.png","stimuli/stim015_inanimate_boats_3.png","stimuli/stim017_inanimate_tree_1.png","75"
"html-button-response-mod","81","286365","0.0-81.0","73644","","","","","","triplet","1356.300000011921","","","","1","stimuli/face_lowercase.png","stimuli/stim006_animate_bird_2.png","stimuli/tools_lowercase.png","76"
"html-button-response-mod","82","288874","0.0-82.0","73644","","","","","","triplet","2001.1000000089407","","","","2","stimuli/stim002_animate_fish_2.png","stimuli/stim019_inanimate_tree_3.png","stimuli/stim015_inanimate_boats_3.png","77"
"html-button-response-mod","83","290906","0.0-83.0","73644","","","","","","triplet","1525.8999999910593","","","","1","stimuli/stim005_animate_bird_1.png","stimuli/fish_lowercase.png","stimuli/stim017_inanimate_tree_1.png","78"
"html-button-response-mod","84","292502","0.0-84.0","73644","","","","","","triplet","1083.7000000029802","","","","0","stimuli/tools_uppercase.png","stimuli/stim021_inanimate_tools_1.png","stimuli/stim003_animate_fish_3.png","79"
"html-button-response-mod","85","299268","0.0-85.0","73644","","","","","","triplet","6249.70000000298","","","","0","stimuli/tree_lowercase.png","stimuli/stim010_animate_face_2.png","stimuli/stim013_inanimate_boats_1.png","80"
"html-button-response-mod","86","302675","0.0-86.0","73644","","","","","","triplet","2883.3999999910593","","","","2","stimuli/stim023_inanimate_tools_3.png","stimuli/stim022_inanimate_tools_2.png","stimuli/stim005_animate_bird_1.png","81"
"html-button-response-mod","87","304642","0.0-87.0","73644","","","","","","triplet","1453.699999988079","","","","2","stimuli/stim006_animate_bird_2.png","stimuli/stim002_animate_fish_2.png","stimuli/stim012_animate_face_4.png","82"
"html-button-response-mod","88","306032","0.0-88.0","73644","","","","","","triplet","879.7999999970198","","","","2","stimuli/stim008_animate_bird_4.png","stimuli/stim011_animate_face_3.png","stimuli/tools_uppercase.png","83"
"html-button-response-mod","89","308698","0.0-89.0","73644","","","","","","triplet","2159.5999999940395","","","","1","stimuli/stim023_inanimate_tools_3.png","stimuli/stim009_animate_face_1.png","stimuli/stim021_inanimate_tools_1.png","84"
"html-button-response-mod","90","310580","0.0-90.0","73644","","","","","","triplet","1369.7999999970198","","","","1","stimuli/stim024_inanimate_tools_4.png","stimuli/face_lowercase.png","stimuli/stim014_inanimate_boats_2.png","85"
"html-button-response-mod","91","312014","0.0-91.0","73644","","","","","","triplet","921","","","","1","stimuli/stim022_inanimate_tools_2.png","stimuli/bird_lowercase.png","stimuli/stim019_inanimate_tree_3.png","86"
"html-button-response-mod","92","313617","0.0-92.0","73644","","","","","","triplet","1088","","","","1","stimuli/stim019_inanimate_tree_3.png","stimuli/stim001_animate_fish_1.png","stimuli/stim020_inanimate_tree_4.png","87"
"html-button-response-mod","93","315120","0.0-93.0","73644","","","","","","triplet","991.1000000089407","","","","2","stimuli/stim018_inanimate_tree_2.png","stimuli/stim002_animate_fish_2.png","stimuli/boats_uppercase.png","88"
"html-button-response-mod","94","316760","0.0-94.0","73644","","","","","","triplet","1120.6000000089407","","","","1","stimuli/stim008_animate_bird_4.png","stimuli/boats_uppercase.png","stimuli/stim018_inanimate_tree_2.png","89"
"html-button-response-mod","95","318249","0.0-95.0","73644","","","","","","triplet","985.5","","","","2","stimuli/stim007_animate_bird_3.png","stimuli/stim011_animate_face_3.png","stimuli/tree_uppercase.png","90"
"html-button-response-mod","96","323325","0.0-96.0","73644","","","","","","triplet","4557","","","","1","stimuli/stim017_inanimate_tree_1.png","stimuli/stim011_animate_face_3.png","stimuli/stim003_animate_fish_3.png","91"
"html-button-response-mod","97","324821","0.0-97.0","73644","","","","","","triplet","976.5","","","","2","stimuli/stim020_inanimate_tree_4.png","stimuli/stim024_inanimate_tools_4.png","stimuli/fish_uppercase.png","92"
"html-button-response-mod","98","326460","0.0-98.0","73644","","","","","","triplet","1131.7999999970198","","","","1","stimuli/fish_lowercase.png","stimuli/stim001_animate_fish_1.png","stimuli/boats_lowercase.png","93"
"html-button-response-mod","99","328678","0.0-99.0","73644","","","","","","triplet","1713.5999999940395","","","","2","stimuli/stim011_animate_face_3.png","stimuli/stim005_animate_bird_1.png","stimuli/boats_lowercase.png","94"
"html-button-response-mod","100","330916","0.0-100.0","73644","","","","","","triplet","1716.5999999940395","","","","2","stimuli/stim012_animate_face_4.png","stimuli/stim009_animate_face_1.png","stimuli/stim014_inanimate_boats_2.png","95"
"html-button-response-mod","101","332691","0.0-101.0","73644","","","","","","triplet","1261","","","","2","stimuli/stim007_animate_bird_3.png","stimuli/stim009_animate_face_1.png","stimuli/face_uppercase.png","96"
"html-button-response-mod","102","334173","0.0-102.0","73644","","","","","","triplet","974.7999999970198","","","","2","stimuli/stim003_animate_fish_3.png","stimuli/stim001_animate_fish_1.png","stimuli/stim023_inanimate_tools_3.png","97"
"html-button-response-mod","103","336305","0.0-103.0","73644","","","","","","triplet","1627.2000000029802","","","","0","stimuli/bird_uppercase.png","stimuli/stim022_inanimate_tools_2.png","stimuli/stim006_animate_bird_2.png","98"
"html-button-response-mod","104","337859","0.0-104.0","73644","","","","","","triplet","1041.2000000029802","","","","1","stimuli/stim018_inanimate_tree_2.png","stimuli/stim003_animate_fish_3.png","stimuli/stim020_inanimate_tree_4.png","99"
"html-button-response","105","341268","0.0-105.0","73644","","","","","","break","2894.300000011921","<p>BREAK</p><p>Take a break for as long as you need</p><p>Click the button to continue</p>","0","","","","","",""
"html-button-response-mod","106","342877","0.0-106.0","73644","","","","","","triplet","1607.9000000059605","","","","1","stimuli/tree_uppercase.png","stimuli/stim003_animate_fish_3.png","stimuli/boats_lowercase.png","100"
"html-button-response-mod","107","344260","0.0-107.0","73644","","","","","","triplet","873.0999999940395","","","","1","stimuli/tools_lowercase.png","stimuli/stim016_inanimate_boats_4.png","stimuli/face_lowercase.png","101"
"html-button-response-mod","108","346527","0.0-108.0","73644","","","","","","triplet","1758.8999999910593","","","","0","stimuli/stim010_animate_face_2.png","stimuli/stim015_inanimate_boats_3.png","stimuli/stim007_animate_bird_3.png","102"
"html-button-response-mod","109","347888","0.0-109.0","73644","","","","","","triplet","848.7999999970198","","","","2","stimuli/stim014_inanimate_boats_2.png","stimuli/stim017_inanimate_tree_1.png","stimuli/face_uppercase.png","103"
"html-button-response-mod","110","349613","0.0-110.0","73644","","","","","","triplet","1220.5","","","","2","stimuli/stim005_animate_bird_1.png","stimuli/stim007_animate_bird_3.png","stimuli/stim003_animate_fish_3.png","104"
"html-button-response-mod","111","352579","0.0-111.0","73644","","","","","","triplet","2461.4000000059605","","","","0","stimuli/stim013_inanimate_boats_1.png","stimuli/stim019_inanimate_tree_3.png","stimuli/stim003_animate_fish_3.png","105"
"html-button-response-mod","112","354347","0.0-112.0","73644","","","","","","triplet","1260.5999999940395","","","","2","stimuli/fish_lowercase.png","stimuli/tools_lowercase.png","stimuli/stim017_inanimate_tree_1.png","106"
"html-button-response-mod","113","356664","0.0-113.0","73644","","","","","","triplet","1802.199999988079","","","","0","stimuli/stim022_inanimate_tools_2.png","stimuli/face_uppercase.png","stimuli/bird_uppercase.png","107"
"html-button-response-mod","114","358974","0.0-114.0","73644","","","","","","triplet","1806.2999999970198","","","","1","stimuli/stim020_inanimate_tree_4.png","stimuli/stim002_animate_fish_2.png","stimuli/stim006_animate_bird_2.png","108"
"html-button-response-mod","115","360499","0.0-115.0","73644","","","","","","triplet","1011.5","","","","2","stimuli/fish_uppercase.png","stimuli/fish_lowercase.png","stimuli/stim008_animate_bird_4.png","109"
"html-button-response-mod","116","362117","0.0-116.0","73644","","","","","","triplet","1110.0999999940395","","","","2","stimuli/stim016_inanimate_boats_4.png","stimuli/stim007_animate_bird_3.png","stimuli/boats_uppercase.png","110"
"html-button-response-mod","117","363686","0.0-117.0","73644","","","","","","triplet","1066.2999999970198","","","","1","stimuli/stim005_animate_bird_1.png","stimuli/boats_uppercase.png","stimuli/stim019_inanimate_tree_3.png","111"
"html-button-response-mod","118","365289","0.0-118.0","73644","","","","","","triplet","1085.7000000029802","","","","2","stimuli/stim009_animate_face_1.png","stimuli/stim003_animate_fish_3.png","stimuli/bird_uppercase.png","112"
"html-button-response-mod","119","366809","0.0-119.0","73644","","","","","","triplet","1015.9000000059605","","","","1","stimuli/stim012_animate_face_4.png","stimuli/tree_lowercase.png","stimuli/stim004_animate_fish_4.png","113"
"html-button-response-mod","120","368120","0.0-120.0","73644","","","","","","triplet","800.8999999910593","","","","0","stimuli/bird_uppercase.png","stimuli/stim008_animate_bird_4.png","stimuli/stim019_inanimate_tree_3.png","114"
"html-button-response-mod","121","369217","0.0-121.0","73644","","","","","","triplet","584.2999999970198","","","","0","stimuli/boats_lowercase.png","stimuli/stim018_inanimate_tree_2.png","stimuli/stim022_inanimate_tools_2.png","115"
"html-button-response-mod","122","372631","0.0-122.0","73644","","","","","","triplet","2906.4000000059605","","","","2","stimuli/stim009_animate_face_1.png","stimuli/stim006_animate_bird_2.png","stimuli/stim014_inanimate_boats_2.png","116"
"html-button-response-mod","123","375162","0.0-123.0","73644","","","","","","triplet","2023.9000000059605","","","","1","stimuli/stim010_animate_face_2.png","stimuli/stim016_inanimate_boats_4.png","stimuli/stim008_animate_bird_4.png","117"
"html-button-response-mod","124","377250","0.0-124.0","73644","","","","","","triplet","1583.5","","","","1","stimuli/tools_lowercase.png","stimuli/stim004_animate_fish_4.png","stimuli/bird_lowercase.png","118"
"html-button-response-mod","125","380992","0.0-125.0","73644","","","","","","triplet","3232.7000000029802","","","","0","stimuli/stim010_animate_face_2.png","stimuli/stim005_animate_bird_1.png","stimuli/stim018_inanimate_tree_2.png","119"
"html-button-response-mod","126","383345","0.0-126.0","73644","","","","","","triplet","1850.0999999940395","","","","1","stimuli/stim022_inanimate_tools_2.png","stimuli/tools_uppercase.png","stimuli/stim006_animate_bird_2.png","120"
"html-button-response-mod","127","385248","0.0-127.0","73644","","","","","","triplet","1390.0999999940395","","","","1","stimuli/tools_lowercase.png","stimuli/stim023_inanimate_tools_3.png","stimuli/tree_uppercase.png","121"
"html-button-response-mod","128","387294","0.0-128.0","73644","","","","","","triplet","1539","","","","0","stimuli/stim018_inanimate_tree_2.png","stimuli/fish_lowercase.png","stimuli/tools_lowercase.png","122"
"html-button-response-mod","129","390103","0.0-129.0","73644","","","","","","triplet","2305.5","","","","1","stimuli/stim011_animate_face_3.png","stimuli/stim024_inanimate_tools_4.png","stimuli/stim020_inanimate_tree_4.png","123"
"html-button-response-mod","130","391799","0.0-130.0","73644","","","","","","triplet","1178.2000000029802","","","","2","stimuli/stim004_animate_fish_4.png","stimuli/stim003_animate_fish_3.png","stimuli/stim020_inanimate_tree_4.png","124"
"html-button-response-mod","131","393852","0.0-131.0","73644","","","","","","triplet","1543.7000000029802","","","","0","stimuli/face_uppercase.png","stimuli/stim018_inanimate_tree_2.png","stimuli/stim016_inanimate_boats_4.png","125"
"html-button-response-mod","132","394978","0.0-132.0","73644","","","","","","triplet","620","","","","0","stimuli/face_uppercase.png","stimuli/stim009_animate_face_1.png","stimuli/stim023_inanimate_tools_3.png","126"
"html-button-response-mod","133","396090","0.0-133.0","73644","","","","","","triplet","600.9000000059605","","","","0","stimuli/tree_lowercase.png","stimuli/stim005_animate_bird_1.png","stimuli/stim021_inanimate_tools_1.png","127"
"html-button-response-mod","134","397801","0.0-134.0","73644","","","","","","triplet","1202.800000011921","","","","1","stimuli/bird_lowercase.png","stimuli/stim021_inanimate_tools_1.png","stimuli/tree_lowercase.png","128"
"html-button-response-mod","135","399940","0.0-135.0","73644","","","","","","triplet","1620.300000011921","","","","1","stimuli/tools_lowercase.png","stimuli/stim008_animate_bird_4.png","stimuli/face_lowercase.png","129"
"html-button-response-mod","136","401437","0.0-136.0","73644","","","","","","triplet","984.7999999970198","","","","2","stimuli/stim010_animate_face_2.png","stimuli/stim022_inanimate_tools_2.png","stimuli/boats_lowercase.png","130"
"html-button-response-mod","137","402833","0.0-137.0","73644","","","","","","triplet","890","","","","0","stimuli/face_uppercase.png","stimuli/stim014_inanimate_boats_2.png","stimuli/stim001_animate_fish_1.png","131"
"html-button-response-mod","138","404446","0.0-138.0","73644","","","","","","triplet","1096.0999999940395","","","","0","stimuli/stim020_inanimate_tree_4.png","stimuli/tree_lowercase.png","stimuli/boats_lowercase.png","132"
"html-button-response-mod","139","409028","0.0-139.0","73644","","","","","","triplet","4068.1000000089407","","","","0","stimuli/stim013_inanimate_boats_1.png","stimuli/stim008_animate_bird_4.png","stimuli/stim009_animate_face_1.png","133"
"html-button-response-mod","140","410803","0.0-140.0","73644","","","","","","triplet","1265","","","","0","stimuli/stim022_inanimate_tools_2.png","stimuli/fish_uppercase.png","stimuli/boats_uppercase.png","134"
"html-button-response-mod","141","412891","0.0-141.0","73644","","","","","","triplet","1582","","","","1","stimuli/stim018_inanimate_tree_2.png","stimuli/tools_lowercase.png","stimuli/stim004_animate_fish_4.png","135"
"html-button-response-mod","142","414915","0.0-142.0","73644","","","","","","triplet","1510.9000000059605","","","","2","stimuli/stim002_animate_fish_2.png","stimuli/stim005_animate_bird_1.png","stimuli/stim009_animate_face_1.png","136"
"html-button-response-mod","143","417581","0.0-143.0","73644","","","","","","triplet","2151.9000000059605","","","","1","stimuli/fish_uppercase.png","stimuli/tree_lowercase.png","stimuli/face_uppercase.png","137"
"html-button-response-mod","144","419141","0.0-144.0","73644","","","","","","triplet","1049","","","","0","stimuli/stim007_animate_bird_3.png","stimuli/bird_uppercase.png","stimuli/boats_uppercase.png","138"
"html-button-response-mod","145","420652","0.0-145.0","73644","","","","","","triplet","1000.1000000089407","","","","2","stimuli/stim018_inanimate_tree_2.png","stimuli/stim001_animate_fish_1.png","stimuli/fish_uppercase.png","139"
"html-button-response-mod","146","422356","0.0-146.0","73644","","","","","","triplet","1188","","","","1","stimuli/stim003_animate_fish_3.png","stimuli/face_uppercase.png","stimuli/stim001_animate_fish_1.png","140"
"html-button-response-mod","147","423804","0.0-147.0","73644","","","","","","triplet","944.3999999910593","","","","0","stimuli/face_lowercase.png","stimuli/stim013_inanimate_boats_1.png","stimuli/stim004_animate_fish_4.png","141"
"html-button-response-mod","148","425570","0.0-148.0","73644","","","","","","triplet","1253.4000000059605","","","","2","stimuli/stim004_animate_fish_4.png","stimuli/stim007_animate_bird_3.png","stimuli/stim024_inanimate_tools_4.png","142"
"html-button-response-mod","149","427018","0.0-149.0","73644","","","","","","triplet","942.0999999940395","","","","0","stimuli/stim010_animate_face_2.png","stimuli/stim002_animate_fish_2.png","stimuli/stim001_animate_fish_1.png","143"
"html-button-response-mod","150","428607","0.0-150.0","73644","","","","","","triplet","1077.2000000029802","","","","2","stimuli/tools_uppercase.png","stimuli/tools_lowercase.png","stimuli/stim016_inanimate_boats_4.png","144"
"html-button-response-mod","151","430803","0.0-151.0","73644","","","","","","triplet","1675.2000000029802","","","","2","stimuli/stim005_animate_bird_1.png","stimuli/stim006_animate_bird_2.png","stimuli/stim014_inanimate_boats_2.png","145"
"html-button-response-mod","152","432927","0.0-152.0","73644","","","","","","triplet","1619.4000000059605","","","","1","stimuli/stim015_inanimate_boats_3.png","stimuli/stim008_animate_bird_4.png","stimuli/stim023_inanimate_tools_3.png","146"
"html-button-response-mod","153","435144","0.0-153.0","73644","","","","","","triplet","1706.1000000089407","","","","2","stimuli/stim021_inanimate_tools_1.png","stimuli/stim024_inanimate_tools_4.png","stimuli/stim017_inanimate_tree_1.png","147"
"html-button-response-mod","154","436776","0.0-154.0","73644","","","","","","triplet","1128.5","","","","1","stimuli/stim003_animate_fish_3.png","stimuli/tree_lowercase.png","stimuli/stim020_inanimate_tree_4.png","148"
"html-button-response-mod","155","438465","0.0-155.0","73644","","","","","","triplet","1181.300000011921","","","","0","stimuli/stim003_animate_fish_3.png","stimuli/tree_lowercase.png","stimuli/face_uppercase.png","149"
"html-button-response","156","440518","0.0-156.0","73644","","","","","","break","1542.2999999970198","<p>BREAK</p><p>Take a break for as long as you need</p><p>Click the button to continue</p>","0","","","","","",""
"html-button-response-mod","157","442528","0.0-157.0","73644","","","","","","triplet","2007.9000000059605","","","","0","stimuli/tree_lowercase.png","stimuli/stim014_inanimate_boats_2.png","stimuli/stim012_animate_face_4.png","150"
"html-button-response-mod","158","444011","0.0-158.0","73644","","","","","","triplet","977.2000000029802","","","","2","stimuli/stim023_inanimate_tools_3.png","stimuli/stim018_inanimate_tree_2.png","stimuli/face_lowercase.png","151"
"html-button-response-mod","159","445365","0.0-159.0","73644","","","","","","triplet","836.6000000089407","","","","2","stimuli/stim001_animate_fish_1.png","stimuli/stim014_inanimate_boats_2.png","stimuli/tree_uppercase.png","152"
"html-button-response-mod","160","446876","0.0-160.0","73644","","","","","","triplet","1002.1999999880791","","","","1","stimuli/stim008_animate_bird_4.png","stimuli/tree_lowercase.png","stimuli/stim020_inanimate_tree_4.png","153"
"html-button-response-mod","161","448088","0.0-161.0","73644","","","","","","triplet","700.9000000059605","","","","2","stimuli/stim014_inanimate_boats_2.png","stimuli/stim020_inanimate_tree_4.png","stimuli/face_uppercase.png","154"
"html-button-response-mod","162","449756","0.0-162.0","73644","","","","","","triplet","1147.7999999970198","","","","2","stimuli/bird_uppercase.png","stimuli/boats_uppercase.png","stimuli/stim024_inanimate_tools_4.png","155"
"html-button-response-mod","163","451674","0.0-163.0","73644","","","","","","triplet","1412.2999999970198","","","","0","stimuli/stim019_inanimate_tree_3.png","stimuli/stim005_animate_bird_1.png","stimuli/stim007_animate_bird_3.png","156"
"html-button-response-mod","164","453157","0.0-164.0","73644","","","","","","triplet","977.3999999910593","","","","1","stimuli/stim001_animate_fish_1.png","stimuli/bird_uppercase.png","stimuli/stim003_animate_fish_3.png","157"
"html-button-response-mod","165","454960","0.0-165.0","73644","","","","","","triplet","1293.5","","","","1","stimuli/tools_lowercase.png","stimuli/stim008_animate_bird_4.png","stimuli/fish_uppercase.png","158"
"html-button-response-mod","166","457576","0.0-166.0","73644","","","","","","triplet","2108.2000000029802","","","","1","stimuli/stim006_animate_bird_2.png","stimuli/tree_uppercase.png","stimuli/stim013_inanimate_boats_1.png","159"
"html-button-response-mod","167","459051","0.0-167.0","73644","","","","","","triplet","971.1999999880791","","","","1","stimuli/stim015_inanimate_boats_3.png","stimuli/bird_uppercase.png","stimuli/stim021_inanimate_tools_1.png","160"
"html-button-response-mod","168","460533","0.0-168.0","73644","","","","","","triplet","967.7999999970198","","","","2","stimuli/stim022_inanimate_tools_2.png","stimuli/stim023_inanimate_tools_3.png","stimuli/boats_uppercase.png","161"
"html-button-response-mod","169","461988","0.0-169.0","73644","","","","","","triplet","939.2000000029802","","","","2","stimuli/boats_lowercase.png","stimuli/bird_lowercase.png","stimuli/stim001_animate_fish_1.png","162"
"html-button-response-mod","170","466172","0.0-170.0","73644","","","","","","triplet","3668.4000000059605","","","","1","stimuli/stim018_inanimate_tree_2.png","stimuli/tree_uppercase.png","stimuli/stim021_inanimate_tools_1.png","163"
"html-button-response-mod","171","469109","0.0-171.0","73644","","","","","","triplet","2425.800000011921","","","","1","stimuli/stim010_animate_face_2.png","stimuli/stim014_inanimate_boats_2.png","stimuli/stim004_animate_fish_4.png","164"
"html-button-response-mod","172","471704","0.0-172.0","73644","","","","","","triplet","2075.2999999970198","","","","0","stimuli/bird_uppercase.png","stimuli/stim020_inanimate_tree_4.png","stimuli/stim003_animate_fish_3.png","165"
"html-button-response-mod","173","473357","0.0-173.0","73644","","","","","","triplet","1144.6000000089407","","","","1","stimuli/stim003_animate_fish_3.png","stimuli/tree_uppercase.png","stimuli/stim022_inanimate_tools_2.png","166"
"html-button-response-mod","174","474961","0.0-174.0","73644","","","","","","triplet","1088.0999999940395","","","","1","stimuli/bird_uppercase.png","stimuli/stim022_inanimate_tools_2.png","stimuli/boats_uppercase.png","167"
"html-button-response-mod","175","476472","0.0-175.0","73644","","","","","","triplet","994.7000000029802","","","","2","stimuli/stim017_inanimate_tree_1.png","stimuli/stim012_animate_face_4.png","stimuli/tree_lowercase.png","168"
"html-button-response-mod","176","477983","0.0-176.0","73644","","","","","","triplet","1003.0999999940395","","","","0","stimuli/tree_uppercase.png","stimuli/stim015_inanimate_boats_3.png","stimuli/stim017_inanimate_tree_1.png","169"
"html-button-response-mod","177","479623","0.0-177.0","73644","","","","","","triplet","1134.5","","","","0","stimuli/stim008_animate_bird_4.png","stimuli/bird_lowercase.png","stimuli/bird_uppercase.png","170"
"html-button-response-mod","178","481712","0.0-178.0","73644","","","","","","triplet","1578.2999999970198","","","","0","stimuli/stim023_inanimate_tools_3.png","stimuli/tree_lowercase.png","stimuli/tree_uppercase.png","171"
"html-button-response-mod","179","484265","0.0-179.0","73644","","","","","","triplet","2045.4000000059605","","","","1","stimuli/stim013_inanimate_boats_1.png","stimuli/bird_lowercase.png","stimuli/stim014_inanimate_boats_2.png","172"
"html-button-response-mod","180","485547","0.0-180.0","73644","","","","","","triplet","770","","","","1","stimuli/stim014_inanimate_boats_2.png","stimuli/fish_lowercase.png","stimuli/stim002_animate_fish_2.png","173"
"html-button-response-mod","181","486665","0.0-181.0","73644","","","","","","triplet","613.2999999970198","","","","1","stimuli/stim005_animate_bird_1.png","stimuli/boats_uppercase.png","stimuli/stim015_inanimate_boats_3.png","174"
"html-button-response-mod","182","488163","0.0-182.0","73644","","","","","","triplet","992.2999999970198","","","","2","stimuli/tools_uppercase.png","stimuli/tree_uppercase.png","stimuli/stim017_inanimate_tree_1.png","175"
"html-button-response-mod","183","490022","0.0-183.0","73644","","","","","","triplet","1352.5999999940395","","","","1","stimuli/bird_uppercase.png","stimuli/stim008_animate_bird_4.png","stimuli/tree_lowercase.png","176"
"html-button-response-mod","184","491498","0.0-184.0","73644","","","","","","triplet","969","","","","2","stimuli/stim013_inanimate_boats_1.png","stimuli/stim002_animate_fish_2.png","stimuli/face_uppercase.png","177"
"html-button-response-mod","185","493957","0.0-185.0","73644","","","","","","triplet","1951.2000000029802","","","","2","stimuli/stim020_inanimate_tree_4.png","stimuli/stim008_animate_bird_4.png","stimuli/stim009_animate_face_1.png","178"
"html-button-response-mod","186","495818","0.0-186.0","73644","","","","","","triplet","1349.5999999940395","","","","1","stimuli/stim001_animate_fish_1.png","stimuli/face_lowercase.png","stimuli/stim003_animate_fish_3.png","179"
"html-button-response-mod","187","499233","0.0-187.0","73644","","","","","","triplet","2908.9000000059605","","","","2","stimuli/fish_uppercase.png","stimuli/face_uppercase.png","stimuli/boats_uppercase.png","180"
"html-button-response-mod","188","508513","0.0-188.0","73644","","","","","","triplet","8777.40000000596","","","","1","stimuli/stim003_animate_fish_3.png","stimuli/tools_lowercase.png","stimuli/stim023_inanimate_tools_3.png","181"
"html-button-response-mod","189","520204","0.0-189.0","73644","","","","","","triplet","11187.70000000298","","","","2","stimuli/stim015_inanimate_boats_3.png","stimuli/stim018_inanimate_tree_2.png","stimuli/stim003_animate_fish_3.png","182"
"html-button-response-mod","190","522185","0.0-190.0","73644","","","","","","triplet","1470","","","","1","stimuli/stim017_inanimate_tree_1.png","stimuli/fish_lowercase.png","stimuli/stim023_inanimate_tools_3.png","183"
"html-button-response-mod","191","523547","0.0-191.0","73644","","","","","","triplet","849.5","","","","2","stimuli/tree_uppercase.png","stimuli/face_lowercase.png","stimuli/stim022_inanimate_tools_2.png","184"
"html-button-response-mod","192","526484","0.0-192.0","73644","","","","","","triplet","2420.9000000059605","","","","0","stimuli/stim003_animate_fish_3.png","stimuli/stim010_animate_face_2.png","stimuli/stim017_inanimate_tree_1.png","185"
"html-button-response-mod","193","529998","0.0-193.0","73644","","","","","","triplet","3010.5999999940395","","","","1","stimuli/stim018_inanimate_tree_2.png","stimuli/stim015_inanimate_boats_3.png","stimuli/stim009_animate_face_1.png","186"
"html-button-response-mod","194","532364","0.0-194.0","73644","","","","","","triplet","1847.7999999970198","","","","1","stimuli/boats_lowercase.png","stimuli/stim017_inanimate_tree_1.png","stimuli/tree_lowercase.png","187"
"html-button-response-mod","195","534525","0.0-195.0","73644","","","","","","triplet","1651","","","","0","stimuli/stim012_animate_face_4.png","stimuli/stim018_inanimate_tree_2.png","stimuli/stim017_inanimate_tree_1.png","188"
"html-button-response-mod","196","536257","0.0-196.0","73644","","","","","","triplet","1216.2999999970198","","","","1","stimuli/stim008_animate_bird_4.png","stimuli/tree_lowercase.png","stimuli/stim003_animate_fish_3.png","189"
"html-button-response-mod","197","537614","0.0-197.0","73644","","","","","","triplet","849.2999999970198","","","","2","stimuli/stim022_inanimate_tools_2.png","stimuli/stim018_inanimate_tree_2.png","stimuli/bird_lowercase.png","190"
"html-button-response-mod","198","539694","0.0-198.0","73644","","","","","","triplet","1565.9000000059605","","","","2","stimuli/stim008_animate_bird_4.png","stimuli/stim017_inanimate_tree_1.png","stimuli/stim021_inanimate_tools_1.png","191"
"html-button-response-mod","199","541584","0.0-199.0","73644","","","","","","triplet","1385.5","","","","1","stimuli/fish_lowercase.png","stimuli/stim004_animate_fish_4.png","stimuli/boats_lowercase.png","192"
"html-button-response-mod","200","543770","0.0-200.0","73644","","","","","","triplet","1674","","","","1","stimuli/stim022_inanimate_tools_2.png","stimuli/stim012_animate_face_4.png","stimuli/stim016_inanimate_boats_4.png","193"
"html-button-response-mod","201","545175","0.0-201.0","73644","","","","","","triplet","894.0999999940395","","","","1","stimuli/stim017_inanimate_tree_1.png","stimuli/boats_lowercase.png","stimuli/stim013_inanimate_boats_1.png","194"
"html-button-response-mod","202","575858","0.0-202.0","73644","","","","","","triplet","30175.20000000298","","","","2","stimuli/stim001_animate_fish_1.png","stimuli/stim022_inanimate_tools_2.png","stimuli/bird_lowercase.png","195"
"html-button-response-mod","203","577533","0.0-203.0","73644","","","","","","triplet","1167.4000000059605","","","","0","stimuli/bird_uppercase.png","stimuli/stim022_inanimate_tools_2.png","stimuli/stim001_animate_fish_1.png","196"
"html-button-response-mod","204","578851","0.0-204.0","73644","","","","","","triplet","811.6999999880791","","","","2","stimuli/stim020_inanimate_tree_4.png","stimuli/stim011_animate_face_3.png","stimuli/fish_lowercase.png","197"
"html-button-response-mod","205","580584","0.0-205.0","73644","","","","","","triplet","1226.5","","","","0","stimuli/stim009_animate_face_1.png","stimuli/fish_uppercase.png","stimuli/tree_lowercase.png","198"
"html-button-response-mod","206","582423","0.0-206.0","73644","","","","","","triplet","1322.2000000029802","","","","2","stimuli/stim006_animate_bird_2.png","stimuli/stim008_animate_bird_4.png","stimuli/bird_uppercase.png","199"
"html-button-response","207","584020","0.0-207.0","73644","","","","","","break","1083.5999999940395","<p>BREAK</p><p>Take a break for as long as you need</p><p>Click the button to continue</p>","0","","","","","",""
"html-button-response-mod","208","585767","0.0-208.0","73644","","","","","","triplet","1745.0999999940395","","","","0","stimuli/stim021_inanimate_tools_1.png","stimuli/stim011_animate_face_3.png","stimuli/stim012_animate_face_4.png","200"
"html-button-response-mod","209","587606","0.0-209.0","73644","","","","","","triplet","1327.5","","","","1","stimuli/stim017_inanimate_tree_1.png","stimuli/fish_uppercase.png","stimuli/stim015_inanimate_boats_3.png","201"
"html-button-response-mod","210","589095","0.0-210.0","73644","","","","","","triplet","975","","","","0","stimuli/stim015_inanimate_boats_3.png","stimuli/boats_lowercase.png","stimuli/tree_lowercase.png","202"
"html-button-response-mod","211","590479","0.0-211.0","73644","","","","","","triplet","875.7999999970198","","","","2","stimuli/stim014_inanimate_boats_2.png","stimuli/stim022_inanimate_tools_2.png","stimuli/boats_lowercase.png","203"
"html-button-response-mod","212","591983","0.0-212.0","73644","","","","","","triplet","1000.8999999910593","","","","2","stimuli/stim021_inanimate_tools_1.png","stimuli/stim007_animate_bird_3.png","stimuli/face_lowercase.png","204"
"html-button-response-mod","213","594207","0.0-213.0","73644","","","","","","triplet","1707.5999999940395","","","","2","stimuli/tree_lowercase.png","stimuli/tools_uppercase.png","stimuli/stim007_animate_bird_3.png","205"
"html-button-response-mod","214","596260","0.0-214.0","73644","","","","","","triplet","1546.2999999970198","","","","2","stimuli/bird_lowercase.png","stimuli/face_uppercase.png","stimuli/stim019_inanimate_tree_3.png","206"
"html-button-response-mod","215","599019","0.0-215.0","73644","","","","","","triplet","2240.7999999970198","","","","2","stimuli/stim008_animate_bird_4.png","stimuli/stim004_animate_fish_4.png","stimuli/stim016_inanimate_boats_4.png","207"
"html-button-response-mod","216","600822","0.0-216.0","73644","","","","","","triplet","1295.2999999970198","","","","2","stimuli/face_lowercase.png","stimuli/tools_uppercase.png","stimuli/stim001_animate_fish_1.png","208"
"html-button-response-mod","217","603660","0.0-217.0","73644","","","","","","triplet","2333.2999999970198","","","","1","stimuli/fish_lowercase.png","stimuli/fish_uppercase.png","stimuli/tools_lowercase.png","209"
"html-button-response-mod","218","605050","0.0-218.0","73644","","","","","","triplet","882.5","","","","1","stimuli/bird_lowercase.png","stimuli/stim021_inanimate_tools_1.png","stimuli/boats_lowercase.png","210"
"html-button-response-mod","219","607901","0.0-219.0","73644","","","","","","triplet","2342.7000000029802","","","","0","stimuli/stim013_inanimate_boats_1.png","stimuli/stim005_animate_bird_1.png","stimuli/stim010_animate_face_2.png","211"
"html-button-response-mod","220","609612","0.0-220.0","73644","","","","","","triplet","1198.2000000029802","","","","2","stimuli/tree_lowercase.png","stimuli/fish_lowercase.png","stimuli/stim024_inanimate_tools_4.png","212"
"html-button-response-mod","221","611359","0.0-221.0","73644","","","","","","triplet","1231.5999999940395","","","","0","stimuli/bird_uppercase.png","stimuli/stim012_animate_face_4.png","stimuli/stim005_animate_bird_1.png","213"
"html-button-response-mod","222","616163","0.0-222.0","73644","","","","","","triplet","4285.399999991059","","","","0","stimuli/fish_uppercase.png","stimuli/stim014_inanimate_boats_2.png","stimuli/stim015_inanimate_boats_3.png","214"
"html-button-response-mod","223","618474","0.0-223.0","73644","","","","","","triplet","1805.1000000089407","","","","2","stimuli/stim021_inanimate_tools_1.png","stimuli/stim022_inanimate_tools_2.png","stimuli/stim006_animate_bird_2.png","215"
"html-button-response-mod","224","620989","0.0-224.0","73644","","","","","","triplet","2004.5","","","","0","stimuli/stim023_inanimate_tools_3.png","stimuli/stim004_animate_fish_4.png","stimuli/stim020_inanimate_tree_4.png","216"
"html-button-response-mod","225","624918","0.0-225.0","73644","","","","","","triplet","3414.2000000029802","","","","2","stimuli/tree_uppercase.png","stimuli/bird_uppercase.png","stimuli/face_uppercase.png","217"
"html-button-response-mod","226","627291","0.0-226.0","73644","","","","","","triplet","1852.7999999970198","","","","2","stimuli/stim012_animate_face_4.png","stimuli/stim023_inanimate_tools_3.png","stimuli/stim020_inanimate_tree_4.png","218"
"html-button-response-mod","227","630428","0.0-227.0","73644","","","","","","triplet","2633.7999999970198","","","","1","stimuli/stim012_animate_face_4.png","stimuli/tree_uppercase.png","stimuli/stim020_inanimate_tree_4.png","219"
"html-button-response-mod","228","631967","0.0-228.0","73644","","","","","","triplet","1027","","","","2","stimuli/stim006_animate_bird_2.png","stimuli/stim016_inanimate_boats_4.png","stimuli/bird_lowercase.png","220"
"html-button-response-mod","229","633385","0.0-229.0","73644","","","","","","triplet","906.9000000059605","","","","2","stimuli/stim007_animate_bird_3.png","stimuli/stim019_inanimate_tree_3.png","stimuli/bird_lowercase.png","221"
"html-button-response-mod","230","635224","0.0-230.0","73644","","","","","","triplet","1330.300000011921","","","","0","stimuli/bird_uppercase.png","stimuli/stim023_inanimate_tools_3.png","stimuli/stim011_animate_face_3.png","222"
"html-button-response-mod","231","636494","0.0-231.0","73644","","","","","","triplet","756.2999999970198","","","","0","stimuli/boats_lowercase.png","stimuli/stim022_inanimate_tools_2.png","stimuli/stim005_animate_bird_1.png","223"
"html-button-response-mod","232","638219","0.0-232.0","73644","","","","","","triplet","1211.2000000029802","","","","1","stimuli/stim009_animate_face_1.png","stimuli/stim018_inanimate_tree_2.png","stimuli/stim012_animate_face_4.png","224"
"html-button-response-mod","233","639637","0.0-233.0","73644","","","","","","triplet","906.0999999940395","","","","2","stimuli/stim024_inanimate_tools_4.png","stimuli/stim012_animate_face_4.png","stimuli/tree_lowercase.png","225"
"html-button-response-mod","234","640807","0.0-234.0","73644","","","","","","triplet","658","","","","2","stimuli/stim001_animate_fish_1.png","stimuli/stim012_animate_face_4.png","stimuli/tree_uppercase.png","226"
"html-button-response-mod","235","642296","0.0-235.0","73644","","","","","","triplet","973.7999999970198","","","","0","stimuli/stim019_inanimate_tree_3.png","stimuli/face_lowercase.png","stimuli/fish_lowercase.png","227"
"html-button-response-mod","236","645128","0.0-236.0","73644","","","","","","triplet","2328.6000000089407","","","","0","stimuli/stim003_animate_fish_3.png","stimuli/stim019_inanimate_tree_3.png","stimuli/stim009_animate_face_1.png","228"
"html-button-response-mod","237","647293","0.0-237.0","73644","","","","","","triplet","1663.7000000029802","","","","2","stimuli/stim020_inanimate_tree_4.png","stimuli/stim001_animate_fish_1.png","stimuli/stim024_inanimate_tools_4.png","229"
"html-button-response-mod","238","649652","0.0-238.0","73644","","","","","","triplet","1853.6000000089407","","","","1","stimuli/stim003_animate_fish_3.png","stimuli/bird_lowercase.png","stimuli/stim013_inanimate_boats_1.png","230"
"html-button-response-mod","239","651229","0.0-239.0","73644","","","","","","triplet","1069","","","","0","stimuli/stim022_inanimate_tools_2.png","stimuli/stim008_animate_bird_4.png","stimuli/stim013_inanimate_boats_1.png","231"
"html-button-response-mod","240","653188","0.0-240.0","73644","","","","","","triplet","1450.5","","","","1","stimuli/stim018_inanimate_tree_2.png","stimuli/bird_lowercase.png","stimuli/stim020_inanimate_tree_4.png","232"
"html-button-response-mod","241","654757","0.0-241.0","73644","","","","","","triplet","1059.2000000029802","","","","0","stimuli/face_lowercase.png","stimuli/stim005_animate_bird_1.png","stimuli/stim022_inanimate_tools_2.png","233"
"html-button-response-mod","242","656660","0.0-242.0","73644","","","","","","triplet","1392.300000011921","","","","2","stimuli/stim006_animate_bird_2.png","stimuli/stim007_animate_bird_3.png","stimuli/stim023_inanimate_tools_3.png","234"
"html-button-response-mod","243","659818","0.0-243.0","73644","","","","","","triplet","2640.3999999910593","","","","0","stimuli/bird_uppercase.png","stimuli/stim001_animate_fish_1.png","stimuli/stim024_inanimate_tools_4.png","235"
"html-button-response-mod","244","663068","0.0-244.0","73644","","","","","","triplet","2730.7000000029802","","","","0","stimuli/stim014_inanimate_boats_2.png","stimuli/stim001_animate_fish_1.png","stimuli/stim018_inanimate_tree_2.png","236"
"html-button-response-mod","245","665434","0.0-245.0","73644","","","","","","triplet","1856.6000000089407","","","","0","stimuli/stim003_animate_fish_3.png","stimuli/bird_uppercase.png","stimuli/bird_lowercase.png","237"
"html-button-response-mod","246","667181","0.0-246.0","73644","","","","","","triplet","1240.6000000089407","","","","0","stimuli/boats_uppercase.png","stimuli/stim008_animate_bird_4.png","stimuli/stim002_animate_fish_2.png","238"
"html-button-response-mod","247","668229","0.0-247.0","73644","","","","","","triplet","537.2000000029802","","","","0","stimuli/face_lowercase.png","stimuli/stim022_inanimate_tools_2.png","stimuli/stim016_inanimate_boats_4.png","239"
"html-button-response-mod","248","670531","0.0-248.0","73644","","","","","","triplet","1794.7999999970198","","","","2","stimuli/stim015_inanimate_boats_3.png","stimuli/stim023_inanimate_tools_3.png","stimuli/stim009_animate_face_1.png","240"
"html-button-response-mod","249","673162","0.0-249.0","73644","","","","","","triplet","2113.5","","","","0","stimuli/stim024_inanimate_tools_4.png","stimuli/stim005_animate_bird_1.png","stimuli/stim007_animate_bird_3.png","241"
"html-button-response-mod","250","674595","0.0-250.0","73644","","","","","","triplet","918.7999999970198","","","","2","stimuli/boats_uppercase.png","stimuli/tools_lowercase.png","stimuli/stim011_animate_face_3.png","242"
"html-button-response-mod","251","676645","0.0-251.0","73644","","","","","","triplet","1540.6000000089407","","","","2","stimuli/stim013_inanimate_boats_1.png","stimuli/stim016_inanimate_boats_4.png","stimuli/stim007_animate_bird_3.png","243"
"html-button-response-mod","252","678038","0.0-252.0","73644","","","","","","triplet","888.2999999970198","","","","0","stimuli/boats_uppercase.png","stimuli/stim001_animate_fish_1.png","stimuli/stim008_animate_bird_4.png","244"
"html-button-response-mod","253","680170","0.0-253.0","73644","","","","","","triplet","1621.7000000029802","","","","0","stimuli/stim006_animate_bird_2.png","stimuli/stim014_inanimate_boats_2.png","stimuli/stim001_animate_fish_1.png","245"
"html-button-response-mod","254","681866","0.0-254.0","73644","","","","","","triplet","1192.800000011921","","","","1","stimuli/boats_uppercase.png","stimuli/stim001_animate_fish_1.png","stimuli/tree_lowercase.png","246"
"html-button-response-mod","255","683912","0.0-255.0","73644","","","","","","triplet","1533.2000000029802","","","","1","stimuli/stim003_animate_fish_3.png","stimuli/face_uppercase.png","stimuli/stim019_inanimate_tree_3.png","247"
"html-button-response-mod","256","686143","0.0-256.0","73644","","","","","","triplet","1723.3999999910593","","","","1","stimuli/stim017_inanimate_tree_1.png","stimuli/stim023_inanimate_tools_3.png","stimuli/stim001_animate_fish_1.png","248"
"html-button-response-mod","257","689465","0.0-257.0","73644","","","","","","triplet","2816.5999999940395","","","","2","stimuli/stim021_inanimate_tools_1.png","stimuli/stim013_inanimate_boats_1.png","stimuli/stim005_animate_bird_1.png","249"
"html-button-response","258","691197","0.0-258.0","73644","","","","","","break","1218.9000000059605","<p>BREAK</p><p>Take a break for as long as you need</p><p>Click the button to continue</p>","0","","","","","",""
"html-button-response-mod","259","692273","0.0-259.0","73644","","","","","","triplet","1074.9000000059605","","","","2","stimuli/tree_lowercase.png","stimuli/tools_lowercase.png","stimuli/stim003_animate_fish_3.png","250"
"html-button-response-mod","260","696345","0.0-260.0","73644","","","","","","triplet","3555.2000000029802","","","","0","stimuli/tools_lowercase.png","stimuli/stim011_animate_face_3.png","stimuli/stim016_inanimate_boats_4.png","251"
"html-button-response-mod","261","698261","0.0-261.0","73644","","","","","","triplet","1394.4000000059605","","","","2","stimuli/stim013_inanimate_boats_1.png","stimuli/stim022_inanimate_tools_2.png","stimuli/bird_lowercase.png","252"
"html-button-response-mod","262","699680","0.0-262.0","73644","","","","","","triplet","901.2000000029802","","","","2","stimuli/stim006_animate_bird_2.png","stimuli/stim020_inanimate_tree_4.png","stimuli/tree_lowercase.png","253"
"html-button-response-mod","263","701007","0.0-263.0","73644","","","","","","triplet","808","","","","2","stimuli/stim013_inanimate_boats_1.png","stimuli/stim003_animate_fish_3.png","stimuli/face_lowercase.png","254"
"html-button-response-mod","264","702247","0.0-264.0","73644","","","","","","triplet","731.5","","","","2","stimuli/stim011_animate_face_3.png","stimuli/stim023_inanimate_tools_3.png","stimuli/boats_uppercase.png","255"
"html-button-response-mod","265","703829","0.0-265.0","73644","","","","","","triplet","1070.2999999970198","","","","0","stimuli/fish_uppercase.png","stimuli/stim024_inanimate_tools_4.png","stimuli/stim015_inanimate_boats_3.png","256"
"html-button-response-mod","266","705376","0.0-266.0","73644","","","","","","triplet","1028.0999999940395","","","","1","stimuli/stim012_animate_face_4.png","stimuli/bird_lowercase.png","stimuli/stim009_animate_face_1.png","257"
"html-button-response-mod","267","707087","0.0-267.0","73644","","","","","","triplet","1193.2000000029802","","","","0","stimuli/stim002_animate_fish_2.png","stimuli/tree_lowercase.png","stimuli/face_lowercase.png","258"
"html-button-response-mod","268","708484","0.0-268.0","73644","","","","","","triplet","885.5999999940395","","","","0","stimuli/stim022_inanimate_tools_2.png","stimuli/fish_uppercase.png","stimuli/face_lowercase.png","259"
"html-button-response-mod","269","709988","0.0-269.0","73644","","","","","","triplet","980.2000000029802","","","","1","stimuli/stim010_animate_face_2.png","stimuli/boats_uppercase.png","stimuli/stim008_animate_bird_4.png","260"
"html-button-response-mod","270","711385","0.0-270.0","73644","","","","","","triplet","887.3999999910593","","","","0","stimuli/boats_lowercase.png","stimuli/stim001_animate_fish_1.png","stimuli/stim013_inanimate_boats_1.png","261"
"html-button-response-mod","271","712768","0.0-271.0","73644","","","","","","triplet","860.2000000029802","","","","2","stimuli/stim011_animate_face_3.png","stimuli/stim012_animate_face_4.png","stimuli/face_lowercase.png","262"
"html-button-response-mod","272","714914","0.0-272.0","73644","","","","","","triplet","1631.7999999970198","","","","0","stimuli/face_uppercase.png","stimuli/boats_lowercase.png","stimuli/tools_lowercase.png","263"
"html-button-response-mod","273","716475","0.0-273.0","73644","","","","","","triplet","1055.2999999970198","","","","0","stimuli/stim017_inanimate_tree_1.png","stimuli/face_uppercase.png","stimuli/tools_uppercase.png","264"
"html-button-response-mod","274","718656","0.0-274.0","73644","","","","","","triplet","1667.5","","","","2","stimuli/stim013_inanimate_boats_1.png","stimuli/stim023_inanimate_tools_3.png","stimuli/stim001_animate_fish_1.png","265"
"html-button-response-mod","275","720702","0.0-275.0","73644","","","","","","triplet","1540.8999999910593","","","","0","stimuli/stim007_animate_bird_3.png","stimuli/tools_uppercase.png","stimuli/face_uppercase.png","266"
"html-button-response-mod","276","722706","0.0-276.0","73644","","","","","","triplet","1489.3999999910593","","","","1","stimuli/stim011_animate_face_3.png","stimuli/tree_lowercase.png","stimuli/stim022_inanimate_tools_2.png","267"
"html-button-response-mod","277","724588","0.0-277.0","73644","","","","","","triplet","1378.7999999970198","","","","0","stimuli/stim023_inanimate_tools_3.png","stimuli/bird_lowercase.png","stimuli/fish_lowercase.png","268"
"html-button-response-mod","278","726226","0.0-278.0","73644","","","","","","triplet","1122.4000000059605","","","","2","stimuli/stim002_animate_fish_2.png","stimuli/stim024_inanimate_tools_4.png","stimuli/face_uppercase.png","269"
"html-button-response-mod","279","728522","0.0-279.0","73644","","","","","","triplet","1777.2000000029802","","","","0","stimuli/stim018_inanimate_tree_2.png","stimuli/stim003_animate_fish_3.png","stimuli/stim016_inanimate_boats_4.png","270"
"html-button-response-mod","280","730418","0.0-280.0","73644","","","","","","triplet","1394.4000000059605","","","","2","stimuli/stim018_inanimate_tree_2.png","stimuli/stim020_inanimate_tree_4.png","stimuli/stim001_animate_fish_1.png","271"
"html-button-response-mod","281","731985","0.0-281.0","73644","","","","","","triplet","1062.7999999970198","","","","0","stimuli/bird_lowercase.png","stimuli/stim017_inanimate_tree_1.png","stimuli/stim013_inanimate_boats_1.png","272"
"html-button-response-mod","282","733433","0.0-282.0","73644","","","","","","triplet","936.7999999970198","","","","1","stimuli/stim017_inanimate_tree_1.png","stimuli/tree_uppercase.png","stimuli/stim011_animate_face_3.png","273"
"html-button-response-mod","283","734960","0.0-283.0","73644","","","","","","triplet","1022.1000000089407","","","","0","stimuli/tree_uppercase.png","stimuli/stim008_animate_bird_4.png","stimuli/stim002_animate_fish_2.png","274"
"html-button-response-mod","284","736470","0.0-284.0","73644","","","","","","triplet","1007.7999999970198","","","","2","stimuli/bird_uppercase.png","stimuli/face_lowercase.png","stimuli/stim017_inanimate_tree_1.png","275"
"html-button-response-mod","285","758560","0.0-285.0","73644","","","","","","triplet","21587.60000000894","","","","1","stimuli/bird_uppercase.png","stimuli/stim007_animate_bird_3.png","stimuli/tools_lowercase.png","276"
"html-button-response-mod","286","760464","0.0-286.0","73644","","","","","","triplet","1395","","","","0","stimuli/stim018_inanimate_tree_2.png","stimuli/stim021_inanimate_tools_1.png","stimuli/stim022_inanimate_tools_2.png","277"
"html-button-response-mod","287","763222","0.0-287.0","73644","","","","","","triplet","2244.6000000089407","","","","2","stimuli/stim009_animate_face_1.png","stimuli/stim004_animate_fish_4.png","stimuli/stim022_inanimate_tools_2.png","278"
"html-button-response-mod","288","764733","0.0-288.0","73644","","","","","","triplet","1007.5999999940395","","","","1","stimuli/stim020_inanimate_tree_4.png","stimuli/fish_uppercase.png","stimuli/stim009_animate_face_1.png","279"
"html-button-response-mod","289","766587","0.0-289.0","73644","","","","","","triplet","1344.7000000029802","","","","2","stimuli/bird_uppercase.png","stimuli/fish_uppercase.png","stimuli/tools_lowercase.png","280"
"html-button-response-mod","290","769331","0.0-290.0","73644","","","","","","triplet","2235.5","","","","1","stimuli/stim021_inanimate_tools_1.png","stimuli/stim017_inanimate_tree_1.png","stimuli/stim013_inanimate_boats_1.png","281"
"html-button-response-mod","291","770850","0.0-291.0","73644","","","","","","triplet","1011.7000000029802","","","","0","stimuli/face_lowercase.png","stimuli/stim020_inanimate_tree_4.png","stimuli/stim007_animate_bird_3.png","282"
"html-button-response-mod","292","772411","0.0-292.0","73644","","","","","","triplet","1053.0999999940395","","","","2","stimuli/fish_lowercase.png","stimuli/tree_uppercase.png","stimuli/stim015_inanimate_boats_3.png","283"
"html-button-response-mod","293","773880","0.0-293.0","73644","","","","","","triplet","959.6999999880791","","","","1","stimuli/boats_lowercase.png","stimuli/stim015_inanimate_boats_3.png","stimuli/tools_uppercase.png","284"
"html-button-response-mod","294","775227","0.0-294.0","73644","","","","","","triplet","838.6000000089407","","","","2","stimuli/stim020_inanimate_tree_4.png","stimuli/stim016_inanimate_boats_4.png","stimuli/boats_uppercase.png","285"
"html-button-response-mod","295","776845","0.0-295.0","73644","","","","","","triplet","1114.1000000089407","","","","0","stimuli/stim015_inanimate_boats_3.png","stimuli/bird_uppercase.png","stimuli/face_uppercase.png","286"
"html-button-response-mod","296","778585","0.0-296.0","73644","","","","","","triplet","1226.2999999970198","","","","0","stimuli/tree_uppercase.png","stimuli/stim003_animate_fish_3.png","stimuli/stim009_animate_face_1.png","287"
"html-button-response-mod","297","780645","0.0-297.0","73644","","","","","","triplet","1537.7000000029802","","","","2","stimuli/stim021_inanimate_tools_1.png","stimuli/stim014_inanimate_boats_2.png","stimuli/stim002_animate_fish_2.png","288"
"html-button-response-mod","298","783816","0.0-298.0","73644","","","","","","triplet","2658.300000011921","","","","2","stimuli/stim022_inanimate_tools_2.png","stimuli/stim012_animate_face_4.png","stimuli/fish_uppercase.png","289"
"html-button-response-mod","299","785805","0.0-299.0","73644","","","","","","triplet","1484.9000000059605","","","","0","stimuli/tree_lowercase.png","stimuli/bird_uppercase.png","stimuli/fish_uppercase.png","290"
"html-button-response-mod","300","788208","0.0-300.0","73644","","","","","","triplet","1894.5","","","","2","stimuli/stim014_inanimate_boats_2.png","stimuli/stim001_animate_fish_1.png","stimuli/stim008_animate_bird_4.png","291"
"html-button-response-mod","301","789798","0.0-301.0","73644","","","","","","triplet","1079.199999988079","","","","1","stimuli/boats_uppercase.png","stimuli/bird_lowercase.png","stimuli/fish_uppercase.png","292"
"html-button-response-mod","302","791188","0.0-302.0","73644","","","","","","triplet","882","","","","1","stimuli/face_uppercase.png","stimuli/stim009_animate_face_1.png","stimuli/bird_uppercase.png","293"
"html-button-response-mod","303","793020","0.0-303.0","73644","","","","","","triplet","1311.2999999970198","","","","2","stimuli/stim015_inanimate_boats_3.png","stimuli/stim018_inanimate_tree_2.png","stimuli/face_lowercase.png","294"
"html-button-response-mod","304","794403","0.0-304.0","73644","","","","","","triplet","875.6999999880791","","","","1","stimuli/stim024_inanimate_tools_4.png","stimuli/boats_uppercase.png","stimuli/stim010_animate_face_2.png","295"
"html-button-response-mod","305","796128","0.0-305.0","73644","","","","","","triplet","1209","","","","0","stimuli/stim005_animate_bird_1.png","stimuli/tree_uppercase.png","stimuli/tools_uppercase.png","296"
"html-button-response-mod","306","797660","0.0-306.0","73644","","","","","","triplet","1012.1000000089407","","","","1","stimuli/tree_lowercase.png","stimuli/stim014_inanimate_boats_2.png","stimuli/bird_uppercase.png","297"
"html-button-response-mod","307","798894","0.0-307.0","73644","","","","","","triplet","725.5","","","","2","stimuli/tools_uppercase.png","stimuli/tree_lowercase.png","stimuli/stim010_animate_face_2.png","298"
"html-button-response-mod","308","800170","0.0-308.0","73644","","","","","","triplet","766.5","","","","1","stimuli/boats_lowercase.png","stimuli/stim012_animate_face_4.png","stimuli/tree_lowercase.png","299"
"html-button-response","309","801531","0.0-309.0","73644","","","","","","break","847.5999999940395","<p>BREAK</p><p>Take a break for as long as you need</p><p>Click the button to continue</p>","0","","","","","",""
"html-button-response-mod","310","803092","0.0-310.0","73644","","","","","","triplet","1559.5","","","","1","stimuli/bird_uppercase.png","stimuli/stim016_inanimate_boats_4.png","stimuli/tools_uppercase.png","300"
"html-button-response-mod","311","804282","0.0-311.0","73644","","","","","","triplet","682.7999999970198","","","","1","stimuli/stim008_animate_bird_4.png","stimuli/face_uppercase.png","stimuli/stim018_inanimate_tree_2.png","301"
"html-button-response-mod","312","805708","0.0-312.0","73644","","","","","","triplet","909.7000000029802","","","","1","stimuli/stim005_animate_bird_1.png","stimuli/boats_uppercase.png","stimuli/stim020_inanimate_tree_4.png","302"
"html-button-response-mod","313","806848","0.0-313.0","73644","","","","","","triplet","630","","","","2","stimuli/stim016_inanimate_boats_4.png","stimuli/stim018_inanimate_tree_2.png","stimuli/face_lowercase.png","303"
"html-button-response-mod","314","809094","0.0-314.0","73644","","","","","","triplet","1737.2000000029802","","","","0","stimuli/stim004_animate_fish_4.png","stimuli/stim018_inanimate_tree_2.png","stimuli/stim007_animate_bird_3.png","304"
"html-button-response-mod","315","810684","0.0-315.0","73644","","","","","","triplet","1085.800000011921","","","","0","stimuli/stim009_animate_face_1.png","stimuli/stim005_animate_bird_1.png","stimuli/stim007_animate_bird_3.png","305"
"html-button-response-mod","316","812217","0.0-316.0","73644","","","","","","triplet","1019.5","","","","2","stimuli/bird_uppercase.png","stimuli/face_lowercase.png","stimuli/stim001_animate_fish_1.png","306"
"html-button-response-mod","317","813614","0.0-317.0","73644","","","","","","triplet","886.2999999970198","","","","1","stimuli/stim018_inanimate_tree_2.png","stimuli/stim022_inanimate_tools_2.png","stimuli/stim019_inanimate_tree_3.png","307"
"html-button-response-mod","318","815603","0.0-318.0","73644","","","","","","triplet","1479.8999999910593","","","","0","stimuli/fish_lowercase.png","stimuli/fish_uppercase.png","stimuli/bird_uppercase.png","308"
"html-button-response-mod","319","816893","0.0-319.0","73644","","","","","","triplet","783","","","","0","stimuli/stim005_animate_bird_1.png","stimuli/tools_lowercase.png","stimuli/bird_uppercase.png","309"
"html-button-response-mod","320","818433","0.0-320.0","73644","","","","","","triplet","1034.2000000029802","","","","1","stimuli/stim018_inanimate_tree_2.png","stimuli/fish_lowercase.png","stimuli/stim011_animate_face_3.png","310"
"html-button-response-mod","321","819780","0.0-321.0","73644","","","","","","triplet","833","","","","1","stimuli/stim001_animate_fish_1.png","stimuli/face_lowercase.png","stimuli/stim014_inanimate_boats_2.png","311"
"html-button-response-mod","322","821741","0.0-322.0","73644","","","","","","triplet","1455.7000000029802","","","","0","stimuli/face_lowercase.png","stimuli/tree_uppercase.png","stimuli/bird_uppercase.png","312"
"html-button-response-mod","323","823616","0.0-323.0","73644","","","","","","triplet","1368","","","","1","stimuli/stim022_inanimate_tools_2.png","stimuli/bird_lowercase.png","stimuli/stim010_animate_face_2.png","313"
"html-button-response-mod","324","825861","0.0-324.0","73644","","","","","","triplet","1732.1000000089407","","","","0","stimuli/stim011_animate_face_3.png","stimuli/stim023_inanimate_tools_3.png","stimuli/stim013_inanimate_boats_1.png","314"
"html-button-response-mod","325","827258","0.0-325.0","73644","","","","","","triplet","891.5999999940395","","","","2","stimuli/stim002_animate_fish_2.png","stimuli/stim015_inanimate_boats_3.png","stimuli/boats_lowercase.png","315"
"html-button-response-mod","326","828690","0.0-326.0","73644","","","","","","triplet","920.1000000089407","","","","2","stimuli/stim002_animate_fish_2.png","stimuli/stim024_inanimate_tools_4.png","stimuli/boats_lowercase.png","316"
"html-button-response-mod","327","829975","0.0-327.0","73644","","","","","","triplet","766.7999999970198","","","","2","stimuli/stim014_inanimate_boats_2.png","stimuli/stim019_inanimate_tree_3.png","stimuli/tree_uppercase.png","317"
"html-button-response-mod","328","831663","0.0-328.0","73644","","","","","","triplet","1174.2000000029802","","","","0","stimuli/stim001_animate_fish_1.png","stimuli/fish_lowercase.png","stimuli/face_lowercase.png","318"
"html-button-response-mod","329","833610","0.0-329.0","73644","","","","","","triplet","1444.6000000089407","","","","0","stimuli/stim011_animate_face_3.png","stimuli/stim021_inanimate_tools_1.png","stimuli/stim022_inanimate_tools_2.png","319"
"html-button-response-mod","330","835263","0.0-330.0","73644","","","","","","triplet","1136.699999988079","","","","1","stimuli/stim020_inanimate_tree_4.png","stimuli/stim008_animate_bird_4.png","stimuli/stim019_inanimate_tree_3.png","320"
"html-button-response-mod","331","837359","0.0-331.0","73644","","","","","","triplet","1588.3999999910593","","","","1","stimuli/tools_lowercase.png","stimuli/stim020_inanimate_tree_4.png","stimuli/face_lowercase.png","321"
"html-button-response-mod","332","838763","0.0-332.0","73644","","","","","","triplet","889","","","","0","stimuli/stim018_inanimate_tree_2.png","stimuli/tree_lowercase.png","stimuli/fish_uppercase.png","322"
"html-button-response-mod","333","840459","0.0-333.0","73644","","","","","","triplet","1188.0999999940395","","","","1","stimuli/stim005_animate_bird_1.png","stimuli/stim017_inanimate_tree_1.png","stimuli/stim007_animate_bird_3.png","323"
"html-button-response-mod","334","841928","0.0-334.0","73644","","","","","","triplet","960.1000000089407","","","","1","stimuli/fish_lowercase.png","stimuli/stim005_animate_bird_1.png","stimuli/boats_lowercase.png","324"
"html-button-response-mod","335","843210","0.0-335.0","73644","","","","","","triplet","778.5999999940395","","","","2","stimuli/boats_uppercase.png","stimuli/face_uppercase.png","stimuli/stim011_animate_face_3.png","325"
"html-button-response-mod","336","846133","0.0-336.0","73644","","","","","","triplet","2415.0999999940395","","","","0","stimuli/stim011_animate_face_3.png","stimuli/stim008_animate_bird_4.png","stimuli/stim001_animate_fish_1.png","326"
"html-button-response-mod","337","848080","0.0-337.0","73644","","","","","","triplet","1432.1000000089407","","","","2","stimuli/stim023_inanimate_tools_3.png","stimuli/stim005_animate_bird_1.png","stimuli/boats_lowercase.png","327"
"html-button-response-mod","338","849719","0.0-338.0","73644","","","","","","triplet","1121.7000000029802","","","","1","stimuli/stim017_inanimate_tree_1.png","stimuli/fish_lowercase.png","stimuli/stim013_inanimate_boats_1.png","328"
"html-button-response-mod","339","852164","0.0-339.0","73644","","","","","","triplet","1935.7999999970198","","","","1","stimuli/stim024_inanimate_tools_4.png","stimuli/stim009_animate_face_1.png","stimuli/stim023_inanimate_tools_3.png","329"
"html-button-response-mod","340","853627","0.0-340.0","73644","","","","","","triplet","949.4000000059605","","","","2","stimuli/tree_lowercase.png","stimuli/fish_uppercase.png","stimuli/stim014_inanimate_boats_2.png","330"
"html-button-response-mod","341","855101","0.0-341.0","73644","","","","","","triplet","953","","","","2","stimuli/stim022_inanimate_tools_2.png","stimuli/stim008_animate_bird_4.png","stimuli/tree_uppercase.png","331"
"html-button-response-mod","342","857047","0.0-342.0","73644","","","","","","triplet","1440","","","","2","stimuli/bird_uppercase.png","stimuli/tools_lowercase.png","stimuli/stim022_inanimate_tools_2.png","332"
"html-button-response-mod","343","859428","0.0-343.0","73644","","","","","","triplet","1869.0999999940395","","","","2","stimuli/stim006_animate_bird_2.png","stimuli/stim010_animate_face_2.png","stimuli/tools_lowercase.png","333"
"html-button-response-mod","344","861096","0.0-344.0","73644","","","","","","triplet","1163","","","","0","stimuli/boats_uppercase.png","stimuli/stim015_inanimate_boats_3.png","stimuli/stim018_inanimate_tree_2.png","334"
"html-button-response-mod","345","862543","0.0-345.0","73644","","","","","","triplet","944.5","","","","0","stimuli/bird_uppercase.png","stimuli/stim016_inanimate_boats_4.png","stimuli/stim004_animate_fish_4.png","335"
"html-button-response-mod","346","864938","0.0-346.0","73644","","","","","","triplet","1886.5","","","","1","stimuli/stim014_inanimate_boats_2.png","stimuli/tools_uppercase.png","stimuli/stim024_inanimate_tools_4.png","336"
"html-button-response-mod","347","866970","0.0-347.0","73644","","","","","","triplet","1512.3999999910593","","","","2","stimuli/stim004_animate_fish_4.png","stimuli/stim001_animate_fish_1.png","stimuli/stim021_inanimate_tools_1.png","337"
"html-button-response-mod","348","868568","0.0-348.0","73644","","","","","","triplet","1092.7999999970198","","","","1","stimuli/stim012_animate_face_4.png","stimuli/tree_uppercase.png","stimuli/stim018_inanimate_tree_2.png","338"
"html-button-response-mod","349","870926","0.0-349.0","73644","","","","","","triplet","1843.5999999940395","","","","2","stimuli/stim001_animate_fish_1.png","stimuli/stim020_inanimate_tree_4.png","stimuli/stim011_animate_face_3.png","339"
"html-button-response-mod","350","873335","0.0-350.0","73644","","","","","","triplet","1907.4000000059605","","","","2","stimuli/stim006_animate_bird_2.png","stimuli/stim018_inanimate_tree_2.png","stimuli/tree_uppercase.png","340"
"html-button-response-mod","351","875546","0.0-351.0","73644","","","","","","triplet","1706.5","","","","0","stimuli/stim017_inanimate_tree_1.png","stimuli/face_lowercase.png","stimuli/boats_uppercase.png","341"
"html-button-response-mod","352","878261","0.0-352.0","73644","","","","","","triplet","2197.7000000029802","","","","1","stimuli/stim012_animate_face_4.png","stimuli/fish_lowercase.png","stimuli/stim008_animate_bird_4.png","342"
"html-button-response-mod","353","880585","0.0-353.0","73644","","","","","","triplet","1812.7999999970198","","","","0","stimuli/stim002_animate_fish_2.png","stimuli/stim015_inanimate_boats_3.png","stimuli/stim016_inanimate_boats_4.png","343"
"html-button-response-mod","354","883437","0.0-354.0","73644","","","","","","triplet","2348.5","","","","0","stimuli/stim024_inanimate_tools_4.png","stimuli/stim009_animate_face_1.png","stimuli/stim007_animate_bird_3.png","344"
"html-button-response-mod","355","886972","0.0-355.0","73644","","","","","","triplet","3028.5999999940395","","","","2","stimuli/stim013_inanimate_boats_1.png","stimuli/stim002_animate_fish_2.png","stimuli/stim019_inanimate_tree_3.png","345"
"html-button-response-mod","356","888770","0.0-356.0","73644","","","","","","triplet","1281.6000000089407","","","","0","stimuli/boats_lowercase.png","stimuli/face_uppercase.png","stimuli/tree_uppercase.png","346"
"html-button-response-mod","357","891635","0.0-357.0","73644","","","","","","triplet","2357.2000000029802","","","","0","stimuli/stim012_animate_face_4.png","stimuli/stim004_animate_fish_4.png","stimuli/stim016_inanimate_boats_4.png","347"
"html-button-response-mod","358","893901","0.0-358.0","73644","","","","","","triplet","1762.8999999910593","","","","1","stimuli/face_lowercase.png","stimuli/stim022_inanimate_tools_2.png","stimuli/tools_lowercase.png","348"
"html-button-response-mod","359","895498","0.0-359.0","73644","","","","","","triplet","1081","","","","1","stimuli/stim004_animate_fish_4.png","stimuli/bird_uppercase.png","stimuli/stim002_animate_fish_2.png","349"
"html-button-response","360","896981","0.0-360.0","73644","","","","","","break","963.5","<p>BREAK</p><p>Take a break for as long as you need</p><p>Click the button to continue</p>","0","","","","","",""
"html-button-response-mod","361","898100","0.0-361.0","73644","","","","","","triplet","1116.5","","","","0","stimuli/face_uppercase.png","stimuli/stim013_inanimate_boats_1.png","stimuli/stim008_animate_bird_4.png","350"
"html-button-response-mod","362","899768","0.0-362.0","73644","","","","","","triplet","1160.7999999970198","","","","2","stimuli/tools_uppercase.png","stimuli/bird_uppercase.png","stimuli/stim020_inanimate_tree_4.png","351"
"html-button-response-mod","363","901151","0.0-363.0","73644","","","","","","triplet","873","","","","0","stimuli/tree_uppercase.png","stimuli/stim008_animate_bird_4.png","stimuli/stim004_animate_fish_4.png","352"
"html-button-response-mod","364","902783","0.0-364.0","73644","","","","","","triplet","1125.8999999910593","","","","2","stimuli/stim011_animate_face_3.png","stimuli/stim013_inanimate_boats_1.png","stimuli/bird_lowercase.png","353"
"html-button-response-mod","365","904202","0.0-365.0","73644","","","","","","triplet","904.7000000029802","","","","1","stimuli/stim019_inanimate_tree_3.png","stimuli/fish_uppercase.png","stimuli/stim003_animate_fish_3.png","354"
"html-button-response-mod","366","905492","0.0-366.0","73644","","","","","","triplet","783.9000000059605","","","","2","stimuli/stim008_animate_bird_4.png","stimuli/stim002_animate_fish_2.png","stimuli/fish_lowercase.png","355"
"html-button-response-mod","367","906768","0.0-367.0","73644","","","","","","triplet","761.2999999970198","","","","0","stimuli/tools_uppercase.png","stimuli/stim021_inanimate_tools_1.png","stimuli/stim014_inanimate_boats_2.png","356"
"html-button-response-mod","368","908159","0.0-368.0","73644","","","","","","triplet","872.7000000029802","","","","0","stimuli/bird_lowercase.png","stimuli/stim003_animate_fish_3.png","stimuli/stim004_animate_fish_4.png","357"
"html-button-response-mod","369","909570","0.0-369.0","73644","","","","","","triplet","900.3000000119209","","","","0","stimuli/face_uppercase.png","stimuli/stim009_animate_face_1.png","stimuli/stim014_inanimate_boats_2.png","358"
"html-button-response-mod","370","910911","0.0-370.0","73644","","","","","","triplet","822.2000000029802","","","","1","stimuli/boats_uppercase.png","stimuli/stim002_animate_fish_2.png","stimuli/bird_uppercase.png","359"
"html-button-response-mod","371","912527","0.0-371.0","73644","","","","","","triplet","1099.5999999940395","","","","0","stimuli/tree_lowercase.png","stimuli/stim023_inanimate_tools_3.png","stimuli/tools_lowercase.png","360"
"html-button-response-mod","372","914861","0.0-372.0","73644","","","","","","triplet","1825.1000000089407","","","","2","stimuli/stim002_animate_fish_2.png","stimuli/stim005_animate_bird_1.png","stimuli/fish_uppercase.png","361"
"html-button-response-mod","373","916278","0.0-373.0","73644","","","","","","triplet","903.2999999970198","","","","0","stimuli/tools_uppercase.png","stimuli/stim014_inanimate_boats_2.png","stimuli/stim015_inanimate_boats_3.png","362"
"html-button-response-mod","374","918999","0.0-374.0","73644","","","","","","triplet","2211.6000000089407","","","","1","stimuli/stim023_inanimate_tools_3.png","stimuli/stim002_animate_fish_2.png","stimuli/stim016_inanimate_boats_4.png","363"
"html-button-response-mod","375","921009","0.0-375.0","73644","","","","","","triplet","1492.300000011921","","","","2","stimuli/boats_uppercase.png","stimuli/tools_uppercase.png","stimuli/stim006_animate_bird_2.png","364"
"html-button-response-mod","376","922535","0.0-376.0","73644","","","","","","triplet","1018.5","","","","0","stimuli/tools_lowercase.png","stimuli/stim001_animate_fish_1.png","stimuli/stim012_animate_face_4.png","365"
"html-button-response-mod","377","923911","0.0-377.0","73644","","","","","","triplet","872.5","","","","0","stimuli/face_lowercase.png","stimuli/stim008_animate_bird_4.png","stimuli/stim009_animate_face_1.png","366"
"html-button-response-mod","378","926142","0.0-378.0","73644","","","","","","triplet","1721.5999999940395","","","","0","stimuli/stim004_animate_fish_4.png","stimuli/stim012_animate_face_4.png","stimuli/stim011_animate_face_3.png","367"
"html-button-response-mod","379","928031","0.0-379.0","73644","","","","","","triplet","1380.800000011921","","","","0","stimuli/bird_lowercase.png","stimuli/stim005_animate_bird_1.png","stimuli/stim004_animate_fish_4.png","368"
"html-button-response-mod","380","929308","0.0-380.0","73644","","","","","","triplet","760.5","","","","0","stimuli/tree_uppercase.png","stimuli/stim004_animate_fish_4.png","stimuli/stim020_inanimate_tree_4.png","369"
"html-button-response-mod","381","930676","0.0-381.0","73644","","","","","","triplet","865.5999999940395","","","","0","stimuli/stim006_animate_bird_2.png","stimuli/face_uppercase.png","stimuli/boats_lowercase.png","370"
"html-button-response-mod","382","932145","0.0-382.0","73644","","","","","","triplet","947.5","","","","1","stimuli/face_uppercase.png","stimuli/stim023_inanimate_tools_3.png","stimuli/fish_uppercase.png","371"
"html-button-response-mod","383","933941","0.0-383.0","73644","","","","","","triplet","1283.5999999940395","","","","1","stimuli/stim002_animate_fish_2.png","stimuli/tree_uppercase.png","stimuli/stim017_inanimate_tree_1.png","372"
"html-button-response-mod","384","935367","0.0-384.0","73644","","","","","","triplet","918.0999999940395","","","","0","stimuli/fish_lowercase.png","stimuli/stim015_inanimate_boats_3.png","stimuli/stim014_inanimate_boats_2.png","373"
"html-button-response-mod","385","937647","0.0-385.0","73644","","","","","","triplet","1769.0999999940395","","","","1","stimuli/stim017_inanimate_tree_1.png","stimuli/stim021_inanimate_tools_1.png","stimuli/stim005_animate_bird_1.png","374"
"html-button-response-mod","386","939423","0.0-386.0","73644","","","","","","triplet","1266.4000000059605","","","","1","stimuli/stim003_animate_fish_3.png","stimuli/stim023_inanimate_tools_3.png","stimuli/stim011_animate_face_3.png","375"
"html-button-response-mod","387","943001","0.0-387.0","73644","","","","","","triplet","3064.0999999940395","","","","2","stimuli/bird_lowercase.png","stimuli/face_lowercase.png","stimuli/boats_lowercase.png","376"
"html-button-response-mod","388","944598","0.0-388.0","73644","","","","","","triplet","1087.2999999970198","","","","1","stimuli/bird_lowercase.png","stimuli/stim007_animate_bird_3.png","stimuli/fish_lowercase.png","377"
"html-button-response-mod","389","946345","0.0-389.0","73644","","","","","","triplet","1235.7000000029802","","","","2","stimuli/stim016_inanimate_boats_4.png","stimuli/stim012_animate_face_4.png","stimuli/boats_uppercase.png","378"
"html-button-response-mod","390","948397","0.0-390.0","73644","","","","","","triplet","1529.7000000029802","","","","0","stimuli/stim020_inanimate_tree_4.png","stimuli/bird_uppercase.png","stimuli/tree_uppercase.png","379"
"html-button-response-mod","391","949758","0.0-391.0","73644","","","","","","triplet","849.7000000029802","","","","1","stimuli/stim021_inanimate_tools_1.png","stimuli/tools_uppercase.png","stimuli/stim005_animate_bird_1.png","380"
"html-button-response-mod","392","951640","0.0-392.0","73644","","","","","","triplet","1376.1000000089407","","","","2","stimuli/stim017_inanimate_tree_1.png","stimuli/stim024_inanimate_tools_4.png","stimuli/fish_uppercase.png","381"
"html-button-response-mod","393","953173","0.0-393.0","73644","","","","","","triplet","1030.2000000029802","","","","0","stimuli/boats_lowercase.png","stimuli/stim018_inanimate_tree_2.png","stimuli/stim010_animate_face_2.png","382"
"html-button-response-mod","394","954513","0.0-394.0","73644","","","","","","triplet","836.7999999970198","","","","0","stimuli/stim009_animate_face_1.png","stimuli/fish_lowercase.png","stimuli/fish_uppercase.png","383"
"html-button-response-mod","395","955761","0.0-395.0","73644","","","","","","triplet","732.1000000089407","","","","0","stimuli/bird_lowercase.png","stimuli/stim009_animate_face_1.png","stimuli/stim022_inanimate_tools_2.png","384"
"html-button-response-mod","396","957022","0.0-396.0","73644","","","","","","triplet","758.2999999970198","","","","2","stimuli/stim008_animate_bird_4.png","stimuli/stim002_animate_fish_2.png","stimuli/bird_uppercase.png","385"
"html-button-response-mod","397","959239","0.0-397.0","73644","","","","","","triplet","1702","","","","0","stimuli/stim022_inanimate_tools_2.png","stimuli/fish_uppercase.png","stimuli/bird_lowercase.png","386"
"html-button-response-mod","398","961021","0.0-398.0","73644","","","","","","triplet","1277.199999988079","","","","0","stimuli/stim012_animate_face_4.png","stimuli/stim024_inanimate_tools_4.png","stimuli/stim021_inanimate_tools_1.png","387"
"html-button-response-mod","399","962403","0.0-399.0","73644","","","","","","triplet","869","","","","2","stimuli/stim013_inanimate_boats_1.png","stimuli/stim014_inanimate_boats_2.png","stimuli/tree_uppercase.png","388"
"html-button-response-mod","400","963972","0.0-400.0","73644","","","","","","triplet","1051.0999999940395","","","","2","stimuli/tools_uppercase.png","stimuli/tree_uppercase.png","stimuli/tools_lowercase.png","389"
"html-button-response-mod","401","965342","0.0-401.0","73644","","","","","","triplet","854","","","","1","stimuli/bird_uppercase.png","stimuli/stim023_inanimate_tools_3.png","stimuli/boats_uppercase.png","390"
"html-button-response-mod","402","967072","0.0-402.0","73644","","","","","","triplet","1214.2000000029802","","","","0","stimuli/stim013_inanimate_boats_1.png","stimuli/tools_lowercase.png","stimuli/bird_uppercase.png","391"
"html-button-response-mod","403","969076","0.0-403.0","73644","","","","","","triplet","1497","","","","0","stimuli/tools_uppercase.png","stimuli/stim017_inanimate_tree_1.png","stimuli/stim007_animate_bird_3.png","392"
"html-button-response-mod","404","970566","0.0-404.0","73644","","","","","","triplet","977.5999999940395","","","","2","stimuli/bird_uppercase.png","stimuli/tree_lowercase.png","stimuli/stim019_inanimate_tree_3.png","393"
"html-button-response-mod","405","972255","0.0-405.0","73644","","","","","","triplet","1177.7999999970198","","","","0","stimuli/boats_lowercase.png","stimuli/stim014_inanimate_boats_2.png","stimuli/stim011_animate_face_3.png","394"
"html-button-response-mod","406","973502","0.0-406.0","73644","","","","","","triplet","734.1999999880791","","","","2","stimuli/stim012_animate_face_4.png","stimuli/stim009_animate_face_1.png","stimuli/bird_uppercase.png","395"
"html-button-response-mod","407","977688","0.0-407.0","73644","","","","","","triplet","3672.7000000029802","","","","0","stimuli/stim022_inanimate_tools_2.png","stimuli/stim020_inanimate_tree_4.png","stimuli/stim008_animate_bird_4.png","396"
"html-button-response-mod","408","983083","0.0-408.0","73644","","","","","","triplet","4874.600000008941","","","","1","stimuli/stim018_inanimate_tree_2.png","stimuli/stim009_animate_face_1.png","stimuli/stim022_inanimate_tools_2.png","397"
"html-button-response-mod","409","984479","0.0-409.0","73644","","","","","","triplet","886.2000000029802","","","","0","stimuli/bird_lowercase.png","stimuli/stim015_inanimate_boats_3.png","stimuli/stim001_animate_fish_1.png","398"
"html-button-response-mod","410","985920","0.0-410.0","73644","","","","","","triplet","925.2000000029802","","","","2","stimuli/stim016_inanimate_boats_4.png","stimuli/stim005_animate_bird_1.png","stimuli/face_lowercase.png","399"
"html-button-response","411","987667","0.0-411.0","73644","","","","","","break","1229.7000000029802","<p>BREAK</p><p>Take a break for as long as you need</p><p>Click the button to continue</p>","0","","","","","",""
"survey-text","412","993035","0.0-412.0","73644","","","","","","data_patterns","5356.0999999940395","","{""Q0"":""no""}","","","","","",""
"survey-text","413","996627","0.0-413.0","73644","","","","","","age_question","3587.7999999970198","","{""Age"":""19""}","","","","","",""
"html-button-response","414","998922","0.0-414.0","73644","","","","","","gender_question","2292.6000000089407","How would you like your gender to be recorded?","1","","","","","",""
"html-button-response","415","1007654","0.0-415.0","73644","","","","","","debrief","8730.20000000298","<p> Thank you for participating in this experiment! </p><p> We are investigating the dimensions along which you perceive the world </p><p>The images were all sorted according to whether they are animate or not, and </p><p> whether they are text or images. We are comparing this to some neuroimaging data to see </p> how your conscious classification relates to how your brain classifies the objects automatically. </p>","0","1011290","","","","",""
