"trial_type","trial_index","time_elapsed","internal_node_id","subject","success","timeout","failed_images","failed_audio","failed_video","test_part","rt","stimulus","response","end_time","button_pressed","stim0","stim1","stim2","trialnr"
"pavlovia","0","26","0.0-0.0","73603","","","","","","","","","","","","","","",""
"preload","1","1781","0.0-1.0","73603","true","false","[]","[]","[]","preload","","","","","","","","",""
"html-button-response","2","4381","0.0-2.0","73603","","","","","","","2595.60000000149","<p>Welcome to the experiment. To begin, please read the following and press the button at the bottom of the screen.</p><p></p><p><strong>Project Name: A study on cognitive processes involved in visual perception</p></strong><p></p><p><strong>PARTICIPANT INFORMATION STATEMENT</strong></p><p></p><strong>(1) What is the study about?</strong><br>You are invited to participate in a study that investigates the cognitive processes involved in perceiving and recognizing visual stimuli.If you decide to participate, you will be asked to complete a task in which you will view pictures, letters, numbers, or words presented on a computer screen.<br><strong>(2) Who can participate?</strong><br>Anyone aged 18 years or over with access to a computer (not a phone/tablet)<br><strong>(3) Where is the study located?</strong><br>The study will be conducted in your browser<br><strong>(4) Who is carrying out the study?</strong><br>The study is being conducted by Sophia Shatek from the Computational Cognitive Neuroscience laboratory at the University of Sydney.<br><strong>(5) What does the study involve?</strong><br>In this study, you will be asked to perform tasks where you will see different stimuli appear on the computer screen.You will respond by pressing a key or using a computer mouse.<br><strong>(6) How much time will the study take?</strong><br>The study takes about 30 minutes<br><strong>(7)	Can I withdraw from the study?</strong><br>Being in this study is completely voluntary - you are not under any obligation to consent. You can withdraw at any time without having to give a reason and without penalty.<br><strong>(8) Will anyone else know the results?</strong><br>All aspects of the study, including results, will be strictly confidential and only the researchers will have access to information on participants.The results and data from the study may be submitted for publication or shared with other research labs, but individual participants will not be identifiable.<br><strong>(9) Will the study benefit me?</strong><br>You will be awarded 0.5 credits for your participation.<br><strong>(10) Can I tell other people about the study?</strong><br>Yes, please tell them to contact Dr Thomas Carlson by email at thomas.carlson@sydney.edu.au.<br><strong>(11) What if I require further information about the study or my involvement in it?</strong><br>When you have read this information, the investigator will discuss it with you further and answer any questions you may have.If you would like to know more at any stage, please feel free to contact Dr Thomas Carlson directly by email at thomas.carlson@sydney.edu.au.If you would like to be informed about the outcomes of the study, contact Dr Thomas Carlson directly by email at thomas.carlson@sydney.edu.au.<br><strong>(12) What if I have a complaint or any concerns?</strong><br>Any person with concerns or complaints about the conduct of a research study can contact The Manager,Human Ethics Administration, University of Sydney on +61 2 8627 8176 (Telephone); +61 2 8627 8177 (Facsimile) or ro.humanethics@sydney.edu.au (Email).</p><p></p><strong>By participating in this experiment, you consent to participate in this study and acknowledge that:</strong><br>1. The procedures required for the project and the times involved have been explained to me, and any questions I have about the project have been answered to my satisfaction.<br>2.	I have read the Above Information Statement and have been given the opportunity to discuss the information and my involvement in the project with the researcher/s.<br>3. I understand that allowing my data to be used in research reports is completely voluntary - I am not under any obligation to consent.<br>4. I understand that my involvement is strictly confidential. I understand that any research data gathered from the results of the study may be publishedhowever no information about me will be used in any way that is identifiable.</p><p></p>","0","","","","","",""
"html-button-response","3","17717","0.0-3.0","73603","","","","","","opening_instructions","13333.800000000745","<p>In this experiment, you will see three images appear on the screen.</p><p>You need to click the 'odd one out', or the image </p><p>that LOOKS MOST DIFFERENT to the other two. </p><p>Just go with your intuition, don't spend too long thinking about each one.</p>","0","22131.699999999255","","","","",""
"html-button-response-mod","4","18935","0.0-4.0","73603","","","","","","triplet","1209.199999999255","","","","1","stimuli/stim005_animate_bird_1.png","stimuli/fish_uppercase.png","stimuli/stim012_animate_face_4.png","0"
"html-button-response-mod","5","21052","0.0-5.0","73603","","","","","","triplet","1605.0999999996275","","","","1","stimuli/stim023_inanimate_tools_3.png","stimuli/stim014_inanimate_boats_2.png","stimuli/stim006_animate_bird_2.png","1"
"html-button-response-mod","6","22544","0.0-6.0","73603","","","","","","triplet","978.0999999996275","","","","0","stimuli/stim013_inanimate_boats_1.png","stimuli/tree_lowercase.png","stimuli/bird_lowercase.png","2"
"html-button-response-mod","7","23773","0.0-7.0","73603","","","","","","triplet","718","","","","0","stimuli/stim023_inanimate_tools_3.png","stimuli/tools_lowercase.png","stimuli/face_lowercase.png","3"
"html-button-response-mod","8","25119","0.0-8.0","73603","","","","","","triplet","840.0999999996275","","","","2","stimuli/stim006_animate_bird_2.png","stimuli/stim007_animate_bird_3.png","stimuli/boats_lowercase.png","4"
"html-button-response-mod","9","26326","0.0-9.0","73603","","","","","","triplet","694.4000000003725","","","","0","stimuli/stim013_inanimate_boats_1.png","stimuli/boats_lowercase.png","stimuli/tree_lowercase.png","5"
"html-button-response-mod","10","28524","0.0-10.0","73603","","","","","","triplet","1691.699999999255","","","","1","stimuli/stim018_inanimate_tree_2.png","stimuli/stim006_animate_bird_2.png","stimuli/stim014_inanimate_boats_2.png","6"
"html-button-response-mod","11","29825","0.0-11.0","73603","","","","","","triplet","790.6999999992549","","","","1","stimuli/stim016_inanimate_boats_4.png","stimuli/tree_lowercase.png","stimuli/stim009_animate_face_1.png","7"
"html-button-response-mod","12","30965","0.0-12.0","73603","","","","","","triplet","637","","","","0","stimuli/face_uppercase.png","stimuli/stim003_animate_fish_3.png","stimuli/stim016_inanimate_boats_4.png","8"
"html-button-response-mod","13","33192","0.0-13.0","73603","","","","","","triplet","1717.4000000003725","","","","2","stimuli/fish_uppercase.png","stimuli/bird_uppercase.png","stimuli/tools_uppercase.png","9"
"html-button-response-mod","14","34784","0.0-14.0","73603","","","","","","triplet","1082.4000000003725","","","","1","stimuli/stim005_animate_bird_1.png","stimuli/stim012_animate_face_4.png","stimuli/stim001_animate_fish_1.png","10"
"html-button-response-mod","15","36408","0.0-15.0","73603","","","","","","triplet","1115.1000000014901","","","","0","stimuli/stim023_inanimate_tools_3.png","stimuli/stim002_animate_fish_2.png","stimuli/stim014_inanimate_boats_2.png","11"
"html-button-response-mod","16","37755","0.0-16.0","73603","","","","","","triplet","841.8000000007451","","","","0","stimuli/tools_lowercase.png","stimuli/stim001_animate_fish_1.png","stimuli/stim015_inanimate_boats_3.png","12"
"html-button-response-mod","17","39176","0.0-17.0","73603","","","","","","triplet","910.6999999992549","","","","1","stimuli/stim022_inanimate_tools_2.png","stimuli/tools_lowercase.png","stimuli/stim002_animate_fish_2.png","13"
"html-button-response-mod","18","41215","0.0-18.0","73603","","","","","","triplet","1524.6000000014901","","","","1","stimuli/stim007_animate_bird_3.png","stimuli/stim017_inanimate_tree_1.png","stimuli/stim023_inanimate_tools_3.png","14"
"html-button-response-mod","19","42845","0.0-19.0","73603","","","","","","triplet","1117.5","","","","2","stimuli/stim005_animate_bird_1.png","stimuli/stim007_animate_bird_3.png","stimuli/stim015_inanimate_boats_3.png","15"
"html-button-response-mod","20","44417","0.0-20.0","73603","","","","","","triplet","1068.199999999255","","","","0","stimuli/stim014_inanimate_boats_2.png","stimuli/stim004_animate_fish_4.png","stimuli/stim006_animate_bird_2.png","16"
"html-button-response-mod","21","45544","0.0-21.0","73603","","","","","","triplet","622","","","","1","stimuli/stim012_animate_face_4.png","stimuli/bird_uppercase.png","stimuli/stim005_animate_bird_1.png","17"
"html-button-response-mod","22","46616","0.0-22.0","73603","","","","","","triplet","564","","","","2","stimuli/stim004_animate_fish_4.png","stimuli/stim019_inanimate_tree_3.png","stimuli/tools_uppercase.png","18"
"html-button-response-mod","23","47993","0.0-23.0","73603","","","","","","triplet","865.0999999996275","","","","0","stimuli/stim022_inanimate_tools_2.png","stimuli/boats_uppercase.png","stimuli/tree_lowercase.png","19"
"html-button-response-mod","24","49325","0.0-24.0","73603","","","","","","triplet","817.4000000003725","","","","2","stimuli/stim009_animate_face_1.png","stimuli/stim006_animate_bird_2.png","stimuli/tree_uppercase.png","20"
"html-button-response-mod","25","50759","0.0-25.0","73603","","","","","","triplet","925.8000000007451","","","","2","stimuli/bird_uppercase.png","stimuli/boats_lowercase.png","stimuli/stim021_inanimate_tools_1.png","21"
"html-button-response-mod","26","51841","0.0-26.0","73603","","","","","","triplet","570.8000000007451","","","","0","stimuli/tree_lowercase.png","stimuli/stim022_inanimate_tools_2.png","stimuli/stim011_animate_face_3.png","22"
"html-button-response-mod","27","52877","0.0-27.0","73603","","","","","","triplet","525.3000000007451","","","","2","stimuli/stim024_inanimate_tools_4.png","stimuli/stim004_animate_fish_4.png","stimuli/fish_lowercase.png","23"
"html-button-response-mod","28","54601","0.0-28.0","73603","","","","","","triplet","1211.1000000014901","","","","0","stimuli/stim024_inanimate_tools_4.png","stimuli/stim017_inanimate_tree_1.png","stimuli/stim005_animate_bird_1.png","24"
"html-button-response-mod","29","55864","0.0-29.0","73603","","","","","","triplet","753.1999999992549","","","","0","stimuli/stim015_inanimate_boats_3.png","stimuli/tree_uppercase.png","stimuli/bird_uppercase.png","25"
"html-button-response-mod","30","57443","0.0-30.0","73603","","","","","","triplet","1072.300000000745","","","","1","stimuli/stim014_inanimate_boats_2.png","stimuli/boats_lowercase.png","stimuli/stim002_animate_fish_2.png","26"
"html-button-response-mod","31","59293","0.0-31.0","73603","","","","","","triplet","1334.7000000011176","","","","1","stimuli/stim020_inanimate_tree_4.png","stimuli/stim003_animate_fish_3.png","stimuli/stim014_inanimate_boats_2.png","27"
"html-button-response-mod","32","60486","0.0-32.0","73603","","","","","","triplet","684.8999999985099","","","","1","stimuli/stim015_inanimate_boats_3.png","stimuli/tools_uppercase.png","stimuli/stim020_inanimate_tree_4.png","28"
"html-button-response-mod","33","62214","0.0-33.0","73603","","","","","","triplet","1215.7999999988824","","","","2","stimuli/stim011_animate_face_3.png","stimuli/stim013_inanimate_boats_1.png","stimuli/stim019_inanimate_tree_3.png","29"
"html-button-response-mod","34","63417","0.0-34.0","73603","","","","","","triplet","696.5999999996275","","","","1","stimuli/face_lowercase.png","stimuli/stim010_animate_face_2.png","stimuli/tree_lowercase.png","30"
"html-button-response-mod","35","64692","0.0-35.0","73603","","","","","","triplet","764.8999999985099","","","","2","stimuli/stim017_inanimate_tree_1.png","stimuli/stim012_animate_face_4.png","stimuli/tools_lowercase.png","31"
"html-button-response-mod","36","67136","0.0-36.0","73603","","","","","","triplet","1938.4000000003725","","","","0","stimuli/boats_uppercase.png","stimuli/face_lowercase.png","stimuli/bird_lowercase.png","32"
"html-button-response-mod","37","68948","0.0-37.0","73603","","","","","","triplet","1306.5999999996275","","","","1","stimuli/stim010_animate_face_2.png","stimuli/stim024_inanimate_tools_4.png","stimuli/stim008_animate_bird_4.png","33"
"html-button-response-mod","38","70192","0.0-38.0","73603","","","","","","triplet","730.0999999996275","","","","0","stimuli/fish_uppercase.png","stimuli/stim024_inanimate_tools_4.png","stimuli/stim013_inanimate_boats_1.png","34"
"html-button-response-mod","39","71757","0.0-39.0","73603","","","","","","triplet","1051.699999999255","","","","2","stimuli/stim005_animate_bird_1.png","stimuli/stim007_animate_bird_3.png","stimuli/stim010_animate_face_2.png","35"
"html-button-response-mod","40","73465","0.0-40.0","73603","","","","","","triplet","1197.4000000003725","","","","0","stimuli/stim013_inanimate_boats_1.png","stimuli/stim017_inanimate_tree_1.png","stimuli/stim015_inanimate_boats_3.png","36"
"html-button-response-mod","41","74772","0.0-41.0","73603","","","","","","triplet","796.8999999985099","","","","1","stimuli/stim022_inanimate_tools_2.png","stimuli/fish_lowercase.png","stimuli/stim008_animate_bird_4.png","37"
"html-button-response-mod","42","76114","0.0-42.0","73603","","","","","","triplet","825.5","","","","0","stimuli/bird_lowercase.png","stimuli/stim019_inanimate_tree_3.png","stimuli/stim002_animate_fish_2.png","38"
"html-button-response-mod","43","77415","0.0-43.0","73603","","","","","","triplet","796.1999999992549","","","","0","stimuli/stim019_inanimate_tree_3.png","stimuli/tools_lowercase.png","stimuli/fish_uppercase.png","39"
"html-button-response-mod","44","78613","0.0-44.0","73603","","","","","","triplet","683.5","","","","1","stimuli/bird_uppercase.png","stimuli/stim009_animate_face_1.png","stimuli/face_uppercase.png","40"
"html-button-response-mod","45","79819","0.0-45.0","73603","","","","","","triplet","702.9000000003725","","","","0","stimuli/stim008_animate_bird_4.png","stimuli/fish_uppercase.png","stimuli/boats_lowercase.png","41"
"html-button-response-mod","46","81235","0.0-46.0","73603","","","","","","triplet","911.5","","","","1","stimuli/stim003_animate_fish_3.png","stimuli/stim018_inanimate_tree_2.png","stimuli/stim005_animate_bird_1.png","42"
"html-button-response-mod","47","82376","0.0-47.0","73603","","","","","","triplet","636.9000000003725","","","","1","stimuli/stim018_inanimate_tree_2.png","stimuli/tools_lowercase.png","stimuli/stim017_inanimate_tree_1.png","43"
"html-button-response-mod","48","83620","0.0-48.0","73603","","","","","","triplet","725.9000000003725","","","","0","stimuli/face_uppercase.png","stimuli/stim003_animate_fish_3.png","stimuli/stim008_animate_bird_4.png","44"
"html-button-response-mod","49","84741","0.0-49.0","73603","","","","","","triplet","606.7999999988824","","","","2","stimuli/stim011_animate_face_3.png","stimuli/stim013_inanimate_boats_1.png","stimuli/face_lowercase.png","45"
"html-button-response-mod","50","85933","0.0-50.0","73603","","","","","","triplet","682","","","","1","stimuli/stim018_inanimate_tree_2.png","stimuli/face_lowercase.png","stimuli/stim005_animate_bird_1.png","46"
"html-button-response-mod","51","87429","0.0-51.0","73603","","","","","","triplet","983.2000000011176","","","","1","stimuli/stim010_animate_face_2.png","stimuli/stim018_inanimate_tree_2.png","stimuli/stim011_animate_face_3.png","47"
"html-button-response-mod","52","88906","0.0-52.0","73603","","","","","","triplet","960.7000000011176","","","","0","stimuli/stim018_inanimate_tree_2.png","stimuli/stim001_animate_fish_1.png","stimuli/stim010_animate_face_2.png","48"
"html-button-response-mod","53","90280","0.0-53.0","73603","","","","","","triplet","872.1999999992549","","","","0","stimuli/tools_uppercase.png","stimuli/stim011_animate_face_3.png","stimuli/stim020_inanimate_tree_4.png","49"
"html-button-response","54","93619","0.0-54.0","73603","","","","","","break","2825.5","<p>BREAK</p><p>Take a break for as long as you need</p><p>Click the button to continue</p>","0","","","","","",""
"html-button-response-mod","55","94281","0.0-55.0","73603","","","","","","triplet","661.2999999988824","","","","2","stimuli/bird_uppercase.png","stimuli/face_lowercase.png","stimuli/stim009_animate_face_1.png","50"
"html-button-response-mod","56","95377","0.0-56.0","73603","","","","","","triplet","591.6999999992549","","","","1","stimuli/boats_lowercase.png","stimuli/stim005_animate_bird_1.png","stimuli/fish_lowercase.png","51"
"html-button-response-mod","57","96546","0.0-57.0","73603","","","","","","triplet","652.9000000003725","","","","0","stimuli/stim003_animate_fish_3.png","stimuli/boats_lowercase.png","stimuli/stim007_animate_bird_3.png","52"
"html-button-response-mod","58","98285","0.0-58.0","73603","","","","","","triplet","1224.800000000745","","","","2","stimuli/stim006_animate_bird_2.png","stimuli/stim007_animate_bird_3.png","stimuli/stim016_inanimate_boats_4.png","53"
"html-button-response-mod","59","99440","0.0-59.0","73603","","","","","","triplet","650.8999999985099","","","","1","stimuli/stim011_animate_face_3.png","stimuli/tools_uppercase.png","stimuli/stim010_animate_face_2.png","54"
"html-button-response-mod","60","100643","0.0-60.0","73603","","","","","","triplet","691.5","","","","1","stimuli/stim017_inanimate_tree_1.png","stimuli/fish_uppercase.png","stimuli/stim019_inanimate_tree_3.png","55"
"html-button-response-mod","61","101876","0.0-61.0","73603","","","","","","triplet","717.6999999992549","","","","2","stimuli/face_lowercase.png","stimuli/tools_lowercase.png","stimuli/stim014_inanimate_boats_2.png","56"
"html-button-response-mod","62","103501","0.0-62.0","73603","","","","","","triplet","1112.800000000745","","","","0","stimuli/stim017_inanimate_tree_1.png","stimuli/stim023_inanimate_tools_3.png","stimuli/stim016_inanimate_boats_4.png","57"
"html-button-response-mod","63","104700","0.0-63.0","73603","","","","","","triplet","695.5999999996275","","","","1","stimuli/stim011_animate_face_3.png","stimuli/boats_lowercase.png","stimuli/stim010_animate_face_2.png","58"
"html-button-response-mod","64","105891","0.0-64.0","73603","","","","","","triplet","684.3000000007451","","","","2","stimuli/stim023_inanimate_tools_3.png","stimuli/stim014_inanimate_boats_2.png","stimuli/fish_uppercase.png","59"
"html-button-response-mod","65","107703","0.0-65.0","73603","","","","","","triplet","1308.2999999988824","","","","0","stimuli/stim005_animate_bird_1.png","stimuli/stim016_inanimate_boats_4.png","stimuli/stim010_animate_face_2.png","60"
"html-button-response-mod","66","109159","0.0-66.0","73603","","","","","","triplet","945.8000000007451","","","","1","stimuli/stim013_inanimate_boats_1.png","stimuli/stim011_animate_face_3.png","stimuli/stim024_inanimate_tools_4.png","61"
"html-button-response-mod","67","110413","0.0-67.0","73603","","","","","","triplet","744","","","","2","stimuli/stim019_inanimate_tree_3.png","stimuli/stim022_inanimate_tools_2.png","stimuli/tree_lowercase.png","62"
"html-button-response-mod","68","111604","0.0-68.0","73603","","","","","","triplet","680.9000000003725","","","","1","stimuli/stim006_animate_bird_2.png","stimuli/boats_uppercase.png","stimuli/stim009_animate_face_1.png","63"
"html-button-response-mod","69","112839","0.0-69.0","73603","","","","","","triplet","725.3000000007451","","","","2","stimuli/face_lowercase.png","stimuli/tools_uppercase.png","stimuli/stim020_inanimate_tree_4.png","64"
"html-button-response-mod","70","114091","0.0-70.0","73603","","","","","","triplet","741.4000000003725","","","","2","stimuli/stim015_inanimate_boats_3.png","stimuli/stim004_animate_fish_4.png","stimuli/fish_lowercase.png","65"
"html-button-response-mod","71","115640","0.0-71.0","73603","","","","","","triplet","1034.699999999255","","","","2","stimuli/stim010_animate_face_2.png","stimuli/stim009_animate_face_1.png","stimuli/stim008_animate_bird_4.png","66"
"html-button-response-mod","72","116925","0.0-72.0","73603","","","","","","triplet","767.2000000011176","","","","1","stimuli/tree_uppercase.png","stimuli/stim003_animate_fish_3.png","stimuli/fish_uppercase.png","67"
"html-button-response-mod","73","118223","0.0-73.0","73603","","","","","","triplet","793.7000000011176","","","","0","stimuli/stim012_animate_face_4.png","stimuli/bird_lowercase.png","stimuli/boats_uppercase.png","68"
"html-button-response-mod","74","119781","0.0-74.0","73603","","","","","","triplet","1049","","","","0","stimuli/boats_lowercase.png","stimuli/stim011_animate_face_3.png","stimuli/stim006_animate_bird_2.png","69"
"html-button-response-mod","75","121046","0.0-75.0","73603","","","","","","triplet","763.5999999996275","","","","0","stimuli/face_lowercase.png","stimuli/stim020_inanimate_tree_4.png","stimuli/stim024_inanimate_tools_4.png","70"
"html-button-response-mod","76","123318","0.0-76.0","73603","","","","","","triplet","1769.199999999255","","","","1","stimuli/stim016_inanimate_boats_4.png","stimuli/stim009_animate_face_1.png","stimuli/stim002_animate_fish_2.png","71"
"html-button-response-mod","77","124701","0.0-77.0","73603","","","","","","triplet","868","","","","2","stimuli/stim024_inanimate_tools_4.png","stimuli/stim009_animate_face_1.png","stimuli/bird_uppercase.png","72"
"html-button-response-mod","78","126165","0.0-78.0","73603","","","","","","triplet","954.3000000007451","","","","0","stimuli/stim004_animate_fish_4.png","stimuli/tools_uppercase.png","stimuli/tree_uppercase.png","73"
"html-button-response-mod","79","127690","0.0-79.0","73603","","","","","","triplet","1013","","","","2","stimuli/stim006_animate_bird_2.png","stimuli/stim010_animate_face_2.png","stimuli/stim016_inanimate_boats_4.png","74"
"html-button-response-mod","80","128965","0.0-80.0","73603","","","","","","triplet","758.7999999988824","","","","2","stimuli/stim018_inanimate_tree_2.png","stimuli/stim009_animate_face_1.png","stimuli/boats_uppercase.png","75"
"html-button-response-mod","81","130161","0.0-81.0","73603","","","","","","triplet","690.0999999996275","","","","1","stimuli/stim003_animate_fish_3.png","stimuli/bird_uppercase.png","stimuli/stim022_inanimate_tools_2.png","76"
"html-button-response-mod","82","131768","0.0-82.0","73603","","","","","","triplet","1095.3999999985099","","","","1","stimuli/stim005_animate_bird_1.png","stimuli/stim009_animate_face_1.png","stimuli/stim002_animate_fish_2.png","77"
"html-button-response-mod","83","133208","0.0-83.0","73603","","","","","","triplet","930.4000000003725","","","","0","stimuli/stim019_inanimate_tree_3.png","stimuli/tools_uppercase.png","stimuli/tools_lowercase.png","78"
"html-button-response-mod","84","134568","0.0-84.0","73603","","","","","","triplet","851.3000000007451","","","","2","stimuli/stim021_inanimate_tools_1.png","stimuli/stim013_inanimate_boats_1.png","stimuli/boats_uppercase.png","79"
"html-button-response-mod","85","135773","0.0-85.0","73603","","","","","","triplet","693.3999999985099","","","","0","stimuli/face_lowercase.png","stimuli/stim023_inanimate_tools_3.png","stimuli/stim006_animate_bird_2.png","80"
"html-button-response-mod","86","137014","0.0-86.0","73603","","","","","","triplet","737.5999999996275","","","","2","stimuli/stim023_inanimate_tools_3.png","stimuli/stim007_animate_bird_3.png","stimuli/boats_uppercase.png","81"
"html-button-response-mod","87","138477","0.0-87.0","73603","","","","","","triplet","950","","","","1","stimuli/stim015_inanimate_boats_3.png","stimuli/tools_lowercase.png","stimuli/stim019_inanimate_tree_3.png","82"
"html-button-response-mod","88","139723","0.0-88.0","73603","","","","","","triplet","735.4000000003725","","","","0","stimuli/boats_lowercase.png","stimuli/stim001_animate_fish_1.png","stimuli/stim019_inanimate_tree_3.png","83"
"html-button-response-mod","89","140938","0.0-89.0","73603","","","","","","triplet","700","","","","1","stimuli/bird_uppercase.png","stimuli/stim018_inanimate_tree_2.png","stimuli/fish_lowercase.png","84"
"html-button-response-mod","90","142122","0.0-90.0","73603","","","","","","triplet","675.1999999992549","","","","0","stimuli/fish_uppercase.png","stimuli/stim020_inanimate_tree_4.png","stimuli/stim019_inanimate_tree_3.png","85"
"html-button-response-mod","91","143575","0.0-91.0","73603","","","","","","triplet","949.7000000011176","","","","2","stimuli/stim019_inanimate_tree_3.png","stimuli/stim003_animate_fish_3.png","stimuli/stim011_animate_face_3.png","86"
"html-button-response-mod","92","145156","0.0-92.0","73603","","","","","","triplet","1072.199999999255","","","","2","stimuli/stim016_inanimate_boats_4.png","stimuli/stim001_animate_fish_1.png","stimuli/stim023_inanimate_tools_3.png","87"
"html-button-response-mod","93","146516","0.0-93.0","73603","","","","","","triplet","855.8000000007451","","","","2","stimuli/stim007_animate_bird_3.png","stimuli/stim008_animate_bird_4.png","stimuli/stim022_inanimate_tools_2.png","88"
"html-button-response-mod","94","147801","0.0-94.0","73603","","","","","","triplet","774.2999999988824","","","","2","stimuli/stim001_animate_fish_1.png","stimuli/stim005_animate_bird_1.png","stimuli/bird_uppercase.png","89"
"html-button-response-mod","95","149227","0.0-95.0","73603","","","","","","triplet","922.5","","","","0","stimuli/stim016_inanimate_boats_4.png","stimuli/fish_uppercase.png","stimuli/bird_uppercase.png","90"
"html-button-response-mod","96","150471","0.0-96.0","73603","","","","","","triplet","736","","","","2","stimuli/bird_lowercase.png","stimuli/tree_uppercase.png","stimuli/stim021_inanimate_tools_1.png","91"
"html-button-response-mod","97","152598","0.0-97.0","73603","","","","","","triplet","1622","","","","1","stimuli/stim004_animate_fish_4.png","stimuli/stim020_inanimate_tree_4.png","stimuli/stim013_inanimate_boats_1.png","92"
"html-button-response-mod","98","153837","0.0-98.0","73603","","","","","","triplet","723.6999999992549","","","","2","stimuli/stim017_inanimate_tree_1.png","stimuli/stim009_animate_face_1.png","stimuli/boats_lowercase.png","93"
"html-button-response-mod","99","155182","0.0-99.0","73603","","","","","","triplet","837.3000000007451","","","","1","stimuli/stim017_inanimate_tree_1.png","stimuli/face_lowercase.png","stimuli/stim003_animate_fish_3.png","94"
"html-button-response-mod","100","156532","0.0-100.0","73603","","","","","","triplet","833.4000000003725","","","","0","stimuli/fish_lowercase.png","stimuli/stim023_inanimate_tools_3.png","stimuli/stim001_animate_fish_1.png","95"
"html-button-response-mod","101","157904","0.0-101.0","73603","","","","","","triplet","853.5999999996275","","","","0","stimuli/bird_lowercase.png","stimuli/stim012_animate_face_4.png","stimuli/stim017_inanimate_tree_1.png","96"
"html-button-response-mod","102","159166","0.0-102.0","73603","","","","","","triplet","758.5999999996275","","","","0","stimuli/bird_uppercase.png","stimuli/stim014_inanimate_boats_2.png","stimuli/stim016_inanimate_boats_4.png","97"
"html-button-response-mod","103","160404","0.0-103.0","73603","","","","","","triplet","726.6999999992549","","","","0","stimuli/fish_lowercase.png","stimuli/stim010_animate_face_2.png","stimuli/stim011_animate_face_3.png","98"
"html-button-response-mod","104","161929","0.0-104.0","73603","","","","","","triplet","1013.6999999992549","","","","1","stimuli/face_lowercase.png","stimuli/bird_uppercase.png","stimuli/stim024_inanimate_tools_4.png","99"
"html-button-response","105","164257","0.0-105.0","73603","","","","","","break","1822.5999999996275","<p>BREAK</p><p>Take a break for as long as you need</p><p>Click the button to continue</p>","0","","","","","",""
"html-button-response-mod","106","165168","0.0-106.0","73603","","","","","","triplet","909.9000000003725","","","","1","stimuli/tools_lowercase.png","stimuli/stim018_inanimate_tree_2.png","stimuli/boats_uppercase.png","100"
"html-button-response-mod","107","166296","0.0-107.0","73603","","","","","","triplet","613.9000000003725","","","","1","stimuli/face_lowercase.png","stimuli/stim021_inanimate_tools_1.png","stimuli/tools_uppercase.png","101"
"html-button-response-mod","108","167733","0.0-108.0","73603","","","","","","triplet","927.2999999988824","","","","2","stimuli/stim010_animate_face_2.png","stimuli/stim024_inanimate_tools_4.png","stimuli/tree_uppercase.png","102"
"html-button-response-mod","109","168886","0.0-109.0","73603","","","","","","triplet","650","","","","1","stimuli/face_lowercase.png","stimuli/stim006_animate_bird_2.png","stimuli/tree_uppercase.png","103"
"html-button-response-mod","110","170637","0.0-110.0","73603","","","","","","triplet","1244.300000000745","","","","1","stimuli/stim024_inanimate_tools_4.png","stimuli/bird_lowercase.png","stimuli/stim019_inanimate_tree_3.png","104"
"html-button-response-mod","111","172585","0.0-111.0","73603","","","","","","triplet","1433","","","","0","stimuli/tree_lowercase.png","stimuli/tree_uppercase.png","stimuli/fish_uppercase.png","105"
"html-button-response-mod","112","173837","0.0-112.0","73603","","","","","","triplet","747.6999999992549","","","","1","stimuli/stim005_animate_bird_1.png","stimuli/boats_lowercase.png","stimuli/stim015_inanimate_boats_3.png","106"
"html-button-response-mod","113","175219","0.0-113.0","73603","","","","","","triplet","871.0999999996275","","","","0","stimuli/face_uppercase.png","stimuli/stim020_inanimate_tree_4.png","stimuli/stim007_animate_bird_3.png","107"
"html-button-response-mod","114","176498","0.0-114.0","73603","","","","","","triplet","769","","","","0","stimuli/face_lowercase.png","stimuli/stim012_animate_face_4.png","stimuli/stim014_inanimate_boats_2.png","108"
"html-button-response-mod","115","177764","0.0-115.0","73603","","","","","","triplet","753.7999999988824","","","","0","stimuli/fish_lowercase.png","stimuli/stim009_animate_face_1.png","stimuli/stim014_inanimate_boats_2.png","109"
"html-button-response-mod","116","179463","0.0-116.0","73603","","","","","","triplet","1184.5999999996275","","","","2","stimuli/stim006_animate_bird_2.png","stimuli/stim020_inanimate_tree_4.png","stimuli/stim016_inanimate_boats_4.png","110"
"html-button-response-mod","117","181252","0.0-117.0","73603","","","","","","triplet","1284.9000000003725","","","","2","stimuli/stim013_inanimate_boats_1.png","stimuli/stim024_inanimate_tools_4.png","stimuli/stim014_inanimate_boats_2.png","111"
"html-button-response-mod","118","182937","0.0-118.0","73603","","","","","","triplet","1178","","","","0","stimuli/stim023_inanimate_tools_3.png","stimuli/stim002_animate_fish_2.png","stimuli/stim009_animate_face_1.png","112"
"html-button-response-mod","119","184476","0.0-119.0","73603","","","","","","triplet","1026.800000000745","","","","0","stimuli/stim007_animate_bird_3.png","stimuli/fish_uppercase.png","stimuli/face_lowercase.png","113"
"html-button-response-mod","120","185720","0.0-120.0","73603","","","","","","triplet","736.5","","","","2","stimuli/fish_lowercase.png","stimuli/boats_lowercase.png","stimuli/stim011_animate_face_3.png","114"
"html-button-response-mod","121","187254","0.0-121.0","73603","","","","","","triplet","1022.6999999992549","","","","0","stimuli/boats_lowercase.png","stimuli/stim023_inanimate_tools_3.png","stimuli/stim018_inanimate_tree_2.png","115"
"html-button-response-mod","122","188579","0.0-122.0","73603","","","","","","triplet","816.5999999996275","","","","1","stimuli/tools_uppercase.png","stimuli/stim019_inanimate_tree_3.png","stimuli/fish_lowercase.png","116"
"html-button-response-mod","123","189766","0.0-123.0","73603","","","","","","triplet","674.6999999992549","","","","2","stimuli/tree_uppercase.png","stimuli/face_lowercase.png","stimuli/stim014_inanimate_boats_2.png","117"
"html-button-response-mod","124","191324","0.0-124.0","73603","","","","","","triplet","1045.800000000745","","","","0","stimuli/tree_uppercase.png","stimuli/stim012_animate_face_4.png","stimuli/stim004_animate_fish_4.png","118"
"html-button-response-mod","125","192551","0.0-125.0","73603","","","","","","triplet","721.7999999988824","","","","1","stimuli/tools_lowercase.png","stimuli/stim014_inanimate_boats_2.png","stimuli/bird_uppercase.png","119"
"html-button-response-mod","126","194184","0.0-126.0","73603","","","","","","triplet","1116.9000000003725","","","","0","stimuli/stim018_inanimate_tree_2.png","stimuli/stim007_animate_bird_3.png","stimuli/stim008_animate_bird_4.png","120"
"html-button-response-mod","127","195863","0.0-127.0","73603","","","","","","triplet","1169.800000000745","","","","2","stimuli/stim010_animate_face_2.png","stimuli/stim011_animate_face_3.png","stimuli/stim004_animate_fish_4.png","121"
"html-button-response-mod","128","197266","0.0-128.0","73603","","","","","","triplet","900.1999999992549","","","","1","stimuli/stim007_animate_bird_3.png","stimuli/fish_uppercase.png","stimuli/stim019_inanimate_tree_3.png","122"
"html-button-response-mod","129","198687","0.0-129.0","73603","","","","","","triplet","917.6999999992549","","","","1","stimuli/stim003_animate_fish_3.png","stimuli/tools_uppercase.png","stimuli/stim014_inanimate_boats_2.png","123"
"html-button-response-mod","130","200013","0.0-130.0","73603","","","","","","triplet","817","","","","0","stimuli/stim015_inanimate_boats_3.png","stimuli/bird_lowercase.png","stimuli/tree_uppercase.png","124"
"html-button-response-mod","131","202268","0.0-131.0","73603","","","","","","triplet","1746.5999999996275","","","","2","stimuli/stim014_inanimate_boats_2.png","stimuli/stim015_inanimate_boats_3.png","stimuli/stim021_inanimate_tools_1.png","125"
"html-button-response-mod","132","204130","0.0-132.0","73603","","","","","","triplet","1358.4000000003725","","","","2","stimuli/stim015_inanimate_boats_3.png","stimuli/stim024_inanimate_tools_4.png","stimuli/stim023_inanimate_tools_3.png","126"
"html-button-response-mod","133","205571","0.0-133.0","73603","","","","","","triplet","928.9000000003725","","","","0","stimuli/fish_lowercase.png","stimuli/stim007_animate_bird_3.png","stimuli/stim006_animate_bird_2.png","127"
"html-button-response-mod","134","207132","0.0-134.0","73603","","","","","","triplet","1052","","","","0","stimuli/stim022_inanimate_tools_2.png","stimuli/stim017_inanimate_tree_1.png","stimuli/stim019_inanimate_tree_3.png","128"
"html-button-response-mod","135","208617","0.0-135.0","73603","","","","","","triplet","978.2000000011176","","","","2","stimuli/stim014_inanimate_boats_2.png","stimuli/stim002_animate_fish_2.png","stimuli/stim009_animate_face_1.png","129"
"html-button-response-mod","136","210655","0.0-136.0","73603","","","","","","triplet","1522.2999999988824","","","","1","stimuli/stim017_inanimate_tree_1.png","stimuli/stim012_animate_face_4.png","stimuli/stim001_animate_fish_1.png","130"
"html-button-response-mod","137","212147","0.0-137.0","73603","","","","","","triplet","986.2000000011176","","","","0","stimuli/stim021_inanimate_tools_1.png","stimuli/tools_uppercase.png","stimuli/boats_uppercase.png","131"
"html-button-response-mod","138","213549","0.0-138.0","73603","","","","","","triplet","889.5","","","","0","stimuli/stim017_inanimate_tree_1.png","stimuli/stim011_animate_face_3.png","stimuli/stim009_animate_face_1.png","132"
"html-button-response-mod","139","214996","0.0-139.0","73603","","","","","","triplet","930","","","","0","stimuli/bird_uppercase.png","stimuli/stim007_animate_bird_3.png","stimuli/stim017_inanimate_tree_1.png","133"
"html-button-response-mod","140","216225","0.0-140.0","73603","","","","","","triplet","714.0999999996275","","","","2","stimuli/boats_uppercase.png","stimuli/tree_lowercase.png","stimuli/stim024_inanimate_tools_4.png","134"
"html-button-response-mod","141","217641","0.0-141.0","73603","","","","","","triplet","906.8000000007451","","","","0","stimuli/bird_lowercase.png","stimuli/stim012_animate_face_4.png","stimuli/stim010_animate_face_2.png","135"
"html-button-response-mod","142","219664","0.0-142.0","73603","","","","","","triplet","1519.5999999996275","","","","2","stimuli/stim014_inanimate_boats_2.png","stimuli/stim015_inanimate_boats_3.png","stimuli/stim005_animate_bird_1.png","136"
"html-button-response-mod","143","221002","0.0-143.0","73603","","","","","","triplet","826","","","","2","stimuli/stim021_inanimate_tools_1.png","stimuli/stim001_animate_fish_1.png","stimuli/face_lowercase.png","137"
"html-button-response-mod","144","222408","0.0-144.0","73603","","","","","","triplet","895.7000000011176","","","","0","stimuli/stim017_inanimate_tree_1.png","stimuli/boats_lowercase.png","stimuli/bird_uppercase.png","138"
"html-button-response-mod","145","223751","0.0-145.0","73603","","","","","","triplet","837.1999999992549","","","","2","stimuli/boats_lowercase.png","stimuli/tree_lowercase.png","stimuli/stim023_inanimate_tools_3.png","139"
"html-button-response-mod","146","225224","0.0-146.0","73603","","","","","","triplet","965.7999999988824","","","","1","stimuli/stim008_animate_bird_4.png","stimuli/tools_uppercase.png","stimuli/stim018_inanimate_tree_2.png","140"
"html-button-response-mod","147","227092","0.0-147.0","73603","","","","","","triplet","1350.7000000011176","","","","0","stimuli/stim021_inanimate_tools_1.png","stimuli/stim006_animate_bird_2.png","stimuli/stim010_animate_face_2.png","141"
"html-button-response-mod","148","228420","0.0-148.0","73603","","","","","","triplet","820.2999999988824","","","","1","stimuli/face_uppercase.png","stimuli/stim012_animate_face_4.png","stimuli/fish_lowercase.png","142"
"html-button-response-mod","149","230132","0.0-149.0","73603","","","","","","triplet","1202.5","","","","1","stimuli/stim005_animate_bird_1.png","stimuli/stim013_inanimate_boats_1.png","stimuli/stim003_animate_fish_3.png","143"
"html-button-response-mod","150","231482","0.0-150.0","73603","","","","","","triplet","842.5","","","","2","stimuli/stim009_animate_face_1.png","stimuli/stim005_animate_bird_1.png","stimuli/tools_uppercase.png","144"
"html-button-response-mod","151","232819","0.0-151.0","73603","","","","","","triplet","824.7999999988824","","","","1","stimuli/stim016_inanimate_boats_4.png","stimuli/face_uppercase.png","stimuli/stim019_inanimate_tree_3.png","145"
"html-button-response-mod","152","234103","0.0-152.0","73603","","","","","","triplet","769.4000000003725","","","","1","stimuli/stim003_animate_fish_3.png","stimuli/fish_uppercase.png","stimuli/stim001_animate_fish_1.png","146"
"html-button-response-mod","153","236092","0.0-153.0","73603","","","","","","triplet","1475.5999999996275","","","","2","stimuli/bird_uppercase.png","stimuli/tree_uppercase.png","stimuli/fish_lowercase.png","147"
"html-button-response-mod","154","237672","0.0-154.0","73603","","","","","","triplet","1074.9000000003725","","","","2","stimuli/fish_lowercase.png","stimuli/fish_uppercase.png","stimuli/stim020_inanimate_tree_4.png","148"
"html-button-response-mod","155","239116","0.0-155.0","73603","","","","","","triplet","941.4000000003725","","","","2","stimuli/tools_uppercase.png","stimuli/fish_lowercase.png","stimuli/stim016_inanimate_boats_4.png","149"
"html-button-response","156","243135","0.0-156.0","73603","","","","","","break","3510.199999999255","<p>BREAK</p><p>Take a break for as long as you need</p><p>Click the button to continue</p>","0","","","","","",""
"html-button-response-mod","157","243845","0.0-157.0","73603","","","","","","triplet","706.9000000003725","","","","2","stimuli/stim004_animate_fish_4.png","stimuli/stim014_inanimate_boats_2.png","stimuli/boats_lowercase.png","150"
"html-button-response-mod","158","245665","0.0-158.0","73603","","","","","","triplet","1309.2999999988824","","","","2","stimuli/stim009_animate_face_1.png","stimuli/stim007_animate_bird_3.png","stimuli/stim016_inanimate_boats_4.png","151"
"html-button-response-mod","159","247097","0.0-159.0","73603","","","","","","triplet","922.8000000007451","","","","1","stimuli/tools_uppercase.png","stimuli/stim011_animate_face_3.png","stimuli/face_uppercase.png","152"
"html-button-response-mod","160","248414","0.0-160.0","73603","","","","","","triplet","803.5999999996275","","","","1","stimuli/boats_uppercase.png","stimuli/stim001_animate_fish_1.png","stimuli/bird_uppercase.png","153"
"html-button-response-mod","161","249953","0.0-161.0","73603","","","","","","triplet","1033.5999999996275","","","","0","stimuli/stim015_inanimate_boats_3.png","stimuli/bird_uppercase.png","stimuli/tools_uppercase.png","154"
"html-button-response-mod","162","251301","0.0-162.0","73603","","","","","","triplet","832.1999999992549","","","","1","stimuli/stim018_inanimate_tree_2.png","stimuli/fish_lowercase.png","stimuli/stim020_inanimate_tree_4.png","155"
"html-button-response-mod","163","252638","0.0-163.0","73603","","","","","","triplet","833.8999999985099","","","","0","stimuli/tools_uppercase.png","stimuli/stim015_inanimate_boats_3.png","stimuli/stim023_inanimate_tools_3.png","156"
"html-button-response-mod","164","254048","0.0-164.0","73603","","","","","","triplet","900.0999999996275","","","","0","stimuli/stim017_inanimate_tree_1.png","stimuli/face_uppercase.png","stimuli/bird_lowercase.png","157"
"html-button-response-mod","165","255422","0.0-165.0","73603","","","","","","triplet","863.7000000011176","","","","0","stimuli/fish_uppercase.png","stimuli/stim010_animate_face_2.png","stimuli/stim006_animate_bird_2.png","158"
"html-button-response-mod","166","256610","0.0-166.0","73603","","","","","","triplet","685.5999999996275","","","","2","stimuli/stim001_animate_fish_1.png","stimuli/stim011_animate_face_3.png","stimuli/boats_lowercase.png","159"
"html-button-response-mod","167","257923","0.0-167.0","73603","","","","","","triplet","804.1999999992549","","","","0","stimuli/bird_uppercase.png","stimuli/stim024_inanimate_tools_4.png","stimuli/stim015_inanimate_boats_3.png","160"
"html-button-response-mod","168","259239","0.0-168.0","73603","","","","","","triplet","805.3000000007451","","","","2","stimuli/tree_uppercase.png","stimuli/fish_uppercase.png","stimuli/stim023_inanimate_tools_3.png","161"
"html-button-response-mod","169","260506","0.0-169.0","73603","","","","","","triplet","756.8000000007451","","","","2","stimuli/stim005_animate_bird_1.png","stimuli/stim006_animate_bird_2.png","stimuli/face_uppercase.png","162"
"html-button-response-mod","170","262000","0.0-170.0","73603","","","","","","triplet","991.1999999992549","","","","0","stimuli/tree_uppercase.png","stimuli/stim009_animate_face_1.png","stimuli/stim023_inanimate_tools_3.png","163"
"html-button-response-mod","171","263350","0.0-171.0","73603","","","","","","triplet","844.2000000011176","","","","2","stimuli/stim023_inanimate_tools_3.png","stimuli/stim015_inanimate_boats_3.png","stimuli/face_lowercase.png","164"
"html-button-response-mod","172","264632","0.0-172.0","73603","","","","","","triplet","773.0999999996275","","","","1","stimuli/stim010_animate_face_2.png","stimuli/fish_uppercase.png","stimuli/stim023_inanimate_tools_3.png","165"
"html-button-response-mod","173","266429","0.0-173.0","73603","","","","","","triplet","1282.699999999255","","","","2","stimuli/stim019_inanimate_tree_3.png","stimuli/stim003_animate_fish_3.png","stimuli/stim009_animate_face_1.png","166"
"html-button-response-mod","174","267775","0.0-174.0","73603","","","","","","triplet","839.4000000003725","","","","2","stimuli/fish_lowercase.png","stimuli/face_lowercase.png","stimuli/stim019_inanimate_tree_3.png","167"
"html-button-response-mod","175","269245","0.0-175.0","73603","","","","","","triplet","958.9000000003725","","","","1","stimuli/stim022_inanimate_tools_2.png","stimuli/face_uppercase.png","stimuli/stim018_inanimate_tree_2.png","168"
"html-button-response-mod","176","272742","0.0-176.0","73603","","","","","","triplet","2989.5","","","","2","stimuli/tools_lowercase.png","stimuli/tree_lowercase.png","stimuli/face_lowercase.png","169"
"html-button-response-mod","177","274191","0.0-177.0","73603","","","","","","triplet","942.4000000003725","","","","0","stimuli/stim004_animate_fish_4.png","stimuli/fish_lowercase.png","stimuli/face_uppercase.png","170"
"html-button-response-mod","178","276816","0.0-178.0","73603","","","","","","triplet","2117.2999999988824","","","","2","stimuli/stim011_animate_face_3.png","stimuli/stim003_animate_fish_3.png","stimuli/stim014_inanimate_boats_2.png","171"
"html-button-response-mod","179","278060","0.0-179.0","73603","","","","","","triplet","737.2000000011176","","","","2","stimuli/stim006_animate_bird_2.png","stimuli/stim001_animate_fish_1.png","stimuli/boats_uppercase.png","172"
"html-button-response-mod","180","279421","0.0-180.0","73603","","","","","","triplet","848.3999999985099","","","","0","stimuli/boats_uppercase.png","stimuli/stim011_animate_face_3.png","stimuli/stim002_animate_fish_2.png","173"
"html-button-response-mod","181","281180","0.0-181.0","73603","","","","","","triplet","1244.0999999996275","","","","2","stimuli/stim018_inanimate_tree_2.png","stimuli/stim009_animate_face_1.png","stimuli/stim023_inanimate_tools_3.png","174"
"html-button-response-mod","182","282566","0.0-182.0","73603","","","","","","triplet","873.1999999992549","","","","0","stimuli/face_uppercase.png","stimuli/stim020_inanimate_tree_4.png","stimuli/stim022_inanimate_tools_2.png","175"
"html-button-response-mod","183","284711","0.0-183.0","73603","","","","","","triplet","1639.5","","","","1","stimuli/stim008_animate_bird_4.png","stimuli/stim020_inanimate_tree_4.png","stimuli/stim015_inanimate_boats_3.png","176"
"html-button-response-mod","184","286499","0.0-184.0","73603","","","","","","triplet","1278.199999999255","","","","1","stimuli/stim002_animate_fish_2.png","stimuli/stim009_animate_face_1.png","stimuli/stim001_animate_fish_1.png","177"
"html-button-response-mod","185","287854","0.0-185.0","73603","","","","","","triplet","845.7000000011176","","","","2","stimuli/stim023_inanimate_tools_3.png","stimuli/stim008_animate_bird_4.png","stimuli/fish_lowercase.png","178"
"html-button-response-mod","186","289844","0.0-186.0","73603","","","","","","triplet","1481.6000000014901","","","","0","stimuli/stim008_animate_bird_4.png","stimuli/stim023_inanimate_tools_3.png","stimuli/stim015_inanimate_boats_3.png","179"
"html-button-response-mod","187","291392","0.0-187.0","73603","","","","","","triplet","1036.5","","","","0","stimuli/stim024_inanimate_tools_4.png","stimuli/stim008_animate_bird_4.png","stimuli/stim003_animate_fish_3.png","180"
"html-button-response-mod","188","292863","0.0-188.0","73603","","","","","","triplet","964.2000000011176","","","","2","stimuli/stim005_animate_bird_1.png","stimuli/stim001_animate_fish_1.png","stimuli/stim024_inanimate_tools_4.png","181"
"html-button-response-mod","189","294808","0.0-189.0","73603","","","","","","triplet","1438","","","","0","stimuli/stim015_inanimate_boats_3.png","stimuli/stim004_animate_fish_4.png","stimuli/stim009_animate_face_1.png","182"
"html-button-response-mod","190","296224","0.0-190.0","73603","","","","","","triplet","898","","","","2","stimuli/stim010_animate_face_2.png","stimuli/stim006_animate_bird_2.png","stimuli/stim024_inanimate_tools_4.png","183"
"html-button-response-mod","191","297640","0.0-191.0","73603","","","","","","triplet","905.0999999996275","","","","1","stimuli/face_lowercase.png","stimuli/stim015_inanimate_boats_3.png","stimuli/tree_uppercase.png","184"
"html-button-response-mod","192","299451","0.0-192.0","73603","","","","","","triplet","1293","","","","1","stimuli/stim006_animate_bird_2.png","stimuli/bird_uppercase.png","stimuli/stim022_inanimate_tools_2.png","185"
"html-button-response-mod","193","300745","0.0-193.0","73603","","","","","","triplet","785.1999999992549","","","","2","stimuli/stim001_animate_fish_1.png","stimuli/stim008_animate_bird_4.png","stimuli/bird_lowercase.png","186"
"html-button-response-mod","194","302099","0.0-194.0","73603","","","","","","triplet","841","","","","1","stimuli/stim019_inanimate_tree_3.png","stimuli/tools_lowercase.png","stimuli/stim011_animate_face_3.png","187"
"html-button-response-mod","195","303328","0.0-195.0","73603","","","","","","triplet","717.5","","","","2","stimuli/fish_lowercase.png","stimuli/bird_lowercase.png","stimuli/stim023_inanimate_tools_3.png","188"
"html-button-response-mod","196","304681","0.0-196.0","73603","","","","","","triplet","846.5999999996275","","","","1","stimuli/stim007_animate_bird_3.png","stimuli/boats_lowercase.png","stimuli/stim011_animate_face_3.png","189"
"html-button-response-mod","197","306143","0.0-197.0","73603","","","","","","triplet","950.8000000007451","","","","0","stimuli/tools_lowercase.png","stimuli/stim014_inanimate_boats_2.png","stimuli/stim017_inanimate_tree_1.png","190"
"html-button-response-mod","198","307363","0.0-198.0","73603","","","","","","triplet","709.7000000011176","","","","2","stimuli/stim008_animate_bird_4.png","stimuli/stim020_inanimate_tree_4.png","stimuli/bird_lowercase.png","191"
"html-button-response-mod","199","309310","0.0-199.0","73603","","","","","","triplet","1442.5","","","","0","stimuli/stim013_inanimate_boats_1.png","stimuli/stim002_animate_fish_2.png","stimuli/stim001_animate_fish_1.png","192"
"html-button-response-mod","200","311292","0.0-200.0","73603","","","","","","triplet","1470.199999999255","","","","2","stimuli/stim003_animate_fish_3.png","stimuli/stim007_animate_bird_3.png","stimuli/stim018_inanimate_tree_2.png","193"
"html-button-response-mod","201","312659","0.0-201.0","73603","","","","","","triplet","855.7999999988824","","","","1","stimuli/stim012_animate_face_4.png","stimuli/fish_uppercase.png","stimuli/stim001_animate_fish_1.png","194"
"html-button-response-mod","202","314275","0.0-202.0","73603","","","","","","triplet","1111.800000000745","","","","0","stimuli/tree_lowercase.png","stimuli/stim022_inanimate_tools_2.png","stimuli/stim004_animate_fish_4.png","195"
"html-button-response-mod","203","316239","0.0-203.0","73603","","","","","","triplet","1454.5999999996275","","","","0","stimuli/stim007_animate_bird_3.png","stimuli/stim014_inanimate_boats_2.png","stimuli/stim013_inanimate_boats_1.png","196"
"html-button-response-mod","204","317658","0.0-204.0","73603","","","","","","triplet","908.5","","","","1","stimuli/bird_uppercase.png","stimuli/stim022_inanimate_tools_2.png","stimuli/face_uppercase.png","197"
"html-button-response-mod","205","319604","0.0-205.0","73603","","","","","","triplet","1431.5999999996275","","","","2","stimuli/face_lowercase.png","stimuli/fish_lowercase.png","stimuli/face_uppercase.png","198"
"html-button-response-mod","206","322599","0.0-206.0","73603","","","","","","triplet","2490","","","","0","stimuli/stim017_inanimate_tree_1.png","stimuli/stim005_animate_bird_1.png","stimuli/stim021_inanimate_tools_1.png","199"
"html-button-response","207","331438","0.0-207.0","73603","","","","","","break","8336.400000000373","<p>BREAK</p><p>Take a break for as long as you need</p><p>Click the button to continue</p>","0","","","","","",""
"html-button-response-mod","208","332481","0.0-208.0","73603","","","","","","triplet","1041.699999999255","","","","0","stimuli/bird_lowercase.png","stimuli/stim017_inanimate_tree_1.png","stimuli/stim006_animate_bird_2.png","200"
"html-button-response-mod","209","333691","0.0-209.0","73603","","","","","","triplet","707.9000000003725","","","","1","stimuli/tree_uppercase.png","stimuli/stim012_animate_face_4.png","stimuli/boats_uppercase.png","201"
"html-button-response-mod","210","334977","0.0-210.0","73603","","","","","","triplet","774.1999999992549","","","","1","stimuli/stim022_inanimate_tools_2.png","stimuli/face_lowercase.png","stimuli/stim005_animate_bird_1.png","202"
"html-button-response-mod","211","336177","0.0-211.0","73603","","","","","","triplet","687.5","","","","2","stimuli/face_uppercase.png","stimuli/boats_lowercase.png","stimuli/stim005_animate_bird_1.png","203"
"html-button-response-mod","212","337568","0.0-212.0","73603","","","","","","triplet","882.1999999992549","","","","0","stimuli/stim018_inanimate_tree_2.png","stimuli/tree_uppercase.png","stimuli/face_uppercase.png","204"
"html-button-response-mod","213","339131","0.0-213.0","73603","","","","","","triplet","1058.4000000003725","","","","0","stimuli/stim015_inanimate_boats_3.png","stimuli/stim002_animate_fish_2.png","stimuli/stim003_animate_fish_3.png","205"
"html-button-response-mod","214","340580","0.0-214.0","73603","","","","","","triplet","940.4000000003725","","","","0","stimuli/stim017_inanimate_tree_1.png","stimuli/boats_lowercase.png","stimuli/tools_lowercase.png","206"
"html-button-response-mod","215","342338","0.0-215.0","73603","","","","","","triplet","1246.5","","","","0","stimuli/stim024_inanimate_tools_4.png","stimuli/stim004_animate_fish_4.png","stimuli/stim009_animate_face_1.png","207"
"html-button-response-mod","216","344203","0.0-216.0","73603","","","","","","triplet","1358.9000000003725","","","","1","stimuli/stim016_inanimate_boats_4.png","stimuli/stim018_inanimate_tree_2.png","stimuli/stim022_inanimate_tools_2.png","208"
"html-button-response-mod","217","345860","0.0-217.0","73603","","","","","","triplet","1141.0999999996275","","","","2","stimuli/stim018_inanimate_tree_2.png","stimuli/stim020_inanimate_tree_4.png","stimuli/stim005_animate_bird_1.png","209"
"html-button-response-mod","218","348182","0.0-218.0","73603","","","","","","triplet","1812.0999999996275","","","","1","stimuli/stim012_animate_face_4.png","stimuli/stim004_animate_fish_4.png","stimuli/stim021_inanimate_tools_1.png","210"
"html-button-response-mod","219","349842","0.0-219.0","73603","","","","","","triplet","1153.5","","","","0","stimuli/boats_lowercase.png","stimuli/stim002_animate_fish_2.png","stimuli/stim012_animate_face_4.png","211"
"html-button-response-mod","220","350972","0.0-220.0","73603","","","","","","triplet","620.5999999996275","","","","1","stimuli/stim018_inanimate_tree_2.png","stimuli/bird_lowercase.png","stimuli/stim006_animate_bird_2.png","212"
"html-button-response-mod","221","352068","0.0-221.0","73603","","","","","","triplet","582.7000000011176","","","","2","stimuli/stim012_animate_face_4.png","stimuli/stim015_inanimate_boats_3.png","stimuli/boats_lowercase.png","213"
"html-button-response-mod","222","353194","0.0-222.0","73603","","","","","","triplet","617.0999999996275","","","","2","stimuli/stim008_animate_bird_4.png","stimuli/stim018_inanimate_tree_2.png","stimuli/tools_lowercase.png","214"
"html-button-response-mod","223","354393","0.0-223.0","73603","","","","","","triplet","680.7999999988824","","","","2","stimuli/stim002_animate_fish_2.png","stimuli/stim015_inanimate_boats_3.png","stimuli/fish_lowercase.png","215"
"html-button-response-mod","224","355414","0.0-224.0","73603","","","","","","triplet","511","","","","2","stimuli/stim024_inanimate_tools_4.png","stimuli/stim002_animate_fish_2.png","stimuli/tools_uppercase.png","216"
"html-button-response-mod","225","356511","0.0-225.0","73603","","","","","","triplet","586.7999999988824","","","","0","stimuli/bird_lowercase.png","stimuli/stim014_inanimate_boats_2.png","stimuli/stim001_animate_fish_1.png","217"
"html-button-response-mod","226","357632","0.0-226.0","73603","","","","","","triplet","617.1000000014901","","","","0","stimuli/tree_uppercase.png","stimuli/stim019_inanimate_tree_3.png","stimuli/stim004_animate_fish_4.png","218"
"html-button-response-mod","227","359598","0.0-227.0","73603","","","","","","triplet","1454.699999999255","","","","2","stimuli/stim007_animate_bird_3.png","stimuli/stim003_animate_fish_3.png","stimuli/stim020_inanimate_tree_4.png","219"
"html-button-response-mod","228","361011","0.0-228.0","73603","","","","","","triplet","906","","","","0","stimuli/stim018_inanimate_tree_2.png","stimuli/tools_uppercase.png","stimuli/tools_lowercase.png","220"
"html-button-response-mod","229","362302","0.0-229.0","73603","","","","","","triplet","788","","","","2","stimuli/stim013_inanimate_boats_1.png","stimuli/stim014_inanimate_boats_2.png","stimuli/stim005_animate_bird_1.png","221"
"html-button-response-mod","230","363658","0.0-230.0","73603","","","","","","triplet","849.1999999992549","","","","1","stimuli/stim012_animate_face_4.png","stimuli/face_lowercase.png","stimuli/stim017_inanimate_tree_1.png","222"
"html-button-response-mod","231","365398","0.0-231.0","73603","","","","","","triplet","1228.5999999996275","","","","1","stimuli/stim001_animate_fish_1.png","stimuli/stim009_animate_face_1.png","stimuli/stim006_animate_bird_2.png","223"
"html-button-response-mod","232","366598","0.0-232.0","73603","","","","","","triplet","696","","","","0","stimuli/boats_uppercase.png","stimuli/stim005_animate_bird_1.png","stimuli/stim024_inanimate_tools_4.png","224"
"html-button-response-mod","233","369598","0.0-233.0","73603","","","","","","triplet","2488.800000000745","","","","2","stimuli/stim010_animate_face_2.png","stimuli/stim007_animate_bird_3.png","stimuli/stim014_inanimate_boats_2.png","225"
"html-button-response-mod","234","370708","0.0-234.0","73603","","","","","","triplet","605.2999999988824","","","","2","stimuli/stim005_animate_bird_1.png","stimuli/stim004_animate_fish_4.png","stimuli/fish_uppercase.png","226"
"html-button-response-mod","235","372039","0.0-235.0","73603","","","","","","triplet","815.8000000007451","","","","1","stimuli/face_uppercase.png","stimuli/stim019_inanimate_tree_3.png","stimuli/tree_uppercase.png","227"
"html-button-response-mod","236","374619","0.0-236.0","73603","","","","","","triplet","2070.800000000745","","","","1","stimuli/stim008_animate_bird_4.png","stimuli/stim014_inanimate_boats_2.png","stimuli/stim012_animate_face_4.png","228"
"html-button-response-mod","237","376626","0.0-237.0","73603","","","","","","triplet","1493.800000000745","","","","0","stimuli/stim018_inanimate_tree_2.png","stimuli/stim024_inanimate_tools_4.png","stimuli/stim011_animate_face_3.png","229"
"html-button-response-mod","238","378267","0.0-238.0","73603","","","","","","triplet","1129.2999999988824","","","","0","stimuli/stim011_animate_face_3.png","stimuli/stim001_animate_fish_1.png","stimuli/stim003_animate_fish_3.png","230"
"html-button-response-mod","239","380064","0.0-239.0","73603","","","","","","triplet","1281.7999999988824","","","","0","stimuli/tree_uppercase.png","stimuli/bird_lowercase.png","stimuli/boats_lowercase.png","231"
"html-button-response-mod","240","381673","0.0-240.0","73603","","","","","","triplet","1099.300000000745","","","","2","stimuli/tools_lowercase.png","stimuli/fish_uppercase.png","stimuli/stim017_inanimate_tree_1.png","232"
"html-button-response-mod","241","382981","0.0-241.0","73603","","","","","","triplet","798.6999999992549","","","","2","stimuli/stim006_animate_bird_2.png","stimuli/stim012_animate_face_4.png","stimuli/face_uppercase.png","233"
"html-button-response-mod","242","384389","0.0-242.0","73603","","","","","","triplet","895.0999999996275","","","","2","stimuli/stim022_inanimate_tools_2.png","stimuli/stim021_inanimate_tools_1.png","stimuli/stim010_animate_face_2.png","234"
"html-button-response-mod","243","386435","0.0-243.0","73603","","","","","","triplet","1532.300000000745","","","","0","stimuli/stim015_inanimate_boats_3.png","stimuli/stim009_animate_face_1.png","stimuli/stim008_animate_bird_4.png","235"
"html-button-response-mod","244","388366","0.0-244.0","73603","","","","","","triplet","1418.0999999996275","","","","0","stimuli/stim013_inanimate_boats_1.png","stimuli/stim008_animate_bird_4.png","stimuli/stim020_inanimate_tree_4.png","236"
"html-button-response-mod","245","389554","0.0-245.0","73603","","","","","","triplet","682.9000000003725","","","","2","stimuli/stim014_inanimate_boats_2.png","stimuli/stim008_animate_bird_4.png","stimuli/tree_lowercase.png","237"
"html-button-response-mod","246","391474","0.0-246.0","73603","","","","","","triplet","1414.7000000011176","","","","0","stimuli/stim021_inanimate_tools_1.png","stimuli/stim020_inanimate_tree_4.png","stimuli/stim012_animate_face_4.png","238"
"html-button-response-mod","247","392947","0.0-247.0","73603","","","","","","triplet","963.1999999992549","","","","0","stimuli/stim006_animate_bird_2.png","stimuli/fish_uppercase.png","stimuli/bird_uppercase.png","239"
"html-button-response-mod","248","394696","0.0-248.0","73603","","","","","","triplet","1237.3999999985099","","","","1","stimuli/stim019_inanimate_tree_3.png","stimuli/tree_lowercase.png","stimuli/stim006_animate_bird_2.png","240"
"html-button-response-mod","249","395761","0.0-249.0","73603","","","","","","triplet","556.7999999988824","","","","2","stimuli/stim008_animate_bird_4.png","stimuli/stim022_inanimate_tools_2.png","stimuli/bird_uppercase.png","241"
"html-button-response-mod","250","396912","0.0-250.0","73603","","","","","","triplet","640.7000000011176","","","","1","stimuli/stim023_inanimate_tools_3.png","stimuli/face_uppercase.png","stimuli/stim021_inanimate_tools_1.png","242"
"html-button-response-mod","251","398014","0.0-251.0","73603","","","","","","triplet","595.5","","","","1","stimuli/stim015_inanimate_boats_3.png","stimuli/fish_lowercase.png","stimuli/stim006_animate_bird_2.png","243"
"html-button-response-mod","252","399282","0.0-252.0","73603","","","","","","triplet","758.3000000007451","","","","0","stimuli/stim010_animate_face_2.png","stimuli/tools_lowercase.png","stimuli/face_lowercase.png","244"
"html-button-response-mod","253","400480","0.0-253.0","73603","","","","","","triplet","691.8000000007451","","","","1","stimuli/tree_uppercase.png","stimuli/stim009_animate_face_1.png","stimuli/tools_lowercase.png","245"
"html-button-response-mod","254","401942","0.0-254.0","73603","","","","","","triplet","952.4000000003725","","","","2","stimuli/stim024_inanimate_tools_4.png","stimuli/stim018_inanimate_tree_2.png","stimuli/face_lowercase.png","246"
"html-button-response-mod","255","403192","0.0-255.0","73603","","","","","","triplet","744.0999999996275","","","","0","stimuli/boats_uppercase.png","stimuli/stim004_animate_fish_4.png","stimuli/stim021_inanimate_tools_1.png","247"
"html-button-response-mod","256","406401","0.0-256.0","73603","","","","","","triplet","2697.199999999255","","","","2","stimuli/stim017_inanimate_tree_1.png","stimuli/stim015_inanimate_boats_3.png","stimuli/stim024_inanimate_tools_4.png","248"
"html-button-response-mod","257","407726","0.0-257.0","73603","","","","","","triplet","806.4000000003725","","","","1","stimuli/bird_lowercase.png","stimuli/stim004_animate_fish_4.png","stimuli/fish_lowercase.png","249"
"html-button-response","258","409052","0.0-258.0","73603","","","","","","break","811.1999999992549","<p>BREAK</p><p>Take a break for as long as you need</p><p>Click the button to continue</p>","0","","","","","",""
"html-button-response-mod","259","409833","0.0-259.0","73603","","","","","","triplet","778.6999999992549","","","","0","stimuli/stim010_animate_face_2.png","stimuli/tree_lowercase.png","stimuli/bird_uppercase.png","250"
"html-button-response-mod","260","411313","0.0-260.0","73603","","","","","","triplet","975","","","","0","stimuli/bird_lowercase.png","stimuli/stim018_inanimate_tree_2.png","stimuli/stim002_animate_fish_2.png","251"
"html-button-response-mod","261","413496","0.0-261.0","73603","","","","","","triplet","1672.4000000003725","","","","1","stimuli/stim009_animate_face_1.png","stimuli/stim017_inanimate_tree_1.png","stimuli/stim003_animate_fish_3.png","252"
"html-button-response-mod","262","414867","0.0-262.0","73603","","","","","","triplet","854.7999999988824","","","","0","stimuli/tools_uppercase.png","stimuli/stim007_animate_bird_3.png","stimuli/stim022_inanimate_tools_2.png","253"
"html-button-response-mod","263","416201","0.0-263.0","73603","","","","","","triplet","828.0999999996275","","","","0","stimuli/stim006_animate_bird_2.png","stimuli/fish_lowercase.png","stimuli/boats_lowercase.png","254"
"html-button-response-mod","264","418471","0.0-264.0","73603","","","","","","triplet","1760.1000000014901","","","","1","stimuli/stim017_inanimate_tree_1.png","stimuli/tree_uppercase.png","stimuli/stim003_animate_fish_3.png","255"
"html-button-response-mod","265","419593","0.0-265.0","73603","","","","","","triplet","607","","","","1","stimuli/stim017_inanimate_tree_1.png","stimuli/tree_lowercase.png","stimuli/stim013_inanimate_boats_1.png","256"
"html-button-response-mod","266","421173","0.0-266.0","73603","","","","","","triplet","1072.800000000745","","","","2","stimuli/stim015_inanimate_boats_3.png","stimuli/stim014_inanimate_boats_2.png","stimuli/stim010_animate_face_2.png","257"
"html-button-response-mod","267","422831","0.0-267.0","73603","","","","","","triplet","1142.5999999996275","","","","0","stimuli/stim019_inanimate_tree_3.png","stimuli/stim013_inanimate_boats_1.png","stimuli/stim012_animate_face_4.png","258"
"html-button-response-mod","268","424685","0.0-268.0","73603","","","","","","triplet","1344.800000000745","","","","1","stimuli/face_lowercase.png","stimuli/stim015_inanimate_boats_3.png","stimuli/bird_uppercase.png","259"
"html-button-response-mod","269","426011","0.0-269.0","73603","","","","","","triplet","817.3000000007451","","","","1","stimuli/stim002_animate_fish_2.png","stimuli/tools_uppercase.png","stimuli/stim016_inanimate_boats_4.png","260"
"html-button-response-mod","270","430379","0.0-270.0","73603","","","","","","triplet","3860.9000000003725","","","","0","stimuli/stim018_inanimate_tree_2.png","stimuli/stim020_inanimate_tree_4.png","stimuli/stim019_inanimate_tree_3.png","261"
"html-button-response-mod","271","431882","0.0-271.0","73603","","","","","","triplet","985.1999999992549","","","","0","stimuli/tree_uppercase.png","stimuli/stim020_inanimate_tree_4.png","stimuli/stim003_animate_fish_3.png","262"
"html-button-response-mod","272","433241","0.0-272.0","73603","","","","","","triplet","853.4000000003725","","","","1","stimuli/stim013_inanimate_boats_1.png","stimuli/tree_lowercase.png","stimuli/stim004_animate_fish_4.png","263"
"html-button-response-mod","273","434524","0.0-273.0","73603","","","","","","triplet","769.3000000007451","","","","2","stimuli/face_lowercase.png","stimuli/tools_lowercase.png","stimuli/stim013_inanimate_boats_1.png","264"
"html-button-response-mod","274","437812","0.0-274.0","73603","","","","","","triplet","2777.4000000003725","","","","2","stimuli/fish_uppercase.png","stimuli/face_uppercase.png","stimuli/tools_uppercase.png","265"
"html-button-response-mod","275","439411","0.0-275.0","73603","","","","","","triplet","1094.300000000745","","","","1","stimuli/fish_lowercase.png","stimuli/stim010_animate_face_2.png","stimuli/bird_lowercase.png","266"
"html-button-response-mod","276","441410","0.0-276.0","73603","","","","","","triplet","1483.0999999996275","","","","0","stimuli/fish_lowercase.png","stimuli/stim006_animate_bird_2.png","stimuli/stim002_animate_fish_2.png","267"
"html-button-response-mod","277","442647","0.0-277.0","73603","","","","","","triplet","733.5999999996275","","","","1","stimuli/stim003_animate_fish_3.png","stimuli/boats_uppercase.png","stimuli/stim010_animate_face_2.png","268"
"html-button-response-mod","278","443956","0.0-278.0","73603","","","","","","triplet","797.2000000011176","","","","0","stimuli/stim006_animate_bird_2.png","stimuli/bird_lowercase.png","stimuli/face_lowercase.png","269"
"html-button-response-mod","279","445347","0.0-279.0","73603","","","","","","triplet","880.0999999996275","","","","2","stimuli/stim003_animate_fish_3.png","stimuli/stim016_inanimate_boats_4.png","stimuli/boats_lowercase.png","270"
"html-button-response-mod","280","446701","0.0-280.0","73603","","","","","","triplet","851.2999999988824","","","","2","stimuli/stim019_inanimate_tree_3.png","stimuli/stim004_animate_fish_4.png","stimuli/fish_uppercase.png","271"
"html-button-response-mod","281","447832","0.0-281.0","73603","","","","","","triplet","623.4000000003725","","","","1","stimuli/stim020_inanimate_tree_4.png","stimuli/face_uppercase.png","stimuli/stim021_inanimate_tools_1.png","272"
"html-button-response-mod","282","451979","0.0-282.0","73603","","","","","","triplet","3641.800000000745","","","","0","stimuli/stim024_inanimate_tools_4.png","stimuli/stim010_animate_face_2.png","stimuli/stim020_inanimate_tree_4.png","273"
"html-button-response-mod","283","453627","0.0-283.0","73603","","","","","","triplet","1139.5999999996275","","","","2","stimuli/stim011_animate_face_3.png","stimuli/stim001_animate_fish_1.png","stimuli/stim021_inanimate_tools_1.png","274"
"html-button-response-mod","284","455107","0.0-284.0","73603","","","","","","triplet","976.9000000003725","","","","1","stimuli/stim016_inanimate_boats_4.png","stimuli/boats_uppercase.png","stimuli/stim024_inanimate_tools_4.png","275"
"html-button-response-mod","285","456499","0.0-285.0","73603","","","","","","triplet","875.3000000007451","","","","0","stimuli/stim002_animate_fish_2.png","stimuli/tree_uppercase.png","stimuli/tools_lowercase.png","276"
"html-button-response-mod","286","457602","0.0-286.0","73603","","","","","","triplet","589.2000000011176","","","","2","stimuli/boats_uppercase.png","stimuli/bird_uppercase.png","stimuli/stim019_inanimate_tree_3.png","277"
"html-button-response-mod","287","458880","0.0-287.0","73603","","","","","","triplet","771.8000000007451","","","","1","stimuli/stim022_inanimate_tools_2.png","stimuli/face_lowercase.png","stimuli/stim023_inanimate_tools_3.png","278"
"html-button-response-mod","288","460380","0.0-288.0","73603","","","","","","triplet","988.0999999996275","","","","2","stimuli/fish_lowercase.png","stimuli/bird_uppercase.png","stimuli/stim023_inanimate_tools_3.png","279"
"html-button-response-mod","289","461843","0.0-289.0","73603","","","","","","triplet","955.5","","","","1","stimuli/stim006_animate_bird_2.png","stimuli/bird_lowercase.png","stimuli/stim010_animate_face_2.png","280"
"html-button-response-mod","290","463788","0.0-290.0","73603","","","","","","triplet","1429.2000000011176","","","","0","stimuli/stim009_animate_face_1.png","stimuli/stim017_inanimate_tree_1.png","stimuli/stim005_animate_bird_1.png","281"
"html-button-response-mod","291","465362","0.0-291.0","73603","","","","","","triplet","1062.5999999996275","","","","0","stimuli/stim020_inanimate_tree_4.png","stimuli/stim008_animate_bird_4.png","stimuli/stim007_animate_bird_3.png","282"
"html-button-response-mod","292","466651","0.0-292.0","73603","","","","","","triplet","780.2999999988824","","","","0","stimuli/tree_uppercase.png","stimuli/stim011_animate_face_3.png","stimuli/stim013_inanimate_boats_1.png","283"
"html-button-response-mod","293","467779","0.0-293.0","73603","","","","","","triplet","616.9000000003725","","","","2","stimuli/boats_lowercase.png","stimuli/boats_uppercase.png","stimuli/stim018_inanimate_tree_2.png","284"
"html-button-response-mod","294","469309","0.0-294.0","73603","","","","","","triplet","1019.5","","","","0","stimuli/stim014_inanimate_boats_2.png","stimuli/stim017_inanimate_tree_1.png","stimuli/stim020_inanimate_tree_4.png","285"
"html-button-response-mod","295","471015","0.0-295.0","73603","","","","","","triplet","1197.300000000745","","","","0","stimuli/stim020_inanimate_tree_4.png","stimuli/stim011_animate_face_3.png","stimuli/stim016_inanimate_boats_4.png","286"
"html-button-response-mod","296","472393","0.0-296.0","73603","","","","","","triplet","870.4000000003725","","","","0","stimuli/boats_lowercase.png","stimuli/stim016_inanimate_boats_4.png","stimuli/stim022_inanimate_tools_2.png","287"
"html-button-response-mod","297","474134","0.0-297.0","73603","","","","","","triplet","1238.5","","","","0","stimuli/stim023_inanimate_tools_3.png","stimuli/stim012_animate_face_4.png","stimuli/stim019_inanimate_tree_3.png","288"
"html-button-response-mod","298","475594","0.0-298.0","73603","","","","","","triplet","955.3999999985099","","","","0","stimuli/stim012_animate_face_4.png","stimuli/tree_lowercase.png","stimuli/boats_uppercase.png","289"
"html-button-response-mod","299","477091","0.0-299.0","73603","","","","","","triplet","986.1999999992549","","","","0","stimuli/face_uppercase.png","stimuli/stim011_animate_face_3.png","stimuli/stim022_inanimate_tools_2.png","290"
"html-button-response-mod","300","478398","0.0-300.0","73603","","","","","","triplet","791.8000000007451","","","","1","stimuli/stim012_animate_face_4.png","stimuli/fish_uppercase.png","stimuli/stim014_inanimate_boats_2.png","291"
"html-button-response-mod","301","479515","0.0-301.0","73603","","","","","","triplet","610","","","","1","stimuli/stim007_animate_bird_3.png","stimuli/bird_uppercase.png","stimuli/stim022_inanimate_tools_2.png","292"
"html-button-response-mod","302","481225","0.0-302.0","73603","","","","","","triplet","1198.800000000745","","","","2","stimuli/stim020_inanimate_tree_4.png","stimuli/stim014_inanimate_boats_2.png","stimuli/stim024_inanimate_tools_4.png","293"
"html-button-response-mod","303","482496","0.0-303.0","73603","","","","","","triplet","759.2000000011176","","","","1","stimuli/stim003_animate_fish_3.png","stimuli/face_uppercase.png","stimuli/stim009_animate_face_1.png","294"
"html-button-response-mod","304","483886","0.0-304.0","73603","","","","","","triplet","872.4000000003725","","","","1","stimuli/face_lowercase.png","stimuli/stim023_inanimate_tools_3.png","stimuli/boats_lowercase.png","295"
"html-button-response-mod","305","484992","0.0-305.0","73603","","","","","","triplet","591.2999999988824","","","","2","stimuli/stim011_animate_face_3.png","stimuli/stim012_animate_face_4.png","stimuli/bird_lowercase.png","296"
"html-button-response-mod","306","486346","0.0-306.0","73603","","","","","","triplet","846","","","","0","stimuli/tree_uppercase.png","stimuli/stim011_animate_face_3.png","stimuli/stim024_inanimate_tools_4.png","297"
"html-button-response-mod","307","488105","0.0-307.0","73603","","","","","","triplet","1254.0999999996275","","","","0","stimuli/stim019_inanimate_tree_3.png","stimuli/stim001_animate_fish_1.png","stimuli/stim003_animate_fish_3.png","298"
"html-button-response-mod","308","490195","0.0-308.0","73603","","","","","","triplet","1584.5","","","","1","stimuli/stim010_animate_face_2.png","stimuli/stim002_animate_fish_2.png","stimuli/stim014_inanimate_boats_2.png","299"
"html-button-response","309","497223","0.0-309.0","73603","","","","","","break","6519.89999999851","<p>BREAK</p><p>Take a break for as long as you need</p><p>Click the button to continue</p>","0","","","","","",""
"html-button-response-mod","310","497962","0.0-310.0","73603","","","","","","triplet","737.6999999992549","","","","2","stimuli/stim008_animate_bird_4.png","stimuli/stim014_inanimate_boats_2.png","stimuli/fish_lowercase.png","300"
"html-button-response-mod","311","499476","0.0-311.0","73603","","","","","","triplet","1006.6999999992549","","","","2","stimuli/face_uppercase.png","stimuli/bird_uppercase.png","stimuli/stim013_inanimate_boats_1.png","301"
"html-button-response-mod","312","501756","0.0-312.0","73603","","","","","","triplet","1763.9000000003725","","","","2","stimuli/stim012_animate_face_4.png","stimuli/stim021_inanimate_tools_1.png","stimuli/stim013_inanimate_boats_1.png","302"
"html-button-response-mod","313","503296","0.0-313.0","73603","","","","","","triplet","1027.5999999996275","","","","0","stimuli/stim019_inanimate_tree_3.png","stimuli/fish_uppercase.png","stimuli/boats_lowercase.png","303"
"html-button-response-mod","314","504698","0.0-314.0","73603","","","","","","triplet","893.5","","","","1","stimuli/boats_lowercase.png","stimuli/stim019_inanimate_tree_3.png","stimuli/face_lowercase.png","304"
"html-button-response-mod","315","506353","0.0-315.0","73603","","","","","","triplet","1148.3999999985099","","","","0","stimuli/fish_uppercase.png","stimuli/stim021_inanimate_tools_1.png","stimuli/stim013_inanimate_boats_1.png","305"
"html-button-response-mod","316","507835","0.0-316.0","73603","","","","","","triplet","971.3999999985099","","","","1","stimuli/stim023_inanimate_tools_3.png","stimuli/stim006_animate_bird_2.png","stimuli/stim022_inanimate_tools_2.png","306"
"html-button-response-mod","317","509138","0.0-317.0","73603","","","","","","triplet","793.1999999992549","","","","2","stimuli/stim019_inanimate_tree_3.png","stimuli/stim018_inanimate_tree_2.png","stimuli/stim016_inanimate_boats_4.png","307"
"html-button-response-mod","318","510781","0.0-318.0","73603","","","","","","triplet","1136.0999999996275","","","","2","stimuli/boats_lowercase.png","stimuli/tree_lowercase.png","stimuli/stim015_inanimate_boats_3.png","308"
"html-button-response-mod","319","512517","0.0-319.0","73603","","","","","","triplet","1231.5","","","","1","stimuli/stim013_inanimate_boats_1.png","stimuli/tree_uppercase.png","stimuli/stim012_animate_face_4.png","309"
"html-button-response-mod","320","514272","0.0-320.0","73603","","","","","","triplet","1244.7999999988824","","","","1","stimuli/face_lowercase.png","stimuli/stim017_inanimate_tree_1.png","stimuli/bird_uppercase.png","310"
"html-button-response-mod","321","515953","0.0-321.0","73603","","","","","","triplet","1172.5999999996275","","","","0","stimuli/bird_lowercase.png","stimuli/stim016_inanimate_boats_4.png","stimuli/stim006_animate_bird_2.png","311"
"html-button-response-mod","322","517362","0.0-322.0","73603","","","","","","triplet","905.9000000003725","","","","0","stimuli/bird_lowercase.png","stimuli/stim013_inanimate_boats_1.png","stimuli/stim023_inanimate_tools_3.png","312"
"html-button-response-mod","323","518939","0.0-323.0","73603","","","","","","triplet","1072.5","","","","1","stimuli/stim003_animate_fish_3.png","stimuli/bird_lowercase.png","stimuli/stim014_inanimate_boats_2.png","313"
"html-button-response-mod","324","520307","0.0-324.0","73603","","","","","","triplet","854.6000000014901","","","","1","stimuli/stim007_animate_bird_3.png","stimuli/fish_uppercase.png","stimuli/stim012_animate_face_4.png","314"
"html-button-response-mod","325","521576","0.0-325.0","73603","","","","","","triplet","766.0999999996275","","","","1","stimuli/tree_uppercase.png","stimuli/stim020_inanimate_tree_4.png","stimuli/bird_lowercase.png","315"
"html-button-response-mod","326","524023","0.0-326.0","73603","","","","","","triplet","1931.7000000011176","","","","0","stimuli/stim023_inanimate_tools_3.png","stimuli/stim004_animate_fish_4.png","stimuli/stim016_inanimate_boats_4.png","316"
"html-button-response-mod","327","526109","0.0-327.0","73603","","","","","","triplet","1576.300000000745","","","","1","stimuli/fish_uppercase.png","stimuli/face_lowercase.png","stimuli/tree_uppercase.png","317"
"html-button-response-mod","328","527565","0.0-328.0","73603","","","","","","triplet","937.5","","","","2","stimuli/tools_uppercase.png","stimuli/bird_uppercase.png","stimuli/stim014_inanimate_boats_2.png","318"
"html-button-response-mod","329","529144","0.0-329.0","73603","","","","","","triplet","1072.5999999996275","","","","2","stimuli/stim022_inanimate_tools_2.png","stimuli/stim018_inanimate_tree_2.png","stimuli/fish_lowercase.png","319"
"html-button-response-mod","330","531205","0.0-330.0","73603","","","","","","triplet","1549.800000000745","","","","0","stimuli/stim018_inanimate_tree_2.png","stimuli/stim008_animate_bird_4.png","stimuli/stim004_animate_fish_4.png","320"
"html-button-response-mod","331","532611","0.0-331.0","73603","","","","","","triplet","897.9000000003725","","","","0","stimuli/boats_uppercase.png","stimuli/stim020_inanimate_tree_4.png","stimuli/stim009_animate_face_1.png","321"
"html-button-response-mod","332","534112","0.0-332.0","73603","","","","","","triplet","991","","","","1","stimuli/tree_lowercase.png","stimuli/stim024_inanimate_tools_4.png","stimuli/face_lowercase.png","322"
"html-button-response-mod","333","535676","0.0-333.0","73603","","","","","","triplet","1048.800000000745","","","","2","stimuli/boats_lowercase.png","stimuli/tools_lowercase.png","stimuli/stim010_animate_face_2.png","323"
"html-button-response-mod","334","537513","0.0-334.0","73603","","","","","","triplet","1331.699999999255","","","","0","stimuli/bird_lowercase.png","stimuli/stim015_inanimate_boats_3.png","stimuli/stim011_animate_face_3.png","324"
"html-button-response-mod","335","539464","0.0-335.0","73603","","","","","","triplet","1444.800000000745","","","","0","stimuli/stim015_inanimate_boats_3.png","stimuli/stim004_animate_fish_4.png","stimuli/stim008_animate_bird_4.png","325"
"html-button-response-mod","336","540703","0.0-336.0","73603","","","","","","triplet","735.6999999992549","","","","2","stimuli/stim012_animate_face_4.png","stimuli/stim011_animate_face_3.png","stimuli/tree_lowercase.png","326"
"html-button-response-mod","337","541915","0.0-337.0","73603","","","","","","triplet","707.3000000007451","","","","2","stimuli/stim003_animate_fish_3.png","stimuli/stim022_inanimate_tools_2.png","stimuli/fish_lowercase.png","327"
"html-button-response-mod","338","543299","0.0-338.0","73603","","","","","","triplet","869.5","","","","1","stimuli/stim017_inanimate_tree_1.png","stimuli/face_uppercase.png","stimuli/stim013_inanimate_boats_1.png","328"
"html-button-response-mod","339","546327","0.0-339.0","73603","","","","","","triplet","2520.699999999255","","","","0","stimuli/stim009_animate_face_1.png","stimuli/stim014_inanimate_boats_2.png","stimuli/stim024_inanimate_tools_4.png","329"
"html-button-response-mod","340","548450","0.0-340.0","73603","","","","","","triplet","1607.699999999255","","","","2","stimuli/stim008_animate_bird_4.png","stimuli/stim012_animate_face_4.png","stimuli/stim015_inanimate_boats_3.png","330"
"html-button-response-mod","341","549584","0.0-341.0","73603","","","","","","triplet","625.7999999988824","","","","2","stimuli/stim005_animate_bird_1.png","stimuli/stim019_inanimate_tree_3.png","stimuli/tree_lowercase.png","331"
"html-button-response-mod","342","551189","0.0-342.0","73603","","","","","","triplet","1094","","","","1","stimuli/stim023_inanimate_tools_3.png","stimuli/stim001_animate_fish_1.png","stimuli/stim024_inanimate_tools_4.png","332"
"html-button-response-mod","343","552540","0.0-343.0","73603","","","","","","triplet","849.5999999996275","","","","2","stimuli/tree_uppercase.png","stimuli/boats_lowercase.png","stimuli/stim010_animate_face_2.png","333"
"html-button-response-mod","344","554040","0.0-344.0","73603","","","","","","triplet","989.7999999988824","","","","0","stimuli/tree_uppercase.png","stimuli/stim005_animate_bird_1.png","stimuli/stim019_inanimate_tree_3.png","334"
"html-button-response-mod","345","555612","0.0-345.0","73603","","","","","","triplet","1063.9000000003725","","","","1","stimuli/tree_lowercase.png","stimuli/stim006_animate_bird_2.png","stimuli/bird_lowercase.png","335"
"html-button-response-mod","346","557661","0.0-346.0","73603","","","","","","triplet","1546.199999999255","","","","1","stimuli/boats_lowercase.png","stimuli/tree_uppercase.png","stimuli/tree_lowercase.png","336"
"html-button-response-mod","347","559354","0.0-347.0","73603","","","","","","triplet","1182.5","","","","2","stimuli/stim016_inanimate_boats_4.png","stimuli/stim006_animate_bird_2.png","stimuli/tree_uppercase.png","337"
"html-button-response-mod","348","561067","0.0-348.0","73603","","","","","","triplet","1201","","","","1","stimuli/face_lowercase.png","stimuli/stim010_animate_face_2.png","stimuli/face_uppercase.png","338"
"html-button-response-mod","349","564102","0.0-349.0","73603","","","","","","triplet","2522.7999999988824","","","","2","stimuli/stim004_animate_fish_4.png","stimuli/stim012_animate_face_4.png","stimuli/stim017_inanimate_tree_1.png","339"
"html-button-response-mod","350","565434","0.0-350.0","73603","","","","","","triplet","815.5999999996275","","","","1","stimuli/stim002_animate_fish_2.png","stimuli/face_uppercase.png","stimuli/stim011_animate_face_3.png","340"
"html-button-response-mod","351","566793","0.0-351.0","73603","","","","","","triplet","854.0999999996275","","","","1","stimuli/stim004_animate_fish_4.png","stimuli/fish_lowercase.png","stimuli/stim020_inanimate_tree_4.png","341"
"html-button-response-mod","352","568690","0.0-352.0","73603","","","","","","triplet","1386.5","","","","1","stimuli/face_lowercase.png","stimuli/stim011_animate_face_3.png","stimuli/tree_uppercase.png","342"
"html-button-response-mod","353","570542","0.0-353.0","73603","","","","","","triplet","1346.800000000745","","","","2","stimuli/stim018_inanimate_tree_2.png","stimuli/stim017_inanimate_tree_1.png","stimuli/stim010_animate_face_2.png","343"
"html-button-response-mod","354","572300","0.0-354.0","73603","","","","","","triplet","1250.7999999988824","","","","0","stimuli/fish_lowercase.png","stimuli/stim016_inanimate_boats_4.png","stimuli/stim022_inanimate_tools_2.png","344"
"html-button-response-mod","355","573576","0.0-355.0","73603","","","","","","triplet","763.2000000011176","","","","0","stimuli/fish_lowercase.png","stimuli/stim015_inanimate_boats_3.png","stimuli/stim020_inanimate_tree_4.png","345"
"html-button-response-mod","356","575386","0.0-356.0","73603","","","","","","triplet","1304.5","","","","0","stimuli/stim005_animate_bird_1.png","stimuli/bird_lowercase.png","stimuli/tree_lowercase.png","346"
"html-button-response-mod","357","576732","0.0-357.0","73603","","","","","","triplet","835","","","","2","stimuli/stim019_inanimate_tree_3.png","stimuli/stim013_inanimate_boats_1.png","stimuli/tree_lowercase.png","347"
"html-button-response-mod","358","578035","0.0-358.0","73603","","","","","","triplet","796.5","","","","1","stimuli/stim014_inanimate_boats_2.png","stimuli/boats_lowercase.png","stimuli/stim003_animate_fish_3.png","348"
"html-button-response-mod","359","579136","0.0-359.0","73603","","","","","","triplet","588.9000000003725","","","","1","stimuli/stim017_inanimate_tree_1.png","stimuli/tree_lowercase.png","stimuli/stim018_inanimate_tree_2.png","349"
"html-button-response","360","580521","0.0-360.0","73603","","","","","","break","877","<p>BREAK</p><p>Take a break for as long as you need</p><p>Click the button to continue</p>","0","","","","","",""
"html-button-response-mod","361","581651","0.0-361.0","73603","","","","","","triplet","1128.5","","","","0","stimuli/stim019_inanimate_tree_3.png","stimuli/stim003_animate_fish_3.png","stimuli/stim002_animate_fish_2.png","350"
"html-button-response-mod","362","583098","0.0-362.0","73603","","","","","","triplet","934.6999999992549","","","","1","stimuli/stim009_animate_face_1.png","stimuli/bird_uppercase.png","stimuli/stim006_animate_bird_2.png","351"
"html-button-response-mod","363","584301","0.0-363.0","73603","","","","","","triplet","694.6999999992549","","","","2","stimuli/stim007_animate_bird_3.png","stimuli/stim013_inanimate_boats_1.png","stimuli/bird_lowercase.png","352"
"html-button-response-mod","364","585906","0.0-364.0","73603","","","","","","triplet","1088.2999999988824","","","","2","stimuli/stim016_inanimate_boats_4.png","stimuli/stim015_inanimate_boats_3.png","stimuli/stim010_animate_face_2.png","353"
"html-button-response-mod","365","587832","0.0-365.0","73603","","","","","","triplet","1412.800000000745","","","","2","stimuli/stim012_animate_face_4.png","stimuli/stim010_animate_face_2.png","stimuli/stim023_inanimate_tools_3.png","354"
"html-button-response-mod","366","589173","0.0-366.0","73603","","","","","","triplet","828.5999999996275","","","","1","stimuli/stim023_inanimate_tools_3.png","stimuli/bird_lowercase.png","stimuli/stim010_animate_face_2.png","355"
"html-button-response-mod","367","590626","0.0-367.0","73603","","","","","","triplet","946.5","","","","0","stimuli/tools_uppercase.png","stimuli/stim022_inanimate_tools_2.png","stimuli/stim013_inanimate_boats_1.png","356"
"html-button-response-mod","368","592016","0.0-368.0","73603","","","","","","triplet","885.4000000003725","","","","0","stimuli/stim018_inanimate_tree_2.png","stimuli/face_lowercase.png","stimuli/tree_uppercase.png","357"
"html-button-response-mod","369","593205","0.0-369.0","73603","","","","","","triplet","679.0999999996275","","","","2","stimuli/stim006_animate_bird_2.png","stimuli/stim002_animate_fish_2.png","stimuli/boats_uppercase.png","358"
"html-button-response-mod","370","595079","0.0-370.0","73603","","","","","","triplet","1364.300000000745","","","","0","stimuli/stim013_inanimate_boats_1.png","stimuli/stim007_animate_bird_3.png","stimuli/stim001_animate_fish_1.png","359"
"html-button-response-mod","371","596294","0.0-371.0","73603","","","","","","triplet","697.8000000007451","","","","2","stimuli/stim004_animate_fish_4.png","stimuli/stim017_inanimate_tree_1.png","stimuli/tools_lowercase.png","360"
"html-button-response-mod","372","597896","0.0-372.0","73603","","","","","","triplet","1092.2000000011176","","","","0","stimuli/tree_uppercase.png","stimuli/stim023_inanimate_tools_3.png","stimuli/stim016_inanimate_boats_4.png","361"
"html-button-response-mod","373","599118","0.0-373.0","73603","","","","","","triplet","720.3000000007451","","","","0","stimuli/fish_uppercase.png","stimuli/stim023_inanimate_tools_3.png","stimuli/stim006_animate_bird_2.png","362"
"html-button-response-mod","374","600828","0.0-374.0","73603","","","","","","triplet","1199.2000000011176","","","","0","stimuli/stim019_inanimate_tree_3.png","stimuli/stim011_animate_face_3.png","stimuli/stim012_animate_face_4.png","363"
"html-button-response-mod","375","602138","0.0-375.0","73603","","","","","","triplet","791.3000000007451","","","","2","stimuli/stim014_inanimate_boats_2.png","stimuli/stim015_inanimate_boats_3.png","stimuli/face_lowercase.png","364"
"html-button-response-mod","376","603448","0.0-376.0","73603","","","","","","triplet","798.8000000007451","","","","2","stimuli/tree_uppercase.png","stimuli/bird_uppercase.png","stimuli/stim011_animate_face_3.png","365"
"html-button-response-mod","377","604839","0.0-377.0","73603","","","","","","triplet","879.3000000007451","","","","0","stimuli/tree_lowercase.png","stimuli/stim009_animate_face_1.png","stimuli/stim023_inanimate_tools_3.png","366"
"html-button-response-mod","378","606463","0.0-378.0","73603","","","","","","triplet","1119.6000000014901","","","","0","stimuli/stim016_inanimate_boats_4.png","stimuli/tools_lowercase.png","stimuli/fish_uppercase.png","367"
"html-button-response-mod","379","608222","0.0-379.0","73603","","","","","","triplet","1249.4000000003725","","","","1","stimuli/stim024_inanimate_tools_4.png","stimuli/tools_uppercase.png","stimuli/stim004_animate_fish_4.png","368"
"html-button-response-mod","380","609349","0.0-380.0","73603","","","","","","triplet","616.9000000003725","","","","1","stimuli/stim022_inanimate_tools_2.png","stimuli/bird_lowercase.png","stimuli/stim017_inanimate_tree_1.png","369"
"html-button-response-mod","381","610471","0.0-381.0","73603","","","","","","triplet","610.7999999988824","","","","2","stimuli/stim003_animate_fish_3.png","stimuli/stim023_inanimate_tools_3.png","stimuli/boats_lowercase.png","370"
"html-button-response-mod","382","611900","0.0-382.0","73603","","","","","","triplet","924.4000000003725","","","","2","stimuli/fish_uppercase.png","stimuli/face_uppercase.png","stimuli/stim008_animate_bird_4.png","371"
"html-button-response-mod","383","613941","0.0-383.0","73603","","","","","","triplet","1535.300000000745","","","","2","stimuli/stim001_animate_fish_1.png","stimuli/stim010_animate_face_2.png","stimuli/stim024_inanimate_tools_4.png","372"
"html-button-response-mod","384","615118","0.0-384.0","73603","","","","","","triplet","671.7000000011176","","","","1","stimuli/stim001_animate_fish_1.png","stimuli/tree_uppercase.png","stimuli/stim014_inanimate_boats_2.png","373"
"html-button-response-mod","385","616483","0.0-385.0","73603","","","","","","triplet","851.4000000003725","","","","0","stimuli/tree_uppercase.png","stimuli/stim002_animate_fish_2.png","stimuli/stim013_inanimate_boats_1.png","374"
"html-button-response-mod","386","617696","0.0-386.0","73603","","","","","","triplet","710.2999999988824","","","","0","stimuli/fish_uppercase.png","stimuli/stim007_animate_bird_3.png","stimuli/stim006_animate_bird_2.png","375"
"html-button-response-mod","387","619338","0.0-387.0","73603","","","","","","triplet","1134","","","","0","stimuli/stim015_inanimate_boats_3.png","stimuli/tree_lowercase.png","stimuli/boats_uppercase.png","376"
"html-button-response-mod","388","621794","0.0-388.0","73603","","","","","","triplet","1948.3999999985099","","","","0","stimuli/stim009_animate_face_1.png","stimuli/stim013_inanimate_boats_1.png","stimuli/stim021_inanimate_tools_1.png","377"
"html-button-response-mod","389","623833","0.0-389.0","73603","","","","","","triplet","1533.300000000745","","","","0","stimuli/stim009_animate_face_1.png","stimuli/stim016_inanimate_boats_4.png","stimuli/stim024_inanimate_tools_4.png","378"
"html-button-response-mod","390","625201","0.0-390.0","73603","","","","","","triplet","860.7000000011176","","","","1","stimuli/tree_lowercase.png","stimuli/stim005_animate_bird_1.png","stimuli/boats_lowercase.png","379"
"html-button-response-mod","391","627241","0.0-391.0","73603","","","","","","triplet","1532.1000000014901","","","","0","stimuli/boats_uppercase.png","stimuli/stim001_animate_fish_1.png","stimuli/stim013_inanimate_boats_1.png","380"
"html-button-response-mod","392","629028","0.0-392.0","73603","","","","","","triplet","1276.6000000014901","","","","1","stimuli/stim005_animate_bird_1.png","stimuli/stim002_animate_fish_2.png","stimuli/stim008_animate_bird_4.png","381"
"html-button-response-mod","393","630531","0.0-393.0","73603","","","","","","triplet","992.5","","","","0","stimuli/stim022_inanimate_tools_2.png","stimuli/bird_uppercase.png","stimuli/tools_uppercase.png","382"
"html-button-response-mod","394","631749","0.0-394.0","73603","","","","","","triplet","706.5","","","","1","stimuli/face_uppercase.png","stimuli/stim020_inanimate_tree_4.png","stimuli/tree_uppercase.png","383"
"html-button-response-mod","395","633416","0.0-395.0","73603","","","","","","triplet","1149.0999999996275","","","","1","stimuli/stim016_inanimate_boats_4.png","stimuli/stim011_animate_face_3.png","stimuli/stim021_inanimate_tools_1.png","384"
"html-button-response-mod","396","634893","0.0-396.0","73603","","","","","","triplet","974","","","","0","stimuli/tree_uppercase.png","stimuli/stim024_inanimate_tools_4.png","stimuli/stim013_inanimate_boats_1.png","385"
"html-button-response-mod","397","636177","0.0-397.0","73603","","","","","","triplet","768.0999999996275","","","","1","stimuli/stim015_inanimate_boats_3.png","stimuli/fish_lowercase.png","stimuli/stim005_animate_bird_1.png","386"
"html-button-response-mod","398","638190","0.0-398.0","73603","","","","","","triplet","1498.699999999255","","","","2","stimuli/stim011_animate_face_3.png","stimuli/stim003_animate_fish_3.png","stimuli/stim023_inanimate_tools_3.png","387"
"html-button-response-mod","399","639847","0.0-399.0","73603","","","","","","triplet","1148.6000000014901","","","","0","stimuli/stim008_animate_bird_4.png","stimuli/tools_uppercase.png","stimuli/bird_lowercase.png","388"
"html-button-response-mod","400","641100","0.0-400.0","73603","","","","","","triplet","734","","","","2","stimuli/stim018_inanimate_tree_2.png","stimuli/stim017_inanimate_tree_1.png","stimuli/boats_lowercase.png","389"
"html-button-response-mod","401","642295","0.0-401.0","73603","","","","","","triplet","684.6999999992549","","","","1","stimuli/stim003_animate_fish_3.png","stimuli/fish_lowercase.png","stimuli/stim006_animate_bird_2.png","390"
"html-button-response-mod","402","643457","0.0-402.0","73603","","","","","","triplet","655.2999999988824","","","","2","stimuli/stim003_animate_fish_3.png","stimuli/stim024_inanimate_tools_4.png","stimuli/boats_uppercase.png","391"
"html-button-response-mod","403","646533","0.0-403.0","73603","","","","","","triplet","2569.4000000003725","","","","0","stimuli/stim014_inanimate_boats_2.png","stimuli/stim001_animate_fish_1.png","stimuli/stim010_animate_face_2.png","392"
"html-button-response-mod","404","647802","0.0-404.0","73603","","","","","","triplet","752.7999999988824","","","","2","stimuli/boats_lowercase.png","stimuli/bird_uppercase.png","stimuli/stim013_inanimate_boats_1.png","393"
"html-button-response-mod","405","649206","0.0-405.0","73603","","","","","","triplet","894.7999999988824","","","","1","stimuli/stim023_inanimate_tools_3.png","stimuli/fish_uppercase.png","stimuli/stim002_animate_fish_2.png","394"
"html-button-response-mod","406","650394","0.0-406.0","73603","","","","","","triplet","681","","","","1","stimuli/stim005_animate_bird_1.png","stimuli/face_lowercase.png","stimuli/stim015_inanimate_boats_3.png","395"
"html-button-response-mod","407","651633","0.0-407.0","73603","","","","","","triplet","726.3000000007451","","","","0","stimuli/face_uppercase.png","stimuli/stim020_inanimate_tree_4.png","stimuli/stim024_inanimate_tools_4.png","396"
"html-button-response-mod","408","653518","0.0-408.0","73603","","","","","","triplet","1371","","","","1","stimuli/boats_lowercase.png","stimuli/bird_uppercase.png","stimuli/tree_lowercase.png","397"
"html-button-response-mod","409","656561","0.0-409.0","73603","","","","","","triplet","2532.5","","","","1","stimuli/stim004_animate_fish_4.png","stimuli/stim015_inanimate_boats_3.png","stimuli/stim017_inanimate_tree_1.png","398"
"html-button-response-mod","410","657971","0.0-410.0","73603","","","","","","triplet","902.1000000014901","","","","0","stimuli/bird_lowercase.png","stimuli/stim020_inanimate_tree_4.png","stimuli/stim018_inanimate_tree_2.png","399"
"html-button-response","411","707526","0.0-411.0","73603","","","","","","break","49052.09999999963","<p>BREAK</p><p>Take a break for as long as you need</p><p>Click the button to continue</p>","0","","","","","",""
"survey-text","412","990144","0.0-412.0","73603","","","","","","data_patterns","282603.30000000075","","{""Q0"":""The most effective way was to group by text and image. The text seems so different from the images despite the content, and vice versa.\nFor the all-images condition, grouping by categories, such as living things vs non-living things, animals vs plants, birds vs fish etc.\nFor the all-text condition, grouping by capitals vs lower cases. If all are capitals then group by capital letters.""}","","","","","",""
"survey-text","413","992896","0.0-413.0","73603","","","","","","age_question","2746.5","","{""Age"":""20""}","","","","","",""
"html-button-response","414","994476","0.0-414.0","73603","","","","","","gender_question","1577.699999999255","How would you like your gender to be recorded?","1","","","","","",""
"html-button-response","415","996780","0.0-415.0","73603","","","","","","debrief","2302.7999999988824","<p> Thank you for participating in this experiment! </p><p> We are investigating the dimensions along which you perceive the world </p><p>The images were all sorted according to whether they are animate or not, and </p><p> whether they are text or images. We are comparing this to some neuroimaging data to see </p> how your conscious classification relates to how your brain classifies the objects automatically. </p>","0","1001194","","","","",""
