"trial_type","trial_index","time_elapsed","internal_node_id","subject","success","timeout","failed_images","failed_audio","failed_video","test_part","rt","stimulus","response","end_time","button_pressed","stim0","stim1","stim2","trialnr"
"pavlovia","0","5","0.0-0.0","74133","","","","","","","","","","","","","","",""
"preload","1","766","0.0-1.0","74133","true","false","[]","[]","[]","preload","","","","","","","","",""
"html-button-response","2","5449","0.0-2.0","74133","","","","","","","4681.299999982119","<p>Welcome to the experiment. To begin, please read the following and press the button at the bottom of the screen.</p><p></p><p><strong>Project Name: A study on cognitive processes involved in visual perception</p></strong><p></p><p><strong>PARTICIPANT INFORMATION STATEMENT</strong></p><p></p><strong>(1) What is the study about?</strong><br>You are invited to participate in a study that investigates the cognitive processes involved in perceiving and recognizing visual stimuli.If you decide to participate, you will be asked to complete a task in which you will view pictures, letters, numbers, or words presented on a computer screen.<br><strong>(2) Who can participate?</strong><br>Anyone aged 18 years or over with access to a computer (not a phone/tablet)<br><strong>(3) Where is the study located?</strong><br>The study will be conducted in your browser<br><strong>(4) Who is carrying out the study?</strong><br>The study is being conducted by Sophia Shatek from the Computational Cognitive Neuroscience laboratory at the University of Sydney.<br><strong>(5) What does the study involve?</strong><br>In this study, you will be asked to perform tasks where you will see different stimuli appear on the computer screen.You will respond by pressing a key or using a computer mouse.<br><strong>(6) How much time will the study take?</strong><br>The study takes about 30 minutes<br><strong>(7)	Can I withdraw from the study?</strong><br>Being in this study is completely voluntary - you are not under any obligation to consent. You can withdraw at any time without having to give a reason and without penalty.<br><strong>(8) Will anyone else know the results?</strong><br>All aspects of the study, including results, will be strictly confidential and only the researchers will have access to information on participants.The results and data from the study may be submitted for publication or shared with other research labs, but individual participants will not be identifiable.<br><strong>(9) Will the study benefit me?</strong><br>You will be awarded 0.5 credits for your participation.<br><strong>(10) Can I tell other people about the study?</strong><br>Yes, please tell them to contact Dr Thomas Carlson by email at thomas.carlson@sydney.edu.au.<br><strong>(11) What if I require further information about the study or my involvement in it?</strong><br>When you have read this information, the investigator will discuss it with you further and answer any questions you may have.If you would like to know more at any stage, please feel free to contact Dr Thomas Carlson directly by email at thomas.carlson@sydney.edu.au.If you would like to be informed about the outcomes of the study, contact Dr Thomas Carlson directly by email at thomas.carlson@sydney.edu.au.<br><strong>(12) What if I have a complaint or any concerns?</strong><br>Any person with concerns or complaints about the conduct of a research study can contact The Manager,Human Ethics Administration, University of Sydney on +61 2 8627 8176 (Telephone); +61 2 8627 8177 (Facsimile) or ro.humanethics@sydney.edu.au (Email).</p><p></p><strong>By participating in this experiment, you consent to participate in this study and acknowledge that:</strong><br>1. The procedures required for the project and the times involved have been explained to me, and any questions I have about the project have been answered to my satisfaction.<br>2.	I have read the Above Information Statement and have been given the opportunity to discuss the information and my involvement in the project with the researcher/s.<br>3. I understand that allowing my data to be used in research reports is completely voluntary - I am not under any obligation to consent.<br>4. I understand that my involvement is strictly confidential. I understand that any research data gathered from the results of the study may be publishedhowever no information about me will be used in any way that is identifiable.</p><p></p>","0","","","","","",""
"html-button-response","3","6338","0.0-3.0","74133","","","","","","opening_instructions","888.8000000119209","<p>In this experiment, you will see three images appear on the screen.</p><p>You need to click the 'odd one out', or the image </p><p>that LOOKS MOST DIFFERENT to the other two. </p><p>Just go with your intuition, don't spend too long thinking about each one.</p>","0","9296.5","","","","",""
"html-button-response-mod","4","8209","0.0-4.0","74133","","","","","","triplet","1869.9000000059605","","","","1","stimuli/stim012_animate_face_4.png","stimuli/stim003_animate_fish_3.png","stimuli/stim015_inanimate_boats_3.png","0"
"html-button-response-mod","5","9813","0.0-5.0","74133","","","","","","triplet","1102.5","","","","1","stimuli/fish_lowercase.png","stimuli/stim018_inanimate_tree_2.png","stimuli/stim014_inanimate_boats_2.png","1"
"html-button-response-mod","6","10625","0.0-6.0","74133","","","","","","triplet","309.80000001192093","","","","1","stimuli/stim024_inanimate_tools_4.png","stimuli/tools_uppercase.png","stimuli/stim005_animate_bird_1.png","2"
"html-button-response-mod","7","11435","0.0-7.0","74133","","","","","","triplet","308.30000001192093","","","","0","stimuli/stim018_inanimate_tree_2.png","stimuli/tools_uppercase.png","stimuli/stim014_inanimate_boats_2.png","3"
"html-button-response-mod","8","12107","0.0-8.0","74133","","","","","","triplet","170.7000000178814","","","","1","stimuli/stim010_animate_face_2.png","stimuli/stim017_inanimate_tree_1.png","stimuli/stim016_inanimate_boats_4.png","4"
"html-button-response-mod","9","12747","0.0-9.0","74133","","","","","","triplet","138.10000002384186","","","","2","stimuli/stim020_inanimate_tree_4.png","stimuli/fish_uppercase.png","stimuli/tools_lowercase.png","5"
"html-button-response-mod","10","13469","0.0-10.0","74133","","","","","","triplet","220.59999999403954","","","","0","stimuli/stim022_inanimate_tools_2.png","stimuli/stim009_animate_face_1.png","stimuli/stim003_animate_fish_3.png","6"
"html-button-response-mod","11","14343","0.0-11.0","74133","","","","","","triplet","372.10000002384186","","","","2","stimuli/tools_uppercase.png","stimuli/stim003_animate_fish_3.png","stimuli/fish_lowercase.png","7"
"html-button-response-mod","12","15321","0.0-12.0","74133","","","","","","triplet","476.60000002384186","","","","2","stimuli/fish_uppercase.png","stimuli/stim008_animate_bird_4.png","stimuli/boats_lowercase.png","8"
"html-button-response-mod","13","16366","0.0-13.0","74133","","","","","","triplet","544.1000000238419","","","","1","stimuli/stim010_animate_face_2.png","stimuli/face_uppercase.png","stimuli/stim005_animate_bird_1.png","9"
"html-button-response-mod","14","17014","0.0-14.0","74133","","","","","","triplet","146.7000000178814","","","","2","stimuli/tree_uppercase.png","stimuli/stim017_inanimate_tree_1.png","stimuli/stim003_animate_fish_3.png","10"
"html-button-response-mod","15","17825","0.0-15.0","74133","","","","","","triplet","309.80000001192093","","","","0","stimuli/tree_uppercase.png","stimuli/stim004_animate_fish_4.png","stimuli/boats_uppercase.png","11"
"html-button-response-mod","16","18437","0.0-16.0","74133","","","","","","triplet","109.80000001192093","","","","2","stimuli/stim015_inanimate_boats_3.png","stimuli/boats_uppercase.png","stimuli/tree_lowercase.png","12"
"html-button-response-mod","17","19110","0.0-17.0","74133","","","","","","triplet","171.90000000596046","","","","0","stimuli/fish_uppercase.png","stimuli/stim008_animate_bird_4.png","stimuli/stim011_animate_face_3.png","13"
"html-button-response-mod","18","19857","0.0-18.0","74133","","","","","","triplet","246","","","","2","stimuli/fish_uppercase.png","stimuli/stim017_inanimate_tree_1.png","stimuli/tools_uppercase.png","14"
"html-button-response-mod","19","20590","0.0-19.0","74133","","","","","","triplet","231.80000001192093","","","","0","stimuli/stim015_inanimate_boats_3.png","stimuli/face_lowercase.png","stimuli/stim008_animate_bird_4.png","15"
"html-button-response-mod","20","21370","0.0-20.0","74133","","","","","","triplet","278.7000000178814","","","","2","stimuli/stim003_animate_fish_3.png","stimuli/tree_lowercase.png","stimuli/stim016_inanimate_boats_4.png","16"
"html-button-response-mod","21","22206","0.0-21.0","74133","","","","","","triplet","334.7000000178814","","","","1","stimuli/stim016_inanimate_boats_4.png","stimuli/bird_lowercase.png","stimuli/stim008_animate_bird_4.png","17"
"html-button-response-mod","22","22890","0.0-22.0","74133","","","","","","triplet","182.7000000178814","","","","2","stimuli/stim007_animate_bird_3.png","stimuli/stim024_inanimate_tools_4.png","stimuli/stim019_inanimate_tree_3.png","18"
"html-button-response-mod","23","23715","0.0-23.0","74133","","","","","","triplet","323.2000000178814","","","","0","stimuli/fish_lowercase.png","stimuli/stim010_animate_face_2.png","stimuli/tree_uppercase.png","19"
"html-button-response-mod","24","24512","0.0-24.0","74133","","","","","","triplet","296","","","","0","stimuli/stim013_inanimate_boats_1.png","stimuli/stim021_inanimate_tools_1.png","stimuli/face_uppercase.png","20"
"html-button-response-mod","25","25292","0.0-25.0","74133","","","","","","triplet","278.80000001192093","","","","2","stimuli/tools_lowercase.png","stimuli/boats_uppercase.png","stimuli/stim012_animate_face_4.png","21"
"html-button-response-mod","26","26276","0.0-26.0","74133","","","","","","triplet","482","","","","0","stimuli/stim018_inanimate_tree_2.png","stimuli/tools_uppercase.png","stimuli/stim008_animate_bird_4.png","22"
"html-button-response-mod","27","27779","0.0-27.0","74133","","","","","","triplet","1000.8000000119209","","","","2","stimuli/stim013_inanimate_boats_1.png","stimuli/stim005_animate_bird_1.png","stimuli/fish_uppercase.png","23"
"html-button-response-mod","28","28994","0.0-28.0","74133","","","","","","triplet","713.3000000119209","","","","2","stimuli/stim024_inanimate_tools_4.png","stimuli/stim019_inanimate_tree_3.png","stimuli/bird_uppercase.png","24"
"html-button-response-mod","29","29896","0.0-29.0","74133","","","","","","triplet","400.69999998807907","","","","2","stimuli/stim002_animate_fish_2.png","stimuli/stim016_inanimate_boats_4.png","stimuli/stim013_inanimate_boats_1.png","25"
"html-button-response-mod","30","30922","0.0-30.0","74133","","","","","","triplet","524.8000000119209","","","","2","stimuli/stim021_inanimate_tools_1.png","stimuli/tools_uppercase.png","stimuli/tools_lowercase.png","26"
"html-button-response-mod","31","31572","0.0-31.0","74133","","","","","","triplet","148.7000000178814","","","","1","stimuli/stim002_animate_fish_2.png","stimuli/fish_lowercase.png","stimuli/boats_uppercase.png","27"
"html-button-response-mod","32","32229","0.0-32.0","74133","","","","","","triplet","154.80000001192093","","","","1","stimuli/stim022_inanimate_tools_2.png","stimuli/bird_uppercase.png","stimuli/tools_lowercase.png","28"
"html-button-response-mod","33","32942","0.0-33.0","74133","","","","","","triplet","211.7000000178814","","","","0","stimuli/fish_uppercase.png","stimuli/stim005_animate_bird_1.png","stimuli/boats_lowercase.png","29"
"html-button-response-mod","34","33560","0.0-34.0","74133","","","","","","triplet","116.7000000178814","","","","2","stimuli/stim005_animate_bird_1.png","stimuli/boats_lowercase.png","stimuli/stim010_animate_face_2.png","30"
"html-button-response-mod","35","34196","0.0-35.0","74133","","","","","","triplet","134.60000002384186","","","","2","stimuli/bird_lowercase.png","stimuli/stim018_inanimate_tree_2.png","stimuli/stim015_inanimate_boats_3.png","31"
"html-button-response-mod","36","34806","0.0-36.0","74133","","","","","","triplet","107.59999999403954","","","","1","stimuli/stim008_animate_bird_4.png","stimuli/fish_lowercase.png","stimuli/stim003_animate_fish_3.png","32"
"html-button-response-mod","37","35428","0.0-37.0","74133","","","","","","triplet","119.60000002384186","","","","0","stimuli/stim014_inanimate_boats_2.png","stimuli/stim003_animate_fish_3.png","stimuli/stim012_animate_face_4.png","33"
"html-button-response-mod","38","36545","0.0-38.0","74133","","","","","","triplet","616.0999999940395","","","","2","stimuli/stim012_animate_face_4.png","stimuli/stim019_inanimate_tree_3.png","stimuli/stim001_animate_fish_1.png","34"
"html-button-response-mod","39","37182","0.0-39.0","74133","","","","","","triplet","135.90000000596046","","","","0","stimuli/tree_uppercase.png","stimuli/stim020_inanimate_tree_4.png","stimuli/stim017_inanimate_tree_1.png","35"
"html-button-response-mod","40","37974","0.0-40.0","74133","","","","","","triplet","290.7000000178814","","","","1","stimuli/face_uppercase.png","stimuli/stim024_inanimate_tools_4.png","stimuli/bird_lowercase.png","36"
"html-button-response-mod","41","38747","0.0-41.0","74133","","","","","","triplet","270.80000001192093","","","","1","stimuli/stim023_inanimate_tools_3.png","stimuli/stim010_animate_face_2.png","stimuli/stim011_animate_face_3.png","37"
"html-button-response-mod","42","39589","0.0-42.0","74133","","","","","","triplet","339.80000001192093","","","","1","stimuli/bird_uppercase.png","stimuli/stim010_animate_face_2.png","stimuli/stim019_inanimate_tree_3.png","38"
"html-button-response-mod","43","40414","0.0-43.0","74133","","","","","","triplet","323.80000001192093","","","","0","stimuli/stim012_animate_face_4.png","stimuli/bird_uppercase.png","stimuli/boats_lowercase.png","39"
"html-button-response-mod","44","41257","0.0-44.0","74133","","","","","","triplet","341.7000000178814","","","","2","stimuli/stim020_inanimate_tree_4.png","stimuli/stim003_animate_fish_3.png","stimuli/stim015_inanimate_boats_3.png","40"
"html-button-response-mod","45","42034","0.0-45.0","74133","","","","","","triplet","276.09999999403954","","","","0","stimuli/stim005_animate_bird_1.png","stimuli/stim015_inanimate_boats_3.png","stimuli/stim022_inanimate_tools_2.png","41"
"html-button-response-mod","46","42806","0.0-46.0","74133","","","","","","triplet","270.69999998807907","","","","2","stimuli/stim012_animate_face_4.png","stimuli/stim020_inanimate_tree_4.png","stimuli/stim016_inanimate_boats_4.png","42"
"html-button-response-mod","47","43919","0.0-47.0","74133","","","","","","triplet","611.8000000119209","","","","2","stimuli/fish_lowercase.png","stimuli/face_uppercase.png","stimuli/tools_lowercase.png","43"
"html-button-response-mod","48","44688","0.0-48.0","74133","","","","","","triplet","268.09999999403954","","","","0","stimuli/face_uppercase.png","stimuli/stim006_animate_bird_2.png","stimuli/stim004_animate_fish_4.png","44"
"html-button-response-mod","49","45398","0.0-49.0","74133","","","","","","triplet","208.80000001192093","","","","2","stimuli/stim002_animate_fish_2.png","stimuli/boats_uppercase.png","stimuli/bird_lowercase.png","45"
"html-button-response-mod","50","46295","0.0-50.0","74133","","","","","","triplet","395.09999999403954","","","","0","stimuli/fish_uppercase.png","stimuli/stim014_inanimate_boats_2.png","stimuli/stim009_animate_face_1.png","46"
"html-button-response-mod","51","47274","0.0-51.0","74133","","","","","","triplet","477.7000000178814","","","","2","stimuli/fish_uppercase.png","stimuli/stim013_inanimate_boats_1.png","stimuli/stim011_animate_face_3.png","47"
"html-button-response-mod","52","48184","0.0-52.0","74133","","","","","","triplet","408.5","","","","0","stimuli/fish_uppercase.png","stimuli/bird_lowercase.png","stimuli/stim014_inanimate_boats_2.png","48"
"html-button-response-mod","53","49506","0.0-53.0","74133","","","","","","triplet","820.5999999940395","","","","2","stimuli/fish_uppercase.png","stimuli/stim016_inanimate_boats_4.png","stimuli/stim003_animate_fish_3.png","49"
"html-button-response","54","51090","0.0-54.0","74133","","","","","","break","1082.2999999821186","<p>BREAK</p><p>Take a break for as long as you need</p><p>Click the button to continue</p>","0","","","","","",""
"html-button-response-mod","55","51563","0.0-55.0","74133","","","","","","triplet","473.09999999403954","","","","0","stimuli/stim018_inanimate_tree_2.png","stimuli/tree_lowercase.png","stimuli/face_lowercase.png","50"
"html-button-response-mod","56","52528","0.0-56.0","74133","","","","","","triplet","463.69999998807907","","","","1","stimuli/stim020_inanimate_tree_4.png","stimuli/bird_lowercase.png","stimuli/face_lowercase.png","51"
"html-button-response-mod","57","53638","0.0-57.0","74133","","","","","","triplet","608.9000000059605","","","","2","stimuli/stim016_inanimate_boats_4.png","stimuli/bird_lowercase.png","stimuli/stim009_animate_face_1.png","52"
"html-button-response-mod","58","54578","0.0-58.0","74133","","","","","","triplet","437.69999998807907","","","","0","stimuli/stim001_animate_fish_1.png","stimuli/stim014_inanimate_boats_2.png","stimuli/stim018_inanimate_tree_2.png","53"
"html-button-response-mod","59","55240","0.0-59.0","74133","","","","","","triplet","160.80000001192093","","","","2","stimuli/stim012_animate_face_4.png","stimuli/stim010_animate_face_2.png","stimuli/face_lowercase.png","54"
"html-button-response-mod","60","55848","0.0-60.0","74133","","","","","","triplet","106.80000001192093","","","","0","stimuli/face_lowercase.png","stimuli/stim014_inanimate_boats_2.png","stimuli/stim021_inanimate_tools_1.png","55"
"html-button-response-mod","61","56762","0.0-61.0","74133","","","","","","triplet","412.80000001192093","","","","2","stimuli/stim015_inanimate_boats_3.png","stimuli/fish_lowercase.png","stimuli/stim004_animate_fish_4.png","56"
"html-button-response-mod","62","57539","0.0-62.0","74133","","","","","","triplet","275.2000000178814","","","","1","stimuli/stim018_inanimate_tree_2.png","stimuli/tools_uppercase.png","stimuli/stim017_inanimate_tree_1.png","57"
"html-button-response-mod","63","58395","0.0-63.0","74133","","","","","","triplet","353.80000001192093","","","","2","stimuli/stim019_inanimate_tree_3.png","stimuli/boats_uppercase.png","stimuli/tree_uppercase.png","58"
"html-button-response-mod","64","59222","0.0-64.0","74133","","","","","","triplet","325.69999998807907","","","","0","stimuli/stim011_animate_face_3.png","stimuli/fish_lowercase.png","stimuli/stim016_inanimate_boats_4.png","59"
"html-button-response-mod","65","60023","0.0-65.0","74133","","","","","","triplet","298.7000000178814","","","","2","stimuli/stim001_animate_fish_1.png","stimuli/fish_uppercase.png","stimuli/stim002_animate_fish_2.png","60"
"html-button-response-mod","66","60758","0.0-66.0","74133","","","","","","triplet","233.90000000596046","","","","0","stimuli/bird_lowercase.png","stimuli/stim009_animate_face_1.png","stimuli/stim015_inanimate_boats_3.png","61"
"html-button-response-mod","67","61576","0.0-67.0","74133","","","","","","triplet","316.80000001192093","","","","2","stimuli/stim003_animate_fish_3.png","stimuli/boats_lowercase.png","stimuli/stim016_inanimate_boats_4.png","62"
"html-button-response-mod","68","62433","0.0-68.0","74133","","","","","","triplet","355.90000000596046","","","","0","stimuli/stim022_inanimate_tools_2.png","stimuli/stim009_animate_face_1.png","stimuli/boats_lowercase.png","63"
"html-button-response-mod","69","63265","0.0-69.0","74133","","","","","","triplet","330.80000001192093","","","","2","stimuli/stim004_animate_fish_4.png","stimuli/stim016_inanimate_boats_4.png","stimuli/stim010_animate_face_2.png","64"
"html-button-response-mod","70","64180","0.0-70.0","74133","","","","","","triplet","413.69999998807907","","","","0","stimuli/boats_lowercase.png","stimuli/stim004_animate_fish_4.png","stimuli/stim006_animate_bird_2.png","65"
"html-button-response-mod","71","65078","0.0-71.0","74133","","","","","","triplet","396.7000000178814","","","","2","stimuli/face_lowercase.png","stimuli/stim006_animate_bird_2.png","stimuli/stim024_inanimate_tools_4.png","66"
"html-button-response-mod","72","66006","0.0-72.0","74133","","","","","","triplet","426.7999999821186","","","","1","stimuli/fish_lowercase.png","stimuli/stim022_inanimate_tools_2.png","stimuli/stim017_inanimate_tree_1.png","67"
"html-button-response-mod","73","66843","0.0-73.0","74133","","","","","","triplet","335.40000000596046","","","","2","stimuli/stim005_animate_bird_1.png","stimuli/stim022_inanimate_tools_2.png","stimuli/stim001_animate_fish_1.png","68"
"html-button-response-mod","74","67724","0.0-74.0","74133","","","","","","triplet","378.90000000596046","","","","0","stimuli/face_uppercase.png","stimuli/stim021_inanimate_tools_1.png","stimuli/boats_uppercase.png","69"
"html-button-response-mod","75","68721","0.0-75.0","74133","","","","","","triplet","495.90000000596046","","","","1","stimuli/boats_uppercase.png","stimuli/tree_lowercase.png","stimuli/fish_lowercase.png","70"
"html-button-response-mod","76","69487","0.0-76.0","74133","","","","","","triplet","264.90000000596046","","","","1","stimuli/boats_lowercase.png","stimuli/stim023_inanimate_tools_3.png","stimuli/fish_lowercase.png","71"
"html-button-response-mod","77","70129","0.0-77.0","74133","","","","","","triplet","139.7999999821186","","","","2","stimuli/stim017_inanimate_tree_1.png","stimuli/stim006_animate_bird_2.png","stimuli/tree_lowercase.png","72"
"html-button-response-mod","78","71060","0.0-78.0","74133","","","","","","triplet","429.69999998807907","","","","0","stimuli/stim009_animate_face_1.png","stimuli/stim010_animate_face_2.png","stimuli/tree_lowercase.png","73"
"html-button-response-mod","79","71845","0.0-79.0","74133","","","","","","triplet","284","","","","2","stimuli/stim023_inanimate_tools_3.png","stimuli/stim010_animate_face_2.png","stimuli/boats_uppercase.png","74"
"html-button-response-mod","80","72697","0.0-80.0","74133","","","","","","triplet","350.7999999821186","","","","0","stimuli/stim023_inanimate_tools_3.png","stimuli/fish_uppercase.png","stimuli/stim014_inanimate_boats_2.png","75"
"html-button-response-mod","81","73635","0.0-81.0","74133","","","","","","triplet","436.90000000596046","","","","2","stimuli/stim009_animate_face_1.png","stimuli/tools_lowercase.png","stimuli/stim014_inanimate_boats_2.png","76"
"html-button-response-mod","82","74381","0.0-82.0","74133","","","","","","triplet","244.69999998807907","","","","2","stimuli/stim016_inanimate_boats_4.png","stimuli/boats_lowercase.png","stimuli/bird_lowercase.png","77"
"html-button-response-mod","83","75201","0.0-83.0","74133","","","","","","triplet","318.7999999821186","","","","0","stimuli/stim022_inanimate_tools_2.png","stimuli/stim018_inanimate_tree_2.png","stimuli/stim013_inanimate_boats_1.png","78"
"html-button-response-mod","84","75922","0.0-84.0","74133","","","","","","triplet","219.90000000596046","","","","2","stimuli/stim013_inanimate_boats_1.png","stimuli/stim006_animate_bird_2.png","stimuli/stim009_animate_face_1.png","79"
"html-button-response-mod","85","76690","0.0-85.0","74133","","","","","","triplet","265.80000001192093","","","","1","stimuli/stim020_inanimate_tree_4.png","stimuli/stim014_inanimate_boats_2.png","stimuli/fish_uppercase.png","80"
"html-button-response-mod","86","77307","0.0-86.0","74133","","","","","","triplet","115.59999999403954","","","","2","stimuli/stim021_inanimate_tools_1.png","stimuli/stim023_inanimate_tools_3.png","stimuli/face_uppercase.png","81"
"html-button-response-mod","87","78077","0.0-87.0","74133","","","","","","triplet","267.90000000596046","","","","0","stimuli/tree_uppercase.png","stimuli/stim017_inanimate_tree_1.png","stimuli/fish_lowercase.png","82"
"html-button-response-mod","88","79105","0.0-88.0","74133","","","","","","triplet","526.9000000059605","","","","2","stimuli/stim017_inanimate_tree_1.png","stimuli/bird_lowercase.png","stimuli/boats_lowercase.png","83"
"html-button-response-mod","89","79748","0.0-89.0","74133","","","","","","triplet","141.90000000596046","","","","1","stimuli/stim009_animate_face_1.png","stimuli/stim021_inanimate_tools_1.png","stimuli/stim016_inanimate_boats_4.png","84"
"html-button-response-mod","90","80706","0.0-90.0","74133","","","","","","triplet","457","","","","2","stimuli/stim013_inanimate_boats_1.png","stimuli/stim014_inanimate_boats_2.png","stimuli/stim001_animate_fish_1.png","85"
"html-button-response-mod","91","81749","0.0-91.0","74133","","","","","","triplet","541.6999999880791","","","","0","stimuli/stim020_inanimate_tree_4.png","stimuli/stim024_inanimate_tools_4.png","stimuli/stim023_inanimate_tools_3.png","86"
"html-button-response-mod","92","82537","0.0-92.0","74133","","","","","","triplet","287","","","","2","stimuli/stim015_inanimate_boats_3.png","stimuli/tools_uppercase.png","stimuli/face_lowercase.png","87"
"html-button-response-mod","93","83819","0.0-93.0","74133","","","","","","triplet","780.7999999821186","","","","2","stimuli/bird_lowercase.png","stimuli/tools_lowercase.png","stimuli/stim021_inanimate_tools_1.png","88"
"html-button-response-mod","94","84636","0.0-94.0","74133","","","","","","triplet","315.90000000596046","","","","2","stimuli/stim022_inanimate_tools_2.png","stimuli/stim021_inanimate_tools_1.png","stimuli/stim004_animate_fish_4.png","89"
"html-button-response-mod","95","85502","0.0-95.0","74133","","","","","","triplet","364.90000000596046","","","","0","stimuli/stim021_inanimate_tools_1.png","stimuli/stim020_inanimate_tree_4.png","stimuli/stim023_inanimate_tools_3.png","90"
"html-button-response-mod","96","86268","0.0-96.0","74133","","","","","","triplet","265","","","","1","stimuli/tools_uppercase.png","stimuli/stim013_inanimate_boats_1.png","stimuli/stim012_animate_face_4.png","91"
"html-button-response-mod","97","86988","0.0-97.0","74133","","","","","","triplet","219.10000002384186","","","","1","stimuli/stim023_inanimate_tools_3.png","stimuli/face_uppercase.png","stimuli/bird_lowercase.png","92"
"html-button-response-mod","98","87773","0.0-98.0","74133","","","","","","triplet","283.40000000596046","","","","2","stimuli/stim004_animate_fish_4.png","stimuli/stim016_inanimate_boats_4.png","stimuli/fish_lowercase.png","93"
"html-button-response-mod","99","88524","0.0-99.0","74133","","","","","","triplet","249.90000000596046","","","","0","stimuli/bird_lowercase.png","stimuli/fish_lowercase.png","stimuli/stim019_inanimate_tree_3.png","94"
"html-button-response-mod","100","89313","0.0-100.0","74133","","","","","","triplet","287.80000001192093","","","","1","stimuli/stim020_inanimate_tree_4.png","stimuli/stim015_inanimate_boats_3.png","stimuli/stim017_inanimate_tree_1.png","95"
"html-button-response-mod","101","90071","0.0-101.0","74133","","","","","","triplet","255.7999999821186","","","","2","stimuli/stim014_inanimate_boats_2.png","stimuli/boats_uppercase.png","stimuli/stim020_inanimate_tree_4.png","96"
"html-button-response-mod","102","90884","0.0-102.0","74133","","","","","","triplet","311.7999999821186","","","","0","stimuli/stim007_animate_bird_3.png","stimuli/stim020_inanimate_tree_4.png","stimuli/stim014_inanimate_boats_2.png","97"
"html-button-response-mod","103","91657","0.0-103.0","74133","","","","","","triplet","272.2000000178814","","","","2","stimuli/stim001_animate_fish_1.png","stimuli/stim017_inanimate_tree_1.png","stimuli/tree_lowercase.png","98"
"html-button-response-mod","104","92546","0.0-104.0","74133","","","","","","triplet","388","","","","1","stimuli/stim012_animate_face_4.png","stimuli/stim024_inanimate_tools_4.png","stimuli/stim014_inanimate_boats_2.png","99"
"html-button-response","105","93685","0.0-105.0","74133","","","","","","break","638.1000000238419","<p>BREAK</p><p>Take a break for as long as you need</p><p>Click the button to continue</p>","0","","","","","",""
"html-button-response-mod","106","94231","0.0-106.0","74133","","","","","","triplet","545","","","","0","stimuli/stim010_animate_face_2.png","stimuli/stim004_animate_fish_4.png","stimuli/stim003_animate_fish_3.png","100"
"html-button-response-mod","107","95062","0.0-107.0","74133","","","","","","triplet","329.90000000596046","","","","2","stimuli/bird_uppercase.png","stimuli/tree_lowercase.png","stimuli/fish_lowercase.png","101"
"html-button-response-mod","108","95984","0.0-108.0","74133","","","","","","triplet","420.69999998807907","","","","1","stimuli/bird_lowercase.png","stimuli/stim018_inanimate_tree_2.png","stimuli/stim013_inanimate_boats_1.png","102"
"html-button-response-mod","109","96618","0.0-109.0","74133","","","","","","triplet","133","","","","2","stimuli/stim012_animate_face_4.png","stimuli/stim018_inanimate_tree_2.png","stimuli/stim024_inanimate_tools_4.png","103"
"html-button-response-mod","110","97575","0.0-110.0","74133","","","","","","triplet","455.90000000596046","","","","0","stimuli/stim002_animate_fish_2.png","stimuli/tools_lowercase.png","stimuli/stim001_animate_fish_1.png","104"
"html-button-response-mod","111","98329","0.0-111.0","74133","","","","","","triplet","251.90000000596046","","","","2","stimuli/stim009_animate_face_1.png","stimuli/stim001_animate_fish_1.png","stimuli/stim011_animate_face_3.png","105"
"html-button-response-mod","112","99079","0.0-112.0","74133","","","","","","triplet","248.69999998807907","","","","0","stimuli/stim023_inanimate_tools_3.png","stimuli/stim014_inanimate_boats_2.png","stimuli/stim015_inanimate_boats_3.png","106"
"html-button-response-mod","113","99779","0.0-113.0","74133","","","","","","triplet","199.10000002384186","","","","2","stimuli/stim017_inanimate_tree_1.png","stimuli/tools_uppercase.png","stimuli/stim012_animate_face_4.png","107"
"html-button-response-mod","114","100888","0.0-114.0","74133","","","","","","triplet","607.7999999821186","","","","0","stimuli/face_lowercase.png","stimuli/stim005_animate_bird_1.png","stimuli/stim009_animate_face_1.png","108"
"html-button-response-mod","115","101622","0.0-115.0","74133","","","","","","triplet","232","","","","0","stimuli/stim005_animate_bird_1.png","stimuli/face_lowercase.png","stimuli/stim013_inanimate_boats_1.png","109"
"html-button-response-mod","116","102258","0.0-116.0","74133","","","","","","triplet","134.59999999403954","","","","2","stimuli/stim001_animate_fish_1.png","stimuli/face_lowercase.png","stimuli/stim022_inanimate_tools_2.png","110"
"html-button-response-mod","117","102958","0.0-117.0","74133","","","","","","triplet","198.7999999821186","","","","1","stimuli/fish_lowercase.png","stimuli/stim006_animate_bird_2.png","stimuli/stim014_inanimate_boats_2.png","111"
"html-button-response-mod","118","103636","0.0-118.0","74133","","","","","","triplet","176.7999999821186","","","","2","stimuli/stim009_animate_face_1.png","stimuli/stim012_animate_face_4.png","stimuli/tree_lowercase.png","112"
"html-button-response-mod","119","104371","0.0-119.0","74133","","","","","","triplet","234","","","","0","stimuli/stim008_animate_bird_4.png","stimuli/stim020_inanimate_tree_4.png","stimuli/stim016_inanimate_boats_4.png","113"
"html-button-response-mod","120","105177","0.0-120.0","74133","","","","","","triplet","304.39999997615814","","","","0","stimuli/stim012_animate_face_4.png","stimuli/stim002_animate_fish_2.png","stimuli/stim015_inanimate_boats_3.png","114"
"html-button-response-mod","121","105952","0.0-121.0","74133","","","","","","triplet","273.59999999403954","","","","2","stimuli/fish_lowercase.png","stimuli/stim008_animate_bird_4.png","stimuli/stim017_inanimate_tree_1.png","115"
"html-button-response-mod","122","106849","0.0-122.0","74133","","","","","","triplet","396","","","","0","stimuli/stim005_animate_bird_1.png","stimuli/stim002_animate_fish_2.png","stimuli/stim004_animate_fish_4.png","116"
"html-button-response-mod","123","108088","0.0-123.0","74133","","","","","","triplet","738","","","","0","stimuli/tools_uppercase.png","stimuli/stim010_animate_face_2.png","stimuli/boats_lowercase.png","117"
"html-button-response-mod","124","108979","0.0-124.0","74133","","","","","","triplet","390","","","","2","stimuli/stim015_inanimate_boats_3.png","stimuli/stim017_inanimate_tree_1.png","stimuli/stim014_inanimate_boats_2.png","118"
"html-button-response-mod","125","109889","0.0-125.0","74133","","","","","","triplet","408","","","","1","stimuli/stim010_animate_face_2.png","stimuli/boats_lowercase.png","stimuli/bird_lowercase.png","119"
"html-button-response-mod","126","110828","0.0-126.0","74133","","","","","","triplet","437.2000000178814","","","","0","stimuli/stim005_animate_bird_1.png","stimuli/tree_uppercase.png","stimuli/fish_lowercase.png","120"
"html-button-response-mod","127","111628","0.0-127.0","74133","","","","","","triplet","298.40000000596046","","","","2","stimuli/stim005_animate_bird_1.png","stimuli/boats_lowercase.png","stimuli/stim006_animate_bird_2.png","121"
"html-button-response-mod","128","112655","0.0-128.0","74133","","","","","","triplet","525.1000000238419","","","","0","stimuli/stim018_inanimate_tree_2.png","stimuli/stim020_inanimate_tree_4.png","stimuli/boats_uppercase.png","122"
"html-button-response-mod","129","113594","0.0-129.0","74133","","","","","","triplet","437.2999999821186","","","","0","stimuli/stim013_inanimate_boats_1.png","stimuli/bird_lowercase.png","stimuli/stim016_inanimate_boats_4.png","123"
"html-button-response-mod","130","114385","0.0-130.0","74133","","","","","","triplet","290.10000002384186","","","","2","stimuli/fish_lowercase.png","stimuli/stim008_animate_bird_4.png","stimuli/stim006_animate_bird_2.png","124"
"html-button-response-mod","131","115323","0.0-131.0","74133","","","","","","triplet","436.80000001192093","","","","0","stimuli/face_lowercase.png","stimuli/fish_uppercase.png","stimuli/stim022_inanimate_tools_2.png","125"
"html-button-response-mod","132","116136","0.0-132.0","74133","","","","","","triplet","312.2000000178814","","","","2","stimuli/boats_lowercase.png","stimuli/tools_uppercase.png","stimuli/tree_lowercase.png","126"
"html-button-response-mod","133","116956","0.0-133.0","74133","","","","","","triplet","317.80000001192093","","","","0","stimuli/bird_lowercase.png","stimuli/stim004_animate_fish_4.png","stimuli/stim011_animate_face_3.png","127"
"html-button-response-mod","134","117837","0.0-134.0","74133","","","","","","triplet","379.2000000178814","","","","2","stimuli/stim023_inanimate_tools_3.png","stimuli/tools_lowercase.png","stimuli/stim007_animate_bird_3.png","128"
"html-button-response-mod","135","118714","0.0-135.0","74133","","","","","","triplet","375.7000000178814","","","","0","stimuli/stim021_inanimate_tools_1.png","stimuli/stim016_inanimate_boats_4.png","stimuli/stim010_animate_face_2.png","129"
"html-button-response-mod","136","119540","0.0-136.0","74133","","","","","","triplet","324","","","","2","stimuli/boats_uppercase.png","stimuli/stim010_animate_face_2.png","stimuli/stim018_inanimate_tree_2.png","130"
"html-button-response-mod","137","120289","0.0-137.0","74133","","","","","","triplet","247.2000000178814","","","","0","stimuli/stim004_animate_fish_4.png","stimuli/stim014_inanimate_boats_2.png","stimuli/stim008_animate_bird_4.png","131"
"html-button-response-mod","138","121102","0.0-138.0","74133","","","","","","triplet","312","","","","0","stimuli/stim011_animate_face_3.png","stimuli/tools_uppercase.png","stimuli/tree_uppercase.png","132"
"html-button-response-mod","139","121762","0.0-139.0","74133","","","","","","triplet","157.69999998807907","","","","2","stimuli/tools_lowercase.png","stimuli/stim022_inanimate_tools_2.png","stimuli/stim009_animate_face_1.png","133"
"html-button-response-mod","140","122589","0.0-140.0","74133","","","","","","triplet","325.2000000178814","","","","1","stimuli/stim009_animate_face_1.png","stimuli/boats_lowercase.png","stimuli/bird_lowercase.png","134"
"html-button-response-mod","141","123452","0.0-141.0","74133","","","","","","triplet","361.10000002384186","","","","2","stimuli/face_uppercase.png","stimuli/stim018_inanimate_tree_2.png","stimuli/tools_lowercase.png","135"
"html-button-response-mod","142","124203","0.0-142.0","74133","","","","","","triplet","249.7999999821186","","","","0","stimuli/bird_lowercase.png","stimuli/stim015_inanimate_boats_3.png","stimuli/stim020_inanimate_tree_4.png","136"
"html-button-response-mod","143","124952","0.0-143.0","74133","","","","","","triplet","247.60000002384186","","","","1","stimuli/face_lowercase.png","stimuli/stim013_inanimate_boats_1.png","stimuli/stim001_animate_fish_1.png","137"
"html-button-response-mod","144","125664","0.0-144.0","74133","","","","","","triplet","211.10000002384186","","","","0","stimuli/stim014_inanimate_boats_2.png","stimuli/stim004_animate_fish_4.png","stimuli/stim001_animate_fish_1.png","138"
"html-button-response-mod","145","127137","0.0-145.0","74133","","","","","","triplet","971.2000000178814","","","","0","stimuli/stim001_animate_fish_1.png","stimuli/boats_uppercase.png","stimuli/face_uppercase.png","139"
"html-button-response-mod","146","127973","0.0-146.0","74133","","","","","","triplet","334.30000001192093","","","","0","stimuli/face_uppercase.png","stimuli/stim015_inanimate_boats_3.png","stimuli/boats_uppercase.png","140"
"html-button-response-mod","147","128719","0.0-147.0","74133","","","","","","triplet","243.2000000178814","","","","2","stimuli/stim017_inanimate_tree_1.png","stimuli/tools_uppercase.png","stimuli/bird_uppercase.png","141"
"html-button-response-mod","148","129470","0.0-148.0","74133","","","","","","triplet","249.80000001192093","","","","0","stimuli/face_uppercase.png","stimuli/stim004_animate_fish_4.png","stimuli/boats_uppercase.png","142"
"html-button-response-mod","149","130259","0.0-149.0","74133","","","","","","triplet","287.40000000596046","","","","2","stimuli/stim004_animate_fish_4.png","stimuli/stim007_animate_bird_3.png","stimuli/stim016_inanimate_boats_4.png","143"
"html-button-response-mod","150","131026","0.0-150.0","74133","","","","","","triplet","265.2000000178814","","","","1","stimuli/stim009_animate_face_1.png","stimuli/stim007_animate_bird_3.png","stimuli/boats_uppercase.png","144"
"html-button-response-mod","151","131856","0.0-151.0","74133","","","","","","triplet","328.2000000178814","","","","0","stimuli/stim002_animate_fish_2.png","stimuli/stim023_inanimate_tools_3.png","stimuli/fish_uppercase.png","145"
"html-button-response-mod","152","132628","0.0-152.0","74133","","","","","","triplet","270.60000002384186","","","","2","stimuli/stim021_inanimate_tools_1.png","stimuli/stim012_animate_face_4.png","stimuli/stim013_inanimate_boats_1.png","146"
"html-button-response-mod","153","133413","0.0-153.0","74133","","","","","","triplet","284","","","","0","stimuli/stim018_inanimate_tree_2.png","stimuli/boats_uppercase.png","stimuli/stim021_inanimate_tools_1.png","147"
"html-button-response-mod","154","134162","0.0-154.0","74133","","","","","","triplet","247.2000000178814","","","","2","stimuli/bird_uppercase.png","stimuli/stim002_animate_fish_2.png","stimuli/stim014_inanimate_boats_2.png","148"
"html-button-response-mod","155","135999","0.0-155.0","74133","","","","","","triplet","1335.1000000238419","","","","0","stimuli/stim011_animate_face_3.png","stimuli/stim023_inanimate_tools_3.png","stimuli/stim020_inanimate_tree_4.png","149"
"html-button-response","156","137059","0.0-156.0","74133","","","","","","break","558.1999999880791","<p>BREAK</p><p>Take a break for as long as you need</p><p>Click the button to continue</p>","0","","","","","",""
"html-button-response-mod","157","137836","0.0-157.0","74133","","","","","","triplet","776","","","","1","stimuli/face_lowercase.png","stimuli/stim005_animate_bird_1.png","stimuli/boats_lowercase.png","150"
"html-button-response-mod","158","138860","0.0-158.0","74133","","","","","","triplet","522.2000000178814","","","","1","stimuli/fish_lowercase.png","stimuli/tools_uppercase.png","stimuli/boats_uppercase.png","151"
"html-button-response-mod","159","139486","0.0-159.0","74133","","","","","","triplet","124.2000000178814","","","","2","stimuli/stim003_animate_fish_3.png","stimuli/stim002_animate_fish_2.png","stimuli/stim020_inanimate_tree_4.png","152"
"html-button-response-mod","160","140128","0.0-160.0","74133","","","","","","triplet","140.60000002384186","","","","0","stimuli/tree_lowercase.png","stimuli/stim020_inanimate_tree_4.png","stimuli/tools_lowercase.png","153"
"html-button-response-mod","161","140745","0.0-161.0","74133","","","","","","triplet","115.2000000178814","","","","2","stimuli/stim005_animate_bird_1.png","stimuli/stim017_inanimate_tree_1.png","stimuli/stim004_animate_fish_4.png","154"
"html-button-response-mod","162","141747","0.0-162.0","74133","","","","","","triplet","500.5","","","","0","stimuli/boats_lowercase.png","stimuli/stim013_inanimate_boats_1.png","stimuli/stim005_animate_bird_1.png","155"
"html-button-response-mod","163","142941","0.0-163.0","74133","","","","","","triplet","692.6000000238419","","","","1","stimuli/fish_uppercase.png","stimuli/stim022_inanimate_tools_2.png","stimuli/stim014_inanimate_boats_2.png","156"
"html-button-response-mod","164","143644","0.0-164.0","74133","","","","","","triplet","201.7000000178814","","","","0","stimuli/stim012_animate_face_4.png","stimuli/stim020_inanimate_tree_4.png","stimuli/bird_uppercase.png","157"
"html-button-response-mod","165","144376","0.0-165.0","74133","","","","","","triplet","230.30000001192093","","","","2","stimuli/stim009_animate_face_1.png","stimuli/stim001_animate_fish_1.png","stimuli/stim002_animate_fish_2.png","158"
"html-button-response-mod","166","145113","0.0-166.0","74133","","","","","","triplet","234.2000000178814","","","","0","stimuli/stim016_inanimate_boats_4.png","stimuli/stim015_inanimate_boats_3.png","stimuli/stim007_animate_bird_3.png","159"
"html-button-response-mod","167","146125","0.0-167.0","74133","","","","","","triplet","510.09999999403954","","","","2","stimuli/stim001_animate_fish_1.png","stimuli/bird_uppercase.png","stimuli/stim007_animate_bird_3.png","160"
"html-button-response-mod","168","146870","0.0-168.0","74133","","","","","","triplet","242.90000000596046","","","","0","stimuli/boats_lowercase.png","stimuli/stim010_animate_face_2.png","stimuli/stim017_inanimate_tree_1.png","161"
"html-button-response-mod","169","147611","0.0-169.0","74133","","","","","","triplet","239.2000000178814","","","","2","stimuli/stim009_animate_face_1.png","stimuli/stim010_animate_face_2.png","stimuli/stim003_animate_fish_3.png","162"
"html-button-response-mod","170","148414","0.0-170.0","74133","","","","","","triplet","302.30000001192093","","","","0","stimuli/face_lowercase.png","stimuli/bird_uppercase.png","stimuli/stim019_inanimate_tree_3.png","163"
"html-button-response-mod","171","149098","0.0-171.0","74133","","","","","","triplet","182.2000000178814","","","","2","stimuli/tools_uppercase.png","stimuli/fish_uppercase.png","stimuli/tree_uppercase.png","164"
"html-button-response-mod","172","149830","0.0-172.0","74133","","","","","","triplet","230.2000000178814","","","","0","stimuli/tree_lowercase.png","stimuli/face_uppercase.png","stimuli/stim019_inanimate_tree_3.png","165"
"html-button-response-mod","173","150568","0.0-173.0","74133","","","","","","triplet","236.40000000596046","","","","2","stimuli/stim019_inanimate_tree_3.png","stimuli/stim005_animate_bird_1.png","stimuli/stim013_inanimate_boats_1.png","166"
"html-button-response-mod","174","151358","0.0-174.0","74133","","","","","","triplet","288.90000000596046","","","","0","stimuli/stim001_animate_fish_1.png","stimuli/stim008_animate_bird_4.png","stimuli/boats_lowercase.png","167"
"html-button-response-mod","175","152099","0.0-175.0","74133","","","","","","triplet","239.30000001192093","","","","2","stimuli/stim016_inanimate_boats_4.png","stimuli/tools_lowercase.png","stimuli/stim010_animate_face_2.png","168"
"html-button-response-mod","176","152749","0.0-176.0","74133","","","","","","triplet","148.7000000178814","","","","0","stimuli/stim022_inanimate_tools_2.png","stimuli/stim015_inanimate_boats_3.png","stimuli/stim014_inanimate_boats_2.png","169"
"html-button-response-mod","177","153446","0.0-177.0","74133","","","","","","triplet","195.90000000596046","","","","2","stimuli/stim015_inanimate_boats_3.png","stimuli/stim019_inanimate_tree_3.png","stimuli/tools_lowercase.png","170"
"html-button-response-mod","178","154256","0.0-178.0","74133","","","","","","triplet","308.2000000178814","","","","1","stimuli/bird_lowercase.png","stimuli/tools_lowercase.png","stimuli/boats_lowercase.png","171"
"html-button-response-mod","179","154999","0.0-179.0","74133","","","","","","triplet","242.09999999403954","","","","2","stimuli/stim004_animate_fish_4.png","stimuli/tree_lowercase.png","stimuli/bird_lowercase.png","172"
"html-button-response-mod","180","155719","0.0-180.0","74133","","","","","","triplet","218.2000000178814","","","","0","stimuli/bird_uppercase.png","stimuli/fish_lowercase.png","stimuli/bird_lowercase.png","173"
"html-button-response-mod","181","156438","0.0-181.0","74133","","","","","","triplet","217.5","","","","1","stimuli/stim002_animate_fish_2.png","stimuli/stim016_inanimate_boats_4.png","stimuli/tools_lowercase.png","174"
"html-button-response-mod","182","157171","0.0-182.0","74133","","","","","","triplet","231.59999999403954","","","","1","stimuli/stim001_animate_fish_1.png","stimuli/face_lowercase.png","stimuli/tree_lowercase.png","175"
"html-button-response-mod","183","157892","0.0-183.0","74133","","","","","","triplet","219.19999998807907","","","","2","stimuli/stim010_animate_face_2.png","stimuli/stim013_inanimate_boats_1.png","stimuli/stim003_animate_fish_3.png","176"
"html-button-response-mod","184","158623","0.0-184.0","74133","","","","","","triplet","228.2000000178814","","","","0","stimuli/stim022_inanimate_tools_2.png","stimuli/stim023_inanimate_tools_3.png","stimuli/tree_lowercase.png","177"
"html-button-response-mod","185","159321","0.0-185.0","74133","","","","","","triplet","195.90000000596046","","","","2","stimuli/tools_lowercase.png","stimuli/stim022_inanimate_tools_2.png","stimuli/stim001_animate_fish_1.png","178"
"html-button-response-mod","186","160064","0.0-186.0","74133","","","","","","triplet","241.30000001192093","","","","0","stimuli/stim014_inanimate_boats_2.png","stimuli/bird_uppercase.png","stimuli/stim020_inanimate_tree_4.png","179"
"html-button-response-mod","187","160818","0.0-187.0","74133","","","","","","triplet","252.5","","","","2","stimuli/stim002_animate_fish_2.png","stimuli/stim003_animate_fish_3.png","stimuli/face_uppercase.png","180"
"html-button-response-mod","188","161505","0.0-188.0","74133","","","","","","triplet","185.30000001192093","","","","0","stimuli/stim018_inanimate_tree_2.png","stimuli/stim009_animate_face_1.png","stimuli/fish_lowercase.png","181"
"html-button-response-mod","189","162234","0.0-189.0","74133","","","","","","triplet","228","","","","1","stimuli/stim019_inanimate_tree_3.png","stimuli/stim022_inanimate_tools_2.png","stimuli/face_lowercase.png","182"
"html-button-response-mod","190","162881","0.0-190.0","74133","","","","","","triplet","145.40000000596046","","","","1","stimuli/stim014_inanimate_boats_2.png","stimuli/tree_uppercase.png","stimuli/stim006_animate_bird_2.png","183"
"html-button-response-mod","191","163639","0.0-191.0","74133","","","","","","triplet","257.30000001192093","","","","2","stimuli/bird_lowercase.png","stimuli/tools_lowercase.png","stimuli/stim013_inanimate_boats_1.png","184"
"html-button-response-mod","192","164236","0.0-192.0","74133","","","","","","triplet","95.5","","","","0","stimuli/stim004_animate_fish_4.png","stimuli/stim016_inanimate_boats_4.png","stimuli/stim009_animate_face_1.png","185"
"html-button-response-mod","193","164962","0.0-193.0","74133","","","","","","triplet","225","","","","2","stimuli/tree_uppercase.png","stimuli/stim024_inanimate_tools_4.png","stimuli/fish_uppercase.png","186"
"html-button-response-mod","194","166208","0.0-194.0","74133","","","","","","triplet","744.6999999880791","","","","2","stimuli/stim017_inanimate_tree_1.png","stimuli/tree_uppercase.png","stimuli/face_lowercase.png","187"
"html-button-response-mod","195","167864","0.0-195.0","74133","","","","","","triplet","1154.2000000178814","","","","1","stimuli/face_lowercase.png","stimuli/stim024_inanimate_tools_4.png","stimuli/stim017_inanimate_tree_1.png","188"
"html-button-response-mod","196","168483","0.0-196.0","74133","","","","","","triplet","118.40000000596046","","","","2","stimuli/stim014_inanimate_boats_2.png","stimuli/stim006_animate_bird_2.png","stimuli/stim011_animate_face_3.png","189"
"html-button-response-mod","197","169174","0.0-197.0","74133","","","","","","triplet","189.2999999821186","","","","0","stimuli/tools_lowercase.png","stimuli/face_lowercase.png","stimuli/stim003_animate_fish_3.png","190"
"html-button-response-mod","198","170347","0.0-198.0","74133","","","","","","triplet","670.5","","","","0","stimuli/bird_uppercase.png","stimuli/boats_uppercase.png","stimuli/stim023_inanimate_tools_3.png","191"
"html-button-response-mod","199","171340","0.0-199.0","74133","","","","","","triplet","491.2999999821186","","","","0","stimuli/stim004_animate_fish_4.png","stimuli/stim007_animate_bird_3.png","stimuli/stim009_animate_face_1.png","192"
"html-button-response-mod","200","172305","0.0-200.0","74133","","","","","","triplet","463.59999999403954","","","","0","stimuli/tree_lowercase.png","stimuli/stim012_animate_face_4.png","stimuli/stim011_animate_face_3.png","193"
"html-button-response-mod","201","172901","0.0-201.0","74133","","","","","","triplet","94.2999999821186","","","","2","stimuli/stim019_inanimate_tree_3.png","stimuli/stim002_animate_fish_2.png","stimuli/face_uppercase.png","194"
"html-button-response-mod","202","173723","0.0-202.0","74133","","","","","","triplet","319.40000000596046","","","","1","stimuli/stim024_inanimate_tools_4.png","stimuli/stim012_animate_face_4.png","stimuli/boats_uppercase.png","195"
"html-button-response-mod","203","174759","0.0-203.0","74133","","","","","","triplet","533.6000000238419","","","","0","stimuli/stim012_animate_face_4.png","stimuli/stim019_inanimate_tree_3.png","stimuli/stim018_inanimate_tree_2.png","196"
"html-button-response-mod","204","175858","0.0-204.0","74133","","","","","","triplet","598.4000000059605","","","","1","stimuli/stim013_inanimate_boats_1.png","stimuli/fish_lowercase.png","stimuli/stim022_inanimate_tools_2.png","197"
"html-button-response-mod","205","176632","0.0-205.0","74133","","","","","","triplet","272","","","","2","stimuli/stim007_animate_bird_3.png","stimuli/stim024_inanimate_tools_4.png","stimuli/face_lowercase.png","198"
"html-button-response-mod","206","177640","0.0-206.0","74133","","","","","","triplet","505.40000000596046","","","","1","stimuli/stim005_animate_bird_1.png","stimuli/stim014_inanimate_boats_2.png","stimuli/fish_uppercase.png","199"
"html-button-response","207","179207","0.0-207.0","74133","","","","","","break","1065","<p>BREAK</p><p>Take a break for as long as you need</p><p>Click the button to continue</p>","0","","","","","",""
"html-button-response-mod","208","179696","0.0-208.0","74133","","","","","","triplet","488.09999999403954","","","","1","stimuli/stim006_animate_bird_2.png","stimuli/stim023_inanimate_tools_3.png","stimuli/tree_uppercase.png","200"
"html-button-response-mod","209","180563","0.0-209.0","74133","","","","","","triplet","365.2000000178814","","","","2","stimuli/fish_lowercase.png","stimuli/stim015_inanimate_boats_3.png","stimuli/stim021_inanimate_tools_1.png","201"
"html-button-response-mod","210","181328","0.0-210.0","74133","","","","","","triplet","262.69999998807907","","","","0","stimuli/stim024_inanimate_tools_4.png","stimuli/stim017_inanimate_tree_1.png","stimuli/stim023_inanimate_tools_3.png","202"
"html-button-response-mod","211","182208","0.0-211.0","74133","","","","","","triplet","378.40000000596046","","","","2","stimuli/stim009_animate_face_1.png","stimuli/stim002_animate_fish_2.png","stimuli/stim021_inanimate_tools_1.png","203"
"html-button-response-mod","212","182819","0.0-212.0","74133","","","","","","triplet","109.19999998807907","","","","1","stimuli/stim002_animate_fish_2.png","stimuli/stim022_inanimate_tools_2.png","stimuli/tools_uppercase.png","204"
"html-button-response-mod","213","183455","0.0-213.0","74133","","","","","","triplet","134.60000002384186","","","","2","stimuli/stim018_inanimate_tree_2.png","stimuli/bird_uppercase.png","stimuli/stim012_animate_face_4.png","205"
"html-button-response-mod","214","184075","0.0-214.0","74133","","","","","","triplet","118.40000000596046","","","","0","stimuli/stim006_animate_bird_2.png","stimuli/stim014_inanimate_boats_2.png","stimuli/tree_lowercase.png","206"
"html-button-response-mod","215","185453","0.0-215.0","74133","","","","","","triplet","876.8000000119209","","","","1","stimuli/stim022_inanimate_tools_2.png","stimuli/stim013_inanimate_boats_1.png","stimuli/face_lowercase.png","207"
"html-button-response-mod","216","186521","0.0-216.0","74133","","","","","","triplet","566.4000000059605","","","","2","stimuli/stim024_inanimate_tools_4.png","stimuli/stim004_animate_fish_4.png","stimuli/stim010_animate_face_2.png","208"
"html-button-response-mod","217","187274","0.0-217.0","74133","","","","","","triplet","251.69999998807907","","","","0","stimuli/stim021_inanimate_tools_1.png","stimuli/stim003_animate_fish_3.png","stimuli/fish_uppercase.png","209"
"html-button-response-mod","218","188100","0.0-218.0","74133","","","","","","triplet","324.09999999403954","","","","2","stimuli/stim017_inanimate_tree_1.png","stimuli/face_lowercase.png","stimuli/stim014_inanimate_boats_2.png","210"
"html-button-response-mod","219","189006","0.0-219.0","74133","","","","","","triplet","404.40000000596046","","","","1","stimuli/stim001_animate_fish_1.png","stimuli/stim009_animate_face_1.png","stimuli/bird_lowercase.png","211"
"html-button-response-mod","220","189890","0.0-220.0","74133","","","","","","triplet","382.40000000596046","","","","0","stimuli/stim024_inanimate_tools_4.png","stimuli/stim003_animate_fish_3.png","stimuli/stim023_inanimate_tools_3.png","212"
"html-button-response-mod","221","190698","0.0-221.0","74133","","","","","","triplet","306.2999999821186","","","","2","stimuli/fish_lowercase.png","stimuli/stim006_animate_bird_2.png","stimuli/stim015_inanimate_boats_3.png","213"
"html-button-response-mod","222","191471","0.0-222.0","74133","","","","","","triplet","271.69999998807907","","","","1","stimuli/stim023_inanimate_tools_3.png","stimuli/stim015_inanimate_boats_3.png","stimuli/stim004_animate_fish_4.png","214"
"html-button-response-mod","223","192092","0.0-223.0","74133","","","","","","triplet","119.5","","","","2","stimuli/stim018_inanimate_tree_2.png","stimuli/stim001_animate_fish_1.png","stimuli/stim004_animate_fish_4.png","215"
"html-button-response-mod","224","192854","0.0-224.0","74133","","","","","","triplet","260.69999998807907","","","","0","stimuli/stim021_inanimate_tools_1.png","stimuli/stim005_animate_bird_1.png","stimuli/stim009_animate_face_1.png","216"
"html-button-response-mod","225","193619","0.0-225.0","74133","","","","","","triplet","263.2999999821186","","","","2","stimuli/stim019_inanimate_tree_3.png","stimuli/fish_uppercase.png","stimuli/stim017_inanimate_tree_1.png","217"
"html-button-response-mod","226","194580","0.0-226.0","74133","","","","","","triplet","459.69999998807907","","","","0","stimuli/tree_lowercase.png","stimuli/boats_uppercase.png","stimuli/stim005_animate_bird_1.png","218"
"html-button-response-mod","227","195708","0.0-227.0","74133","","","","","","triplet","626.5","","","","2","stimuli/stim019_inanimate_tree_3.png","stimuli/stim011_animate_face_3.png","stimuli/stim024_inanimate_tools_4.png","219"
"html-button-response-mod","228","196337","0.0-228.0","74133","","","","","","triplet","127.40000000596046","","","","0","stimuli/boats_lowercase.png","stimuli/stim001_animate_fish_1.png","stimuli/stim022_inanimate_tools_2.png","220"
"html-button-response-mod","229","197093","0.0-229.0","74133","","","","","","triplet","255","","","","2","stimuli/tree_uppercase.png","stimuli/stim024_inanimate_tools_4.png","stimuli/stim001_animate_fish_1.png","221"
"html-button-response-mod","230","198120","0.0-230.0","74133","","","","","","triplet","525.7999999821186","","","","0","stimuli/tree_lowercase.png","stimuli/boats_uppercase.png","stimuli/stim024_inanimate_tools_4.png","222"
"html-button-response-mod","231","200787","0.0-231.0","74133","","","","","","triplet","2165.800000011921","","","","2","stimuli/fish_lowercase.png","stimuli/stim001_animate_fish_1.png","stimuli/stim008_animate_bird_4.png","223"
"html-button-response-mod","232","204168","0.0-232.0","74133","","","","","","triplet","2879.5","","","","1","stimuli/stim020_inanimate_tree_4.png","stimuli/face_lowercase.png","stimuli/tree_uppercase.png","224"
"html-button-response-mod","233","205254","0.0-233.0","74133","","","","","","triplet","584.4000000059605","","","","0","stimuli/stim010_animate_face_2.png","stimuli/bird_lowercase.png","stimuli/face_uppercase.png","225"
"html-button-response-mod","234","206169","0.0-234.0","74133","","","","","","triplet","413.7000000178814","","","","2","stimuli/stim018_inanimate_tree_2.png","stimuli/stim013_inanimate_boats_1.png","stimuli/stim020_inanimate_tree_4.png","226"
"html-button-response-mod","235","206761","0.0-235.0","74133","","","","","","triplet","89.59999999403954","","","","1","stimuli/boats_uppercase.png","stimuli/face_lowercase.png","stimuli/stim013_inanimate_boats_1.png","227"
"html-button-response-mod","236","207430","0.0-236.0","74133","","","","","","triplet","167.7999999821186","","","","2","stimuli/boats_lowercase.png","stimuli/stim014_inanimate_boats_2.png","stimuli/bird_lowercase.png","228"
"html-button-response-mod","237","208029","0.0-237.0","74133","","","","","","triplet","97.69999998807907","","","","0","stimuli/stim009_animate_face_1.png","stimuli/boats_uppercase.png","stimuli/fish_uppercase.png","229"
"html-button-response-mod","238","208639","0.0-238.0","74133","","","","","","triplet","108.59999999403954","","","","2","stimuli/stim019_inanimate_tree_3.png","stimuli/tools_uppercase.png","stimuli/stim007_animate_bird_3.png","230"
"html-button-response-mod","239","209301","0.0-239.0","74133","","","","","","triplet","160.69999998807907","","","","0","stimuli/stim011_animate_face_3.png","stimuli/stim020_inanimate_tree_4.png","stimuli/tools_uppercase.png","231"
"html-button-response-mod","240","209946","0.0-240.0","74133","","","","","","triplet","142.80000001192093","","","","2","stimuli/stim011_animate_face_3.png","stimuli/stim021_inanimate_tools_1.png","stimuli/stim024_inanimate_tools_4.png","232"
"html-button-response-mod","241","210608","0.0-241.0","74133","","","","","","triplet","159.7000000178814","","","","0","stimuli/stim021_inanimate_tools_1.png","stimuli/bird_uppercase.png","stimuli/stim005_animate_bird_1.png","233"
"html-button-response-mod","242","211283","0.0-242.0","74133","","","","","","triplet","173.90000000596046","","","","2","stimuli/stim018_inanimate_tree_2.png","stimuli/stim005_animate_bird_1.png","stimuli/stim021_inanimate_tools_1.png","234"
"html-button-response-mod","243","212043","0.0-243.0","74133","","","","","","triplet","258.69999998807907","","","","0","stimuli/stim007_animate_bird_3.png","stimuli/stim011_animate_face_3.png","stimuli/bird_lowercase.png","235"
"html-button-response-mod","244","212769","0.0-244.0","74133","","","","","","triplet","223.59999999403954","","","","2","stimuli/stim015_inanimate_boats_3.png","stimuli/stim010_animate_face_2.png","stimuli/stim007_animate_bird_3.png","236"
"html-button-response-mod","245","213400","0.0-245.0","74133","","","","","","triplet","129.90000000596046","","","","0","stimuli/tools_uppercase.png","stimuli/stim015_inanimate_boats_3.png","stimuli/stim009_animate_face_1.png","237"
"html-button-response-mod","246","214107","0.0-246.0","74133","","","","","","triplet","206","","","","1","stimuli/stim016_inanimate_boats_4.png","stimuli/tree_lowercase.png","stimuli/stim014_inanimate_boats_2.png","238"
"html-button-response-mod","247","214803","0.0-247.0","74133","","","","","","triplet","193.80000001192093","","","","1","stimuli/stim019_inanimate_tree_3.png","stimuli/stim008_animate_bird_4.png","stimuli/boats_lowercase.png","239"
"html-button-response-mod","248","215475","0.0-248.0","74133","","","","","","triplet","169.89999997615814","","","","2","stimuli/stim012_animate_face_4.png","stimuli/tree_uppercase.png","stimuli/tools_uppercase.png","240"
"html-button-response-mod","249","216219","0.0-249.0","74133","","","","","","triplet","242.80000001192093","","","","0","stimuli/stim018_inanimate_tree_2.png","stimuli/tree_uppercase.png","stimuli/tools_uppercase.png","241"
"html-button-response-mod","250","216872","0.0-250.0","74133","","","","","","triplet","151.80000001192093","","","","2","stimuli/stim024_inanimate_tools_4.png","stimuli/tools_uppercase.png","stimuli/stim022_inanimate_tools_2.png","242"
"html-button-response-mod","251","217627","0.0-251.0","74133","","","","","","triplet","252.60000002384186","","","","0","stimuli/stim014_inanimate_boats_2.png","stimuli/stim017_inanimate_tree_1.png","stimuli/tools_lowercase.png","243"
"html-button-response-mod","252","218565","0.0-252.0","74133","","","","","","triplet","435.69999998807907","","","","2","stimuli/stim018_inanimate_tree_2.png","stimuli/stim015_inanimate_boats_3.png","stimuli/stim012_animate_face_4.png","244"
"html-button-response-mod","253","219235","0.0-253.0","74133","","","","","","triplet","168.80000001192093","","","","0","stimuli/stim003_animate_fish_3.png","stimuli/stim015_inanimate_boats_3.png","stimuli/tree_lowercase.png","245"
"html-button-response-mod","254","220012","0.0-254.0","74133","","","","","","triplet","275.7000000178814","","","","2","stimuli/stim012_animate_face_4.png","stimuli/stim004_animate_fish_4.png","stimuli/stim022_inanimate_tools_2.png","246"
"html-button-response-mod","255","220855","0.0-255.0","74133","","","","","","triplet","341.60000002384186","","","","0","stimuli/stim010_animate_face_2.png","stimuli/stim009_animate_face_1.png","stimuli/stim012_animate_face_4.png","247"
"html-button-response-mod","256","221584","0.0-256.0","74133","","","","","","triplet","227.60000002384186","","","","1","stimuli/fish_uppercase.png","stimuli/tools_lowercase.png","stimuli/stim009_animate_face_1.png","248"
"html-button-response-mod","257","222281","0.0-257.0","74133","","","","","","triplet","195.59999999403954","","","","1","stimuli/stim005_animate_bird_1.png","stimuli/fish_uppercase.png","stimuli/stim003_animate_fish_3.png","249"
"html-button-response","258","223925","0.0-258.0","74133","","","","","","break","1143","<p>BREAK</p><p>Take a break for as long as you need</p><p>Click the button to continue</p>","0","","","","","",""
"html-button-response-mod","259","224459","0.0-259.0","74133","","","","","","triplet","533","","","","2","stimuli/tree_uppercase.png","stimuli/face_uppercase.png","stimuli/stim024_inanimate_tools_4.png","250"
"html-button-response-mod","260","225242","0.0-260.0","74133","","","","","","triplet","281.7000000178814","","","","0","stimuli/stim011_animate_face_3.png","stimuli/stim019_inanimate_tree_3.png","stimuli/stim014_inanimate_boats_2.png","251"
"html-button-response-mod","261","225925","0.0-261.0","74133","","","","","","triplet","180.80000001192093","","","","1","stimuli/boats_uppercase.png","stimuli/bird_lowercase.png","stimuli/stim011_animate_face_3.png","252"
"html-button-response-mod","262","226725","0.0-262.0","74133","","","","","","triplet","298.7000000178814","","","","0","stimuli/tools_lowercase.png","stimuli/stim009_animate_face_1.png","stimuli/stim018_inanimate_tree_2.png","253"
"html-button-response-mod","263","228292","0.0-263.0","74133","","","","","","triplet","1065.5","","","","2","stimuli/stim022_inanimate_tools_2.png","stimuli/stim014_inanimate_boats_2.png","stimuli/tools_lowercase.png","254"
"html-button-response-mod","264","229395","0.0-264.0","74133","","","","","","triplet","601.0999999940395","","","","2","stimuli/stim013_inanimate_boats_1.png","stimuli/boats_lowercase.png","stimuli/stim010_animate_face_2.png","255"
"html-button-response-mod","265","230324","0.0-265.0","74133","","","","","","triplet","427.2000000178814","","","","2","stimuli/stim013_inanimate_boats_1.png","stimuli/stim006_animate_bird_2.png","stimuli/fish_uppercase.png","256"
"html-button-response-mod","266","231242","0.0-266.0","74133","","","","","","triplet","415.7000000178814","","","","2","stimuli/stim002_animate_fish_2.png","stimuli/stim018_inanimate_tree_2.png","stimuli/stim022_inanimate_tools_2.png","257"
"html-button-response-mod","267","231848","0.0-267.0","74133","","","","","","triplet","104.7000000178814","","","","1","stimuli/stim021_inanimate_tools_1.png","stimuli/face_uppercase.png","stimuli/tools_lowercase.png","258"
"html-button-response-mod","268","232535","0.0-268.0","74133","","","","","","triplet","185.7000000178814","","","","2","stimuli/stim019_inanimate_tree_3.png","stimuli/stim007_animate_bird_3.png","stimuli/tools_lowercase.png","259"
"html-button-response-mod","269","233169","0.0-269.0","74133","","","","","","triplet","133.2000000178814","","","","0","stimuli/face_lowercase.png","stimuli/stim003_animate_fish_3.png","stimuli/boats_lowercase.png","260"
"html-button-response-mod","270","234062","0.0-270.0","74133","","","","","","triplet","391.60000002384186","","","","2","stimuli/boats_uppercase.png","stimuli/stim009_animate_face_1.png","stimuli/stim022_inanimate_tools_2.png","261"
"html-button-response-mod","271","235364","0.0-271.0","74133","","","","","","triplet","800.8000000119209","","","","1","stimuli/stim007_animate_bird_3.png","stimuli/face_uppercase.png","stimuli/stim018_inanimate_tree_2.png","262"
"html-button-response-mod","272","236992","0.0-272.0","74133","","","","","","triplet","1126.9000000059605","","","","1","stimuli/bird_lowercase.png","stimuli/stim019_inanimate_tree_3.png","stimuli/fish_uppercase.png","263"
"html-button-response-mod","273","238142","0.0-273.0","74133","","","","","","triplet","648.8000000119209","","","","1","stimuli/boats_lowercase.png","stimuli/stim021_inanimate_tools_1.png","stimuli/stim013_inanimate_boats_1.png","264"
"html-button-response-mod","274","239178","0.0-274.0","74133","","","","","","triplet","534.3000000119209","","","","1","stimuli/stim020_inanimate_tree_4.png","stimuli/boats_uppercase.png","stimuli/face_uppercase.png","265"
"html-button-response-mod","275","240287","0.0-275.0","74133","","","","","","triplet","607.7000000178814","","","","1","stimuli/stim001_animate_fish_1.png","stimuli/tree_uppercase.png","stimuli/stim005_animate_bird_1.png","266"
"html-button-response-mod","276","241959","0.0-276.0","74133","","","","","","triplet","1170.800000011921","","","","2","stimuli/stim005_animate_bird_1.png","stimuli/stim008_animate_bird_4.png","stimuli/stim006_animate_bird_2.png","267"
"html-button-response-mod","277","242956","0.0-277.0","74133","","","","","","triplet","494.80000001192093","","","","1","stimuli/fish_uppercase.png","stimuli/stim006_animate_bird_2.png","stimuli/stim003_animate_fish_3.png","268"
"html-button-response-mod","278","245121","0.0-278.0","74133","","","","","","triplet","1663.5","","","","1","stimuli/stim010_animate_face_2.png","stimuli/stim008_animate_bird_4.png","stimuli/stim004_animate_fish_4.png","269"
"html-button-response-mod","279","246408","0.0-279.0","74133","","","","","","triplet","785.0999999940395","","","","2","stimuli/stim010_animate_face_2.png","stimuli/boats_lowercase.png","stimuli/stim023_inanimate_tools_3.png","270"
"html-button-response-mod","280","251202","0.0-280.0","74133","","","","","","triplet","4293.700000017881","","","","2","stimuli/stim002_animate_fish_2.png","stimuli/stim007_animate_bird_3.png","stimuli/stim006_animate_bird_2.png","271"
"html-button-response-mod","281","254771","0.0-281.0","74133","","","","","","triplet","3067.800000011921","","","","1","stimuli/stim012_animate_face_4.png","stimuli/fish_lowercase.png","stimuli/stim017_inanimate_tree_1.png","272"
"html-button-response-mod","282","255445","0.0-282.0","74133","","","","","","triplet","172.90000000596046","","","","0","stimuli/fish_uppercase.png","stimuli/stim002_animate_fish_2.png","stimuli/boats_lowercase.png","273"
"html-button-response-mod","283","256108","0.0-283.0","74133","","","","","","triplet","161.7000000178814","","","","1","stimuli/stim024_inanimate_tools_4.png","stimuli/tree_uppercase.png","stimuli/stim014_inanimate_boats_2.png","274"
"html-button-response-mod","284","257260","0.0-284.0","74133","","","","","","triplet","649.7000000178814","","","","0","stimuli/stim024_inanimate_tools_4.png","stimuli/stim002_animate_fish_2.png","stimuli/stim018_inanimate_tree_2.png","275"
"html-button-response-mod","285","257941","0.0-285.0","74133","","","","","","triplet","179.7000000178814","","","","2","stimuli/stim002_animate_fish_2.png","stimuli/stim015_inanimate_boats_3.png","stimuli/stim009_animate_face_1.png","276"
"html-button-response-mod","286","258816","0.0-286.0","74133","","","","","","triplet","372.80000001192093","","","","2","stimuli/tree_lowercase.png","stimuli/boats_uppercase.png","stimuli/stim010_animate_face_2.png","277"
"html-button-response-mod","287","259710","0.0-287.0","74133","","","","","","triplet","392.59999999403954","","","","2","stimuli/bird_lowercase.png","stimuli/stim019_inanimate_tree_3.png","stimuli/tree_lowercase.png","278"
"html-button-response-mod","288","260915","0.0-288.0","74133","","","","","","triplet","703.7000000178814","","","","2","stimuli/face_uppercase.png","stimuli/stim019_inanimate_tree_3.png","stimuli/stim022_inanimate_tools_2.png","279"
"html-button-response-mod","289","261787","0.0-289.0","74133","","","","","","triplet","370.80000001192093","","","","2","stimuli/stim016_inanimate_boats_4.png","stimuli/stim002_animate_fish_2.png","stimuli/stim011_animate_face_3.png","280"
"html-button-response-mod","290","262704","0.0-290.0","74133","","","","","","triplet","415.90000000596046","","","","2","stimuli/stim002_animate_fish_2.png","stimuli/stim012_animate_face_4.png","stimuli/tree_lowercase.png","281"
"html-button-response-mod","291","263597","0.0-291.0","74133","","","","","","triplet","391.80000001192093","","","","2","stimuli/stim007_animate_bird_3.png","stimuli/stim010_animate_face_2.png","stimuli/bird_lowercase.png","282"
"html-button-response-mod","292","264493","0.0-292.0","74133","","","","","","triplet","394.5","","","","0","stimuli/stim024_inanimate_tools_4.png","stimuli/face_lowercase.png","stimuli/stim019_inanimate_tree_3.png","283"
"html-button-response-mod","293","265461","0.0-293.0","74133","","","","","","triplet","466.90000000596046","","","","2","stimuli/stim024_inanimate_tools_4.png","stimuli/stim018_inanimate_tree_2.png","stimuli/boats_lowercase.png","284"
"html-button-response-mod","294","266488","0.0-294.0","74133","","","","","","triplet","525.8000000119209","","","","2","stimuli/bird_uppercase.png","stimuli/stim013_inanimate_boats_1.png","stimuli/stim020_inanimate_tree_4.png","285"
"html-button-response-mod","295","267714","0.0-295.0","74133","","","","","","triplet","724.1000000238419","","","","2","stimuli/bird_lowercase.png","stimuli/stim024_inanimate_tools_4.png","stimuli/stim021_inanimate_tools_1.png","286"
"html-button-response-mod","296","268313","0.0-296.0","74133","","","","","","triplet","97.80000001192093","","","","1","stimuli/face_uppercase.png","stimuli/stim004_animate_fish_4.png","stimuli/stim023_inanimate_tools_3.png","287"
"html-button-response-mod","297","269521","0.0-297.0","74133","","","","","","triplet","707.1999999880791","","","","2","stimuli/stim006_animate_bird_2.png","stimuli/tree_lowercase.png","stimuli/stim024_inanimate_tools_4.png","288"
"html-button-response-mod","298","270303","0.0-298.0","74133","","","","","","triplet","280.69999998807907","","","","2","stimuli/stim010_animate_face_2.png","stimuli/stim017_inanimate_tree_1.png","stimuli/stim015_inanimate_boats_3.png","289"
"html-button-response-mod","299","271029","0.0-299.0","74133","","","","","","triplet","224.80000001192093","","","","2","stimuli/tools_lowercase.png","stimuli/stim023_inanimate_tools_3.png","stimuli/stim018_inanimate_tree_2.png","290"
"html-button-response-mod","300","271748","0.0-300.0","74133","","","","","","triplet","217.59999999403954","","","","2","stimuli/stim005_animate_bird_1.png","stimuli/stim020_inanimate_tree_4.png","stimuli/tools_uppercase.png","291"
"html-button-response-mod","301","272831","0.0-301.0","74133","","","","","","triplet","581.8000000119209","","","","1","stimuli/fish_lowercase.png","stimuli/stim012_animate_face_4.png","stimuli/stim019_inanimate_tree_3.png","292"
"html-button-response-mod","302","274712","0.0-302.0","74133","","","","","","triplet","1378.800000011921","","","","1","stimuli/stim008_animate_bird_4.png","stimuli/stim015_inanimate_boats_3.png","stimuli/stim010_animate_face_2.png","293"
"html-button-response-mod","303","275521","0.0-303.0","74133","","","","","","triplet","306.10000002384186","","","","2","stimuli/stim004_animate_fish_4.png","stimuli/stim022_inanimate_tools_2.png","stimuli/stim020_inanimate_tree_4.png","294"
"html-button-response-mod","304","276302","0.0-304.0","74133","","","","","","triplet","279","","","","2","stimuli/tools_lowercase.png","stimuli/stim018_inanimate_tree_2.png","stimuli/stim014_inanimate_boats_2.png","295"
"html-button-response-mod","305","277027","0.0-305.0","74133","","","","","","triplet","224.09999999403954","","","","2","stimuli/face_lowercase.png","stimuli/boats_uppercase.png","stimuli/stim023_inanimate_tools_3.png","296"
"html-button-response-mod","306","278036","0.0-306.0","74133","","","","","","triplet","507.80000001192093","","","","2","stimuli/tools_lowercase.png","stimuli/tools_uppercase.png","stimuli/stim009_animate_face_1.png","297"
"html-button-response-mod","307","279549","0.0-307.0","74133","","","","","","triplet","1012","","","","1","stimuli/stim017_inanimate_tree_1.png","stimuli/stim009_animate_face_1.png","stimuli/stim016_inanimate_boats_4.png","298"
"html-button-response-mod","308","280987","0.0-308.0","74133","","","","","","triplet","936.9000000059605","","","","2","stimuli/stim009_animate_face_1.png","stimuli/stim001_animate_fish_1.png","stimuli/stim008_animate_bird_4.png","299"
"html-button-response","309","286756","0.0-309.0","74133","","","","","","break","5267","<p>BREAK</p><p>Take a break for as long as you need</p><p>Click the button to continue</p>","0","","","","","",""
"html-button-response-mod","310","287118","0.0-310.0","74133","","","","","","triplet","361.90000000596046","","","","0","stimuli/face_lowercase.png","stimuli/stim019_inanimate_tree_3.png","stimuli/stim015_inanimate_boats_3.png","300"
"html-button-response-mod","311","288649","0.0-311.0","74133","","","","","","triplet","1029.9000000059605","","","","2","stimuli/stim006_animate_bird_2.png","stimuli/stim008_animate_bird_4.png","stimuli/stim004_animate_fish_4.png","301"
"html-button-response-mod","312","289387","0.0-312.0","74133","","","","","","triplet","236.90000000596046","","","","2","stimuli/stim014_inanimate_boats_2.png","stimuli/stim007_animate_bird_3.png","stimuli/stim009_animate_face_1.png","302"
"html-button-response-mod","313","290093","0.0-313.0","74133","","","","","","triplet","203.90000000596046","","","","2","stimuli/stim020_inanimate_tree_4.png","stimuli/tree_uppercase.png","stimuli/boats_lowercase.png","303"
"html-button-response-mod","314","290991","0.0-314.0","74133","","","","","","triplet","397.90000000596046","","","","2","stimuli/stim006_animate_bird_2.png","stimuli/stim008_animate_bird_4.png","stimuli/stim012_animate_face_4.png","304"
"html-button-response-mod","315","291880","0.0-315.0","74133","","","","","","triplet","387.90000000596046","","","","2","stimuli/face_uppercase.png","stimuli/stim013_inanimate_boats_1.png","stimuli/stim018_inanimate_tree_2.png","305"
"html-button-response-mod","316","292811","0.0-316.0","74133","","","","","","triplet","427.7999999821186","","","","2","stimuli/stim016_inanimate_boats_4.png","stimuli/fish_uppercase.png","stimuli/bird_lowercase.png","306"
"html-button-response-mod","317","293708","0.0-317.0","74133","","","","","","triplet","395.90000000596046","","","","2","stimuli/bird_lowercase.png","stimuli/stim012_animate_face_4.png","stimuli/tools_uppercase.png","307"
"html-button-response-mod","318","294605","0.0-318.0","74133","","","","","","triplet","394.7999999821186","","","","2","stimuli/stim006_animate_bird_2.png","stimuli/stim014_inanimate_boats_2.png","stimuli/stim004_animate_fish_4.png","308"
"html-button-response-mod","319","295563","0.0-319.0","74133","","","","","","triplet","456.5","","","","2","stimuli/stim006_animate_bird_2.png","stimuli/stim024_inanimate_tools_4.png","stimuli/stim018_inanimate_tree_2.png","309"
"html-button-response-mod","320","296507","0.0-320.0","74133","","","","","","triplet","443","","","","2","stimuli/bird_uppercase.png","stimuli/stim007_animate_bird_3.png","stimuli/face_lowercase.png","310"
"html-button-response-mod","321","297430","0.0-321.0","74133","","","","","","triplet","421.7999999821186","","","","2","stimuli/stim003_animate_fish_3.png","stimuli/boats_lowercase.png","stimuli/fish_uppercase.png","311"
"html-button-response-mod","322","299037","0.0-322.0","74133","","","","","","triplet","1105.2999999821186","","","","1","stimuli/stim003_animate_fish_3.png","stimuli/face_lowercase.png","stimuli/tree_uppercase.png","312"
"html-button-response-mod","323","300571","0.0-323.0","74133","","","","","","triplet","1032.699999988079","","","","2","stimuli/stim024_inanimate_tools_4.png","stimuli/stim020_inanimate_tree_4.png","stimuli/stim003_animate_fish_3.png","313"
"html-button-response-mod","324","302535","0.0-324.0","74133","","","","","","triplet","1462.8999999761581","","","","2","stimuli/stim017_inanimate_tree_1.png","stimuli/bird_uppercase.png","stimuli/stim013_inanimate_boats_1.png","314"
"html-button-response-mod","325","308683","0.0-325.0","74133","","","","","","triplet","5647.0999999940395","","","","1","stimuli/face_lowercase.png","stimuli/tools_uppercase.png","stimuli/boats_uppercase.png","315"
"html-button-response-mod","326","309384","0.0-326.0","74133","","","","","","triplet","200.10000002384186","","","","2","stimuli/stim016_inanimate_boats_4.png","stimuli/stim014_inanimate_boats_2.png","stimuli/stim012_animate_face_4.png","316"
"html-button-response-mod","327","310264","0.0-327.0","74133","","","","","","triplet","378.5","","","","2","stimuli/stim009_animate_face_1.png","stimuli/stim024_inanimate_tools_4.png","stimuli/stim014_inanimate_boats_2.png","317"
"html-button-response-mod","328","311692","0.0-328.0","74133","","","","","","triplet","926.6999999880791","","","","1","stimuli/stim003_animate_fish_3.png","stimuli/boats_uppercase.png","stimuli/stim001_animate_fish_1.png","318"
"html-button-response-mod","329","312441","0.0-329.0","74133","","","","","","triplet","247.19999998807907","","","","2","stimuli/tools_uppercase.png","stimuli/fish_uppercase.png","stimuli/stim016_inanimate_boats_4.png","319"
"html-button-response-mod","330","313477","0.0-330.0","74133","","","","","","triplet","534","","","","2","stimuli/stim003_animate_fish_3.png","stimuli/stim006_animate_bird_2.png","stimuli/tools_lowercase.png","320"
"html-button-response-mod","331","314562","0.0-331.0","74133","","","","","","triplet","584","","","","2","stimuli/stim018_inanimate_tree_2.png","stimuli/stim009_animate_face_1.png","stimuli/stim003_animate_fish_3.png","321"
"html-button-response-mod","332","315628","0.0-332.0","74133","","","","","","triplet","564.8000000119209","","","","2","stimuli/stim016_inanimate_boats_4.png","stimuli/tools_uppercase.png","stimuli/stim018_inanimate_tree_2.png","322"
"html-button-response-mod","333","316598","0.0-333.0","74133","","","","","","triplet","468.2999999821186","","","","2","stimuli/stim018_inanimate_tree_2.png","stimuli/stim002_animate_fish_2.png","stimuli/stim005_animate_bird_1.png","323"
"html-button-response-mod","334","317707","0.0-334.0","74133","","","","","","triplet","607.7999999821186","","","","2","stimuli/stim018_inanimate_tree_2.png","stimuli/stim006_animate_bird_2.png","stimuli/stim023_inanimate_tools_3.png","324"
"html-button-response-mod","335","318619","0.0-335.0","74133","","","","","","triplet","410.59999999403954","","","","2","stimuli/stim017_inanimate_tree_1.png","stimuli/stim002_animate_fish_2.png","stimuli/stim006_animate_bird_2.png","325"
"html-button-response-mod","336","319625","0.0-336.0","74133","","","","","","triplet","505","","","","2","stimuli/tools_uppercase.png","stimuli/stim003_animate_fish_3.png","stimuli/stim006_animate_bird_2.png","326"
"html-button-response-mod","337","320677","0.0-337.0","74133","","","","","","triplet","550.6999999880791","","","","2","stimuli/fish_lowercase.png","stimuli/tools_uppercase.png","stimuli/tree_lowercase.png","327"
"html-button-response-mod","338","321673","0.0-338.0","74133","","","","","","triplet","495.10000002384186","","","","2","stimuli/stim015_inanimate_boats_3.png","stimuli/stim010_animate_face_2.png","stimuli/stim006_animate_bird_2.png","328"
"html-button-response-mod","339","322620","0.0-339.0","74133","","","","","","triplet","444.5","","","","2","stimuli/tree_lowercase.png","stimuli/stim019_inanimate_tree_3.png","stimuli/stim023_inanimate_tools_3.png","329"
"html-button-response-mod","340","323656","0.0-340.0","74133","","","","","","triplet","535","","","","2","stimuli/face_uppercase.png","stimuli/stim008_animate_bird_4.png","stimuli/stim023_inanimate_tools_3.png","330"
"html-button-response-mod","341","324753","0.0-341.0","74133","","","","","","triplet","595.7000000178814","","","","2","stimuli/stim008_animate_bird_4.png","stimuli/stim005_animate_bird_1.png","stimuli/stim007_animate_bird_3.png","331"
"html-button-response-mod","342","326400","0.0-342.0","74133","","","","","","triplet","1145.1000000238419","","","","0","stimuli/stim019_inanimate_tree_3.png","stimuli/stim004_animate_fish_4.png","stimuli/face_uppercase.png","332"
"html-button-response-mod","343","327434","0.0-343.0","74133","","","","","","triplet","532.0999999940395","","","","1","stimuli/stim023_inanimate_tools_3.png","stimuli/stim003_animate_fish_3.png","stimuli/stim014_inanimate_boats_2.png","333"
"html-button-response-mod","344","329438","0.0-344.0","74133","","","","","","triplet","1503.1000000238419","","","","0","stimuli/stim015_inanimate_boats_3.png","stimuli/stim001_animate_fish_1.png","stimuli/face_lowercase.png","334"
"html-button-response-mod","345","330415","0.0-345.0","74133","","","","","","triplet","475.59999999403954","","","","1","stimuli/tree_lowercase.png","stimuli/stim010_animate_face_2.png","stimuli/stim003_animate_fish_3.png","335"
"html-button-response-mod","346","331451","0.0-346.0","74133","","","","","","triplet","535.1000000238419","","","","1","stimuli/stim009_animate_face_1.png","stimuli/face_uppercase.png","stimuli/tree_uppercase.png","336"
"html-button-response-mod","347","332406","0.0-347.0","74133","","","","","","triplet","452.30000001192093","","","","1","stimuli/bird_uppercase.png","stimuli/stim001_animate_fish_1.png","stimuli/tree_lowercase.png","337"
"html-button-response-mod","348","333329","0.0-348.0","74133","","","","","","triplet","421.2000000178814","","","","1","stimuli/bird_uppercase.png","stimuli/stim009_animate_face_1.png","stimuli/stim010_animate_face_2.png","338"
"html-button-response-mod","349","338489","0.0-349.0","74133","","","","","","triplet","4658.700000017881","","","","0","stimuli/stim001_animate_fish_1.png","stimuli/stim023_inanimate_tools_3.png","stimuli/stim020_inanimate_tree_4.png","339"
"html-button-response-mod","350","339468","0.0-350.0","74133","","","","","","triplet","477.80000001192093","","","","1","stimuli/stim018_inanimate_tree_2.png","stimuli/boats_lowercase.png","stimuli/tree_uppercase.png","340"
"html-button-response-mod","351","340115","0.0-351.0","74133","","","","","","triplet","145.2000000178814","","","","1","stimuli/stim013_inanimate_boats_1.png","stimuli/stim008_animate_bird_4.png","stimuli/stim002_animate_fish_2.png","341"
"html-button-response-mod","352","341041","0.0-352.0","74133","","","","","","triplet","425.2000000178814","","","","1","stimuli/boats_uppercase.png","stimuli/stim018_inanimate_tree_2.png","stimuli/tools_uppercase.png","342"
"html-button-response-mod","353","342705","0.0-353.0","74133","","","","","","triplet","1163","","","","0","stimuli/stim009_animate_face_1.png","stimuli/tree_uppercase.png","stimuli/tree_lowercase.png","343"
"html-button-response-mod","354","343328","0.0-354.0","74133","","","","","","triplet","122.2000000178814","","","","2","stimuli/face_uppercase.png","stimuli/stim012_animate_face_4.png","stimuli/stim002_animate_fish_2.png","344"
"html-button-response-mod","355","344091","0.0-355.0","74133","","","","","","triplet","261.80000001192093","","","","1","stimuli/fish_lowercase.png","stimuli/stim015_inanimate_boats_3.png","stimuli/stim020_inanimate_tree_4.png","345"
"html-button-response-mod","356","345096","0.0-356.0","74133","","","","","","triplet","503","","","","2","stimuli/tools_uppercase.png","stimuli/stim007_animate_bird_3.png","stimuli/face_uppercase.png","346"
"html-button-response-mod","357","345788","0.0-357.0","74133","","","","","","triplet","190.7000000178814","","","","2","stimuli/stim006_animate_bird_2.png","stimuli/stim001_animate_fish_1.png","stimuli/face_uppercase.png","347"
"html-button-response-mod","358","346497","0.0-358.0","74133","","","","","","triplet","208.2000000178814","","","","1","stimuli/boats_uppercase.png","stimuli/stim010_animate_face_2.png","stimuli/stim015_inanimate_boats_3.png","348"
"html-button-response-mod","359","347174","0.0-359.0","74133","","","","","","triplet","174.2000000178814","","","","0","stimuli/stim001_animate_fish_1.png","stimuli/stim004_animate_fish_4.png","stimuli/stim005_animate_bird_1.png","349"
"html-button-response","360","472769","0.0-360.0","74133","","","","","","break","125092.59999999404","<p>BREAK</p><p>Take a break for as long as you need</p><p>Click the button to continue</p>","0","","","","","",""
"html-button-response-mod","361","473140","0.0-361.0","74133","","","","","","triplet","369.7000000178814","","","","0","stimuli/stim011_animate_face_3.png","stimuli/stim012_animate_face_4.png","stimuli/tree_uppercase.png","350"
"html-button-response-mod","362","473762","0.0-362.0","74133","","","","","","triplet","120","","","","2","stimuli/stim002_animate_fish_2.png","stimuli/stim003_animate_fish_3.png","stimuli/stim010_animate_face_2.png","351"
"html-button-response-mod","363","474895","0.0-363.0","74133","","","","","","triplet","631.8000000119209","","","","1","stimuli/stim003_animate_fish_3.png","stimuli/stim009_animate_face_1.png","stimuli/stim001_animate_fish_1.png","352"
"html-button-response-mod","364","475571","0.0-364.0","74133","","","","","","triplet","174.80000001192093","","","","2","stimuli/stim005_animate_bird_1.png","stimuli/stim017_inanimate_tree_1.png","stimuli/stim003_animate_fish_3.png","353"
"html-button-response-mod","365","476342","0.0-365.0","74133","","","","","","triplet","269.7000000178814","","","","0","stimuli/tools_lowercase.png","stimuli/stim022_inanimate_tools_2.png","stimuli/stim019_inanimate_tree_3.png","354"
"html-button-response-mod","366","477021","0.0-366.0","74133","","","","","","triplet","177.80000001192093","","","","1","stimuli/stim016_inanimate_boats_4.png","stimuli/stim017_inanimate_tree_1.png","stimuli/stim002_animate_fish_2.png","355"
"html-button-response-mod","367","477682","0.0-367.0","74133","","","","","","triplet","159.69999998807907","","","","0","stimuli/stim006_animate_bird_2.png","stimuli/boats_uppercase.png","stimuli/stim013_inanimate_boats_1.png","356"
"html-button-response-mod","368","478329","0.0-368.0","74133","","","","","","triplet","145.80000001192093","","","","1","stimuli/face_uppercase.png","stimuli/stim003_animate_fish_3.png","stimuli/stim005_animate_bird_1.png","357"
"html-button-response-mod","369","479422","0.0-369.0","74133","","","","","","triplet","591.5999999940395","","","","2","stimuli/stim012_animate_face_4.png","stimuli/bird_lowercase.png","stimuli/face_uppercase.png","358"
"html-button-response-mod","370","480166","0.0-370.0","74133","","","","","","triplet","242.80000001192093","","","","0","stimuli/stim009_animate_face_1.png","stimuli/boats_lowercase.png","stimuli/fish_uppercase.png","359"
"html-button-response-mod","371","480775","0.0-371.0","74133","","","","","","triplet","107.19999998807907","","","","2","stimuli/stim004_animate_fish_4.png","stimuli/stim024_inanimate_tools_4.png","stimuli/stim001_animate_fish_1.png","360"
"html-button-response-mod","372","481440","0.0-372.0","74133","","","","","","triplet","163.40000000596046","","","","0","stimuli/stim014_inanimate_boats_2.png","stimuli/stim010_animate_face_2.png","stimuli/fish_uppercase.png","361"
"html-button-response-mod","373","482032","0.0-373.0","74133","","","","","","triplet","90.69999998807907","","","","2","stimuli/stim005_animate_bird_1.png","stimuli/stim004_animate_fish_4.png","stimuli/stim023_inanimate_tools_3.png","362"
"html-button-response-mod","374","482677","0.0-374.0","74133","","","","","","triplet","143.80000001192093","","","","0","stimuli/stim012_animate_face_4.png","stimuli/stim017_inanimate_tree_1.png","stimuli/bird_lowercase.png","363"
"html-button-response-mod","375","483788","0.0-375.0","74133","","","","","","triplet","609.6999999880791","","","","0","stimuli/stim010_animate_face_2.png","stimuli/bird_uppercase.png","stimuli/stim022_inanimate_tools_2.png","364"
"html-button-response-mod","376","484524","0.0-376.0","74133","","","","","","triplet","233.90000000596046","","","","2","stimuli/fish_uppercase.png","stimuli/fish_lowercase.png","stimuli/stim015_inanimate_boats_3.png","365"
"html-button-response-mod","377","485478","0.0-377.0","74133","","","","","","triplet","452.90000000596046","","","","1","stimuli/stim009_animate_face_1.png","stimuli/bird_uppercase.png","stimuli/stim012_animate_face_4.png","366"
"html-button-response-mod","378","486094","0.0-378.0","74133","","","","","","triplet","114.69999998807907","","","","2","stimuli/boats_uppercase.png","stimuli/stim022_inanimate_tools_2.png","stimuli/stim001_animate_fish_1.png","367"
"html-button-response-mod","379","487185","0.0-379.0","74133","","","","","","triplet","589","","","","2","stimuli/stim015_inanimate_boats_3.png","stimuli/boats_lowercase.png","stimuli/tree_uppercase.png","368"
"html-button-response-mod","380","487979","0.0-380.0","74133","","","","","","triplet","291.90000000596046","","","","2","stimuli/stim020_inanimate_tree_4.png","stimuli/stim023_inanimate_tools_3.png","stimuli/stim010_animate_face_2.png","369"
"html-button-response-mod","381","488676","0.0-381.0","74133","","","","","","triplet","195.69999998807907","","","","2","stimuli/stim003_animate_fish_3.png","stimuli/stim008_animate_bird_4.png","stimuli/stim002_animate_fish_2.png","370"
"html-button-response-mod","382","489466","0.0-382.0","74133","","","","","","triplet","288.59999999403954","","","","0","stimuli/face_uppercase.png","stimuli/boats_lowercase.png","stimuli/stim024_inanimate_tools_4.png","371"
"html-button-response-mod","383","490273","0.0-383.0","74133","","","","","","triplet","305.40000000596046","","","","2","stimuli/boats_lowercase.png","stimuli/stim013_inanimate_boats_1.png","stimuli/stim022_inanimate_tools_2.png","372"
"html-button-response-mod","384","491045","0.0-384.0","74133","","","","","","triplet","270.7999999821186","","","","0","stimuli/stim010_animate_face_2.png","stimuli/stim018_inanimate_tree_2.png","stimuli/stim006_animate_bird_2.png","373"
"html-button-response-mod","385","491995","0.0-385.0","74133","","","","","","triplet","448.90000000596046","","","","1","stimuli/stim014_inanimate_boats_2.png","stimuli/stim024_inanimate_tools_4.png","stimuli/stim017_inanimate_tree_1.png","374"
"html-button-response-mod","386","492635","0.0-386.0","74133","","","","","","triplet","138.90000000596046","","","","1","stimuli/stim019_inanimate_tree_3.png","stimuli/stim001_animate_fish_1.png","stimuli/stim018_inanimate_tree_2.png","375"
"html-button-response-mod","387","493602","0.0-387.0","74133","","","","","","triplet","464.80000001192093","","","","1","stimuli/stim010_animate_face_2.png","stimuli/stim005_animate_bird_1.png","stimuli/stim013_inanimate_boats_1.png","376"
"html-button-response-mod","388","494558","0.0-388.0","74133","","","","","","triplet","454.90000000596046","","","","0","stimuli/face_uppercase.png","stimuli/stim018_inanimate_tree_2.png","stimuli/face_lowercase.png","377"
"html-button-response-mod","389","495382","0.0-389.0","74133","","","","","","triplet","323","","","","1","stimuli/boats_lowercase.png","stimuli/fish_lowercase.png","stimuli/stim002_animate_fish_2.png","378"
"html-button-response-mod","390","497119","0.0-390.0","74133","","","","","","triplet","1236","","","","1","stimuli/fish_uppercase.png","stimuli/stim011_animate_face_3.png","stimuli/stim010_animate_face_2.png","379"
"html-button-response-mod","391","497876","0.0-391.0","74133","","","","","","triplet","255.5","","","","1","stimuli/stim013_inanimate_boats_1.png","stimuli/stim012_animate_face_4.png","stimuli/tree_lowercase.png","380"
"html-button-response-mod","392","498797","0.0-392.0","74133","","","","","","triplet","419.90000000596046","","","","0","stimuli/tools_uppercase.png","stimuli/stim008_animate_bird_4.png","stimuli/bird_lowercase.png","381"
"html-button-response-mod","393","499498","0.0-393.0","74133","","","","","","triplet","200","","","","0","stimuli/stim011_animate_face_3.png","stimuli/stim002_animate_fish_2.png","stimuli/tools_uppercase.png","382"
"html-button-response-mod","394","500580","0.0-394.0","74133","","","","","","triplet","580.8000000119209","","","","0","stimuli/tree_uppercase.png","stimuli/bird_uppercase.png","stimuli/stim017_inanimate_tree_1.png","383"
"html-button-response-mod","395","501825","0.0-395.0","74133","","","","","","triplet","742.9000000059605","","","","2","stimuli/stim018_inanimate_tree_2.png","stimuli/stim016_inanimate_boats_4.png","stimuli/stim009_animate_face_1.png","384"
"html-button-response-mod","396","502894","0.0-396.0","74133","","","","","","triplet","567.9000000059605","","","","1","stimuli/stim003_animate_fish_3.png","stimuli/face_lowercase.png","stimuli/stim016_inanimate_boats_4.png","385"
"html-button-response-mod","397","504839","0.0-397.0","74133","","","","","","triplet","1444","","","","1","stimuli/stim007_animate_bird_3.png","stimuli/face_uppercase.png","stimuli/stim014_inanimate_boats_2.png","386"
"html-button-response-mod","398","505753","0.0-398.0","74133","","","","","","triplet","413.2000000178814","","","","2","stimuli/stim014_inanimate_boats_2.png","stimuli/tools_uppercase.png","stimuli/stim012_animate_face_4.png","387"
"html-button-response-mod","399","507212","0.0-399.0","74133","","","","","","triplet","957.9000000059605","","","","2","stimuli/stim021_inanimate_tools_1.png","stimuli/stim012_animate_face_4.png","stimuli/tree_uppercase.png","388"
"html-button-response-mod","400","508134","0.0-400.0","74133","","","","","","triplet","420.59999999403954","","","","2","stimuli/stim007_animate_bird_3.png","stimuli/boats_uppercase.png","stimuli/face_lowercase.png","389"
"html-button-response-mod","401","508846","0.0-401.0","74133","","","","","","triplet","210.40000000596046","","","","2","stimuli/stim002_animate_fish_2.png","stimuli/bird_lowercase.png","stimuli/stim019_inanimate_tree_3.png","390"
"html-button-response-mod","402","509774","0.0-402.0","74133","","","","","","triplet","427","","","","0","stimuli/stim013_inanimate_boats_1.png","stimuli/stim009_animate_face_1.png","stimuli/stim021_inanimate_tools_1.png","391"
"html-button-response-mod","403","510423","0.0-403.0","74133","","","","","","triplet","147","","","","1","stimuli/stim009_animate_face_1.png","stimuli/stim008_animate_bird_4.png","stimuli/fish_uppercase.png","392"
"html-button-response-mod","404","511664","0.0-404.0","74133","","","","","","triplet","739.0999999940395","","","","0","stimuli/face_lowercase.png","stimuli/fish_uppercase.png","stimuli/stim003_animate_fish_3.png","393"
"html-button-response-mod","405","512290","0.0-405.0","74133","","","","","","triplet","125","","","","2","stimuli/stim012_animate_face_4.png","stimuli/stim005_animate_bird_1.png","stimuli/fish_uppercase.png","394"
"html-button-response-mod","406","512948","0.0-406.0","74133","","","","","","triplet","157","","","","0","stimuli/stim020_inanimate_tree_4.png","stimuli/bird_uppercase.png","stimuli/stim004_animate_fish_4.png","395"
"html-button-response-mod","407","513688","0.0-407.0","74133","","","","","","triplet","239","","","","1","stimuli/stim003_animate_fish_3.png","stimuli/face_uppercase.png","stimuli/stim016_inanimate_boats_4.png","396"
"html-button-response-mod","408","514853","0.0-408.0","74133","","","","","","triplet","663.7999999821186","","","","2","stimuli/face_lowercase.png","stimuli/tree_lowercase.png","stimuli/bird_uppercase.png","397"
"html-button-response-mod","409","515475","0.0-409.0","74133","","","","","","triplet","120.69999998807907","","","","2","stimuli/stim011_animate_face_3.png","stimuli/tree_uppercase.png","stimuli/tools_lowercase.png","398"
"html-button-response-mod","410","517170","0.0-410.0","74133","","","","","","triplet","1194.1000000238419","","","","1","stimuli/stim013_inanimate_boats_1.png","stimuli/stim004_animate_fish_4.png","stimuli/tree_uppercase.png","399"
"html-button-response","411","518795","0.0-411.0","74133","","","","","","break","1122.5","<p>BREAK</p><p>Take a break for as long as you need</p><p>Click the button to continue</p>","0","","","","","",""
"survey-text","412","543577","0.0-412.0","74133","","","","","","data_patterns","24777.399999976158","","{""Q0"":""Living and non-living""}","","","","","",""
"survey-text","413","546821","0.0-413.0","74133","","","","","","age_question","3242.899999976158","","{""Age"":""21""}","","","","","",""
"html-button-response","414","548050","0.0-414.0","74133","","","","","","gender_question","1229","How would you like your gender to be recorded?","0","","","","","",""
"html-button-response","415","551773","0.0-415.0","74133","","","","","","debrief","3722.300000011921","<p> Thank you for participating in this experiment! </p><p> We are investigating the dimensions along which you perceive the world </p><p>The images were all sorted according to whether they are animate or not, and </p><p> whether they are text or images. We are comparing this to some neuroimaging data to see </p> how your conscious classification relates to how your brain classifies the objects automatically. </p>","0","554732.2000000179","","","","",""
