"trial_type","trial_index","time_elapsed","internal_node_id","subject","success","timeout","failed_images","failed_audio","failed_video","test_part","rt","stimulus","response","end_time","button_pressed","stim0","stim1","stim2","trialnr"
"pavlovia","0","10","0.0-0.0","76127","","","","","","","","","","","","","","",""
"preload","1","716","0.0-1.0","76127","true","false","[]","[]","[]","preload","","","","","","","","",""
"html-button-response","2","10500","0.0-2.0","76127","","","","","","","9782.800000000745","<p>Welcome to the experiment. To begin, please read the following and press the button at the bottom of the screen.</p><p></p><p><strong>Project Name: A study on cognitive processes involved in visual perception</p></strong><p></p><p><strong>PARTICIPANT INFORMATION STATEMENT</strong></p><p></p><strong>(1) What is the study about?</strong><br>You are invited to participate in a study that investigates the cognitive processes involved in perceiving and recognizing visual stimuli.If you decide to participate, you will be asked to complete a task in which you will view pictures, letters, numbers, or words presented on a computer screen.<br><strong>(2) Who can participate?</strong><br>Anyone aged 18 years or over with access to a computer (not a phone/tablet)<br><strong>(3) Where is the study located?</strong><br>The study will be conducted in your browser<br><strong>(4) Who is carrying out the study?</strong><br>The study is being conducted by Sophia Shatek from the Computational Cognitive Neuroscience laboratory at the University of Sydney.<br><strong>(5) What does the study involve?</strong><br>In this study, you will be asked to perform tasks where you will see different stimuli appear on the computer screen.You will respond by pressing a key or using a computer mouse.<br><strong>(6) How much time will the study take?</strong><br>The study takes about 30 minutes<br><strong>(7)	Can I withdraw from the study?</strong><br>Being in this study is completely voluntary - you are not under any obligation to consent. You can withdraw at any time without having to give a reason and without penalty.<br><strong>(8) Will anyone else know the results?</strong><br>All aspects of the study, including results, will be strictly confidential and only the researchers will have access to information on participants.The results and data from the study may be submitted for publication or shared with other research labs, but individual participants will not be identifiable.<br><strong>(9) Will the study benefit me?</strong><br>You will be awarded 0.5 credits for your participation.<br><strong>(10) Can I tell other people about the study?</strong><br>Yes, please tell them to contact Dr Thomas Carlson by email at thomas.carlson@sydney.edu.au.<br><strong>(11) What if I require further information about the study or my involvement in it?</strong><br>When you have read this information, the investigator will discuss it with you further and answer any questions you may have.If you would like to know more at any stage, please feel free to contact Dr Thomas Carlson directly by email at thomas.carlson@sydney.edu.au.If you would like to be informed about the outcomes of the study, contact Dr Thomas Carlson directly by email at thomas.carlson@sydney.edu.au.<br><strong>(12) What if I have a complaint or any concerns?</strong><br>Any person with concerns or complaints about the conduct of a research study can contact The Manager,Human Ethics Administration, University of Sydney on +61 2 8627 8176 (Telephone); +61 2 8627 8177 (Facsimile) or ro.humanethics@sydney.edu.au (Email).</p><p></p><strong>By participating in this experiment, you consent to participate in this study and acknowledge that:</strong><br>1. The procedures required for the project and the times involved have been explained to me, and any questions I have about the project have been answered to my satisfaction.<br>2.	I have read the Above Information Statement and have been given the opportunity to discuss the information and my involvement in the project with the researcher/s.<br>3. I understand that allowing my data to be used in research reports is completely voluntary - I am not under any obligation to consent.<br>4. I understand that my involvement is strictly confidential. I understand that any research data gathered from the results of the study may be publishedhowever no information about me will be used in any way that is identifiable.</p><p></p>","0","","","","","",""
"html-button-response","3","55759","0.0-3.0","76127","","","","","","opening_instructions","45257.60000000149","<p>In this experiment, you will see three images appear on the screen.</p><p>You need to click the 'odd one out', or the image </p><p>that LOOKS MOST DIFFERENT to the other two. </p><p>Just go with your intuition, don't spend too long thinking about each one.</p>","0","59151.10000000149","","","","",""
"html-button-response-mod","4","60564","0.0-4.0","76127","","","","","","triplet","4803.900000002235","","","","2","stimuli/stim004_animate_fish_4.png","stimuli/stim017_inanimate_tree_1.png","stimuli/boats_lowercase.png","0"
"html-button-response-mod","5","62935","0.0-5.0","76127","","","","","","triplet","1867.1000000014901","","","","1","stimuli/stim009_animate_face_1.png","stimuli/fish_uppercase.png","stimuli/stim023_inanimate_tools_3.png","1"
"html-button-response-mod","6","64782","0.0-6.0","76127","","","","","","triplet","1342","","","","0","stimuli/stim021_inanimate_tools_1.png","stimuli/face_lowercase.png","stimuli/tree_lowercase.png","2"
"html-button-response-mod","7","66779","0.0-7.0","76127","","","","","","triplet","1488.199999999255","","","","2","stimuli/face_lowercase.png","stimuli/tools_lowercase.png","stimuli/face_uppercase.png","3"
"html-button-response-mod","8","70533","0.0-8.0","76127","","","","","","triplet","3250.199999999255","","","","1","stimuli/stim006_animate_bird_2.png","stimuli/stim001_animate_fish_1.png","stimuli/stim017_inanimate_tree_1.png","4"
"html-button-response-mod","9","72709","0.0-9.0","76127","","","","","","triplet","1670.7000000029802","","","","0","stimuli/tree_uppercase.png","stimuli/stim023_inanimate_tools_3.png","stimuli/stim013_inanimate_boats_1.png","5"
"html-button-response-mod","10","74446","0.0-10.0","76127","","","","","","triplet","1222.800000000745","","","","2","stimuli/bird_lowercase.png","stimuli/fish_uppercase.png","stimuli/stim008_animate_bird_4.png","6"
"html-button-response-mod","11","75982","0.0-11.0","76127","","","","","","triplet","1032","","","","2","stimuli/stim014_inanimate_boats_2.png","stimuli/stim013_inanimate_boats_1.png","stimuli/bird_uppercase.png","7"
"html-button-response-mod","12","77981","0.0-12.0","76127","","","","","","triplet","1497.7000000029802","","","","1","stimuli/stim011_animate_face_3.png","stimuli/fish_lowercase.png","stimuli/stim019_inanimate_tree_3.png","8"
"html-button-response-mod","13","80284","0.0-13.0","76127","","","","","","triplet","1800.199999999255","","","","0","stimuli/stim024_inanimate_tools_4.png","stimuli/stim020_inanimate_tree_4.png","stimuli/stim012_animate_face_4.png","9"
"html-button-response-mod","14","82815","0.0-14.0","76127","","","","","","triplet","2014.800000000745","","","","1","stimuli/stim008_animate_bird_4.png","stimuli/fish_lowercase.png","stimuli/stim022_inanimate_tools_2.png","10"
"html-button-response-mod","15","85121","0.0-15.0","76127","","","","","","triplet","1803.9000000022352","","","","0","stimuli/stim004_animate_fish_4.png","stimuli/stim007_animate_bird_3.png","stimuli/stim001_animate_fish_1.png","11"
"html-button-response-mod","16","87121","0.0-16.0","76127","","","","","","triplet","1488.5","","","","2","stimuli/stim007_animate_bird_3.png","stimuli/stim002_animate_fish_2.png","stimuli/stim009_animate_face_1.png","12"
"html-button-response-mod","17","89424","0.0-17.0","76127","","","","","","triplet","1791.800000000745","","","","2","stimuli/stim022_inanimate_tools_2.png","stimuli/stim010_animate_face_2.png","stimuli/face_lowercase.png","13"
"html-button-response-mod","18","91402","0.0-18.0","76127","","","","","","triplet","1471.0999999977648","","","","2","stimuli/stim008_animate_bird_4.png","stimuli/stim011_animate_face_3.png","stimuli/face_uppercase.png","14"
"html-button-response-mod","19","94340","0.0-19.0","76127","","","","","","triplet","2430.800000000745","","","","1","stimuli/stim003_animate_fish_3.png","stimuli/stim016_inanimate_boats_4.png","stimuli/stim008_animate_bird_4.png","15"
"html-button-response-mod","20","97542","0.0-20.0","76127","","","","","","triplet","2690.5","","","","1","stimuli/stim021_inanimate_tools_1.png","stimuli/stim014_inanimate_boats_2.png","stimuli/stim019_inanimate_tree_3.png","16"
"html-button-response-mod","21","99559","0.0-21.0","76127","","","","","","triplet","1515.300000000745","","","","2","stimuli/stim017_inanimate_tree_1.png","stimuli/stim018_inanimate_tree_2.png","stimuli/stim022_inanimate_tools_2.png","17"
"html-button-response-mod","22","100922","0.0-22.0","76127","","","","","","triplet","850.3000000007451","","","","1","stimuli/stim014_inanimate_boats_2.png","stimuli/tree_uppercase.png","stimuli/stim008_animate_bird_4.png","18"
"html-button-response-mod","23","103224","0.0-23.0","76127","","","","","","triplet","1789","","","","0","stimuli/bird_uppercase.png","stimuli/stim003_animate_fish_3.png","stimuli/stim015_inanimate_boats_3.png","19"
"html-button-response-mod","24","105885","0.0-24.0","76127","","","","","","triplet","2158.599999997765","","","","2","stimuli/tools_uppercase.png","stimuli/bird_uppercase.png","stimuli/stim021_inanimate_tools_1.png","20"
"html-button-response-mod","25","107166","0.0-25.0","76127","","","","","","triplet","779.6999999992549","","","","0","stimuli/face_uppercase.png","stimuli/stim023_inanimate_tools_3.png","stimuli/stim010_animate_face_2.png","21"
"html-button-response-mod","26","109173","0.0-26.0","76127","","","","","","triplet","1497.300000000745","","","","1","stimuli/stim001_animate_fish_1.png","stimuli/bird_uppercase.png","stimuli/stim008_animate_bird_4.png","22"
"html-button-response-mod","27","111179","0.0-27.0","76127","","","","","","triplet","1494.0999999977648","","","","1","stimuli/stim014_inanimate_boats_2.png","stimuli/stim015_inanimate_boats_3.png","stimuli/stim021_inanimate_tools_1.png","23"
"html-button-response-mod","28","112373","0.0-28.0","76127","","","","","","triplet","681","","","","0","stimuli/fish_uppercase.png","stimuli/stim018_inanimate_tree_2.png","stimuli/stim009_animate_face_1.png","24"
"html-button-response-mod","29","113817","0.0-29.0","76127","","","","","","triplet","938.5999999977648","","","","2","stimuli/stim008_animate_bird_4.png","stimuli/stim019_inanimate_tree_3.png","stimuli/bird_lowercase.png","25"
"html-button-response-mod","30","114958","0.0-30.0","76127","","","","","","triplet","638","","","","0","stimuli/face_uppercase.png","stimuli/stim024_inanimate_tools_4.png","stimuli/stim018_inanimate_tree_2.png","26"
"html-button-response-mod","31","116914","0.0-31.0","76127","","","","","","triplet","1452.699999999255","","","","0","stimuli/stim009_animate_face_1.png","stimuli/stim017_inanimate_tree_1.png","stimuli/stim023_inanimate_tools_3.png","27"
"html-button-response-mod","32","118636","0.0-32.0","76127","","","","","","triplet","1216.199999999255","","","","1","stimuli/stim016_inanimate_boats_4.png","stimuli/tree_lowercase.png","stimuli/stim018_inanimate_tree_2.png","28"
"html-button-response-mod","33","120768","0.0-33.0","76127","","","","","","triplet","1625.199999999255","","","","0","stimuli/tools_uppercase.png","stimuli/stim007_animate_bird_3.png","stimuli/stim004_animate_fish_4.png","29"
"html-button-response-mod","34","122854","0.0-34.0","76127","","","","","","triplet","1574.5","","","","0","stimuli/face_lowercase.png","stimuli/stim020_inanimate_tree_4.png","stimuli/stim022_inanimate_tools_2.png","30"
"html-button-response-mod","35","124463","0.0-35.0","76127","","","","","","triplet","1094.3999999985099","","","","2","stimuli/tools_uppercase.png","stimuli/fish_lowercase.png","stimuli/stim014_inanimate_boats_2.png","31"
"html-button-response-mod","36","125864","0.0-36.0","76127","","","","","","triplet","899.3000000007451","","","","0","stimuli/fish_uppercase.png","stimuli/stim015_inanimate_boats_3.png","stimuli/stim005_animate_bird_1.png","32"
"html-button-response-mod","37","127583","0.0-37.0","76127","","","","","","triplet","1218.199999999255","","","","0","stimuli/stim013_inanimate_boats_1.png","stimuli/stim003_animate_fish_3.png","stimuli/stim007_animate_bird_3.png","33"
"html-button-response-mod","38","128728","0.0-38.0","76127","","","","","","triplet","632","","","","1","stimuli/stim007_animate_bird_3.png","stimuli/face_lowercase.png","stimuli/stim020_inanimate_tree_4.png","34"
"html-button-response-mod","39","130553","0.0-39.0","76127","","","","","","triplet","1322.4000000022352","","","","2","stimuli/tree_uppercase.png","stimuli/tree_lowercase.png","stimuli/stim012_animate_face_4.png","35"
"html-button-response-mod","40","131877","0.0-40.0","76127","","","","","","triplet","815.3000000007451","","","","1","stimuli/tree_uppercase.png","stimuli/stim007_animate_bird_3.png","stimuli/fish_uppercase.png","36"
"html-button-response-mod","41","133477","0.0-41.0","76127","","","","","","triplet","1099","","","","1","stimuli/stim002_animate_fish_2.png","stimuli/fish_lowercase.png","stimuli/stim012_animate_face_4.png","37"
"html-button-response-mod","42","134688","0.0-42.0","76127","","","","","","triplet","703.4000000022352","","","","2","stimuli/stim003_animate_fish_3.png","stimuli/stim023_inanimate_tools_3.png","stimuli/face_lowercase.png","38"
"html-button-response-mod","43","135963","0.0-43.0","76127","","","","","","triplet","773.1999999992549","","","","0","stimuli/boats_uppercase.png","stimuli/stim006_animate_bird_2.png","stimuli/stim001_animate_fish_1.png","39"
"html-button-response-mod","44","139756","0.0-44.0","76127","","","","","","triplet","3291.900000002235","","","","0","stimuli/stim020_inanimate_tree_4.png","stimuli/stim022_inanimate_tools_2.png","stimuli/stim015_inanimate_boats_3.png","40"
"html-button-response-mod","45","141263","0.0-45.0","76127","","","","","","triplet","994.3999999985099","","","","2","stimuli/stim021_inanimate_tools_1.png","stimuli/stim003_animate_fish_3.png","stimuli/fish_lowercase.png","41"
"html-button-response-mod","46","142336","0.0-46.0","76127","","","","","","triplet","571.8999999985099","","","","1","stimuli/stim004_animate_fish_4.png","stimuli/boats_lowercase.png","stimuli/stim016_inanimate_boats_4.png","42"
"html-button-response-mod","47","143444","0.0-47.0","76127","","","","","","triplet","606.3000000007451","","","","2","stimuli/stim015_inanimate_boats_3.png","stimuli/stim010_animate_face_2.png","stimuli/fish_uppercase.png","43"
"html-button-response-mod","48","144813","0.0-48.0","76127","","","","","","triplet","854.6000000014901","","","","0","stimuli/stim005_animate_bird_1.png","stimuli/boats_uppercase.png","stimuli/face_uppercase.png","44"
"html-button-response-mod","49","146050","0.0-49.0","76127","","","","","","triplet","729.6000000014901","","","","2","stimuli/stim024_inanimate_tools_4.png","stimuli/stim014_inanimate_boats_2.png","stimuli/boats_lowercase.png","45"
"html-button-response-mod","50","147439","0.0-50.0","76127","","","","","","triplet","887.4000000022352","","","","0","stimuli/face_uppercase.png","stimuli/stim014_inanimate_boats_2.png","stimuli/stim006_animate_bird_2.png","46"
"html-button-response-mod","51","148611","0.0-51.0","76127","","","","","","triplet","670.1999999992549","","","","2","stimuli/stim023_inanimate_tools_3.png","stimuli/stim002_animate_fish_2.png","stimuli/tools_lowercase.png","47"
"html-button-response-mod","52","153300","0.0-52.0","76127","","","","","","triplet","4187.39999999851","","","","0","stimuli/stim013_inanimate_boats_1.png","stimuli/stim023_inanimate_tools_3.png","stimuli/stim006_animate_bird_2.png","48"
"html-button-response-mod","53","154608","0.0-53.0","76127","","","","","","triplet","801","","","","1","stimuli/bird_uppercase.png","stimuli/stim003_animate_fish_3.png","stimuli/face_lowercase.png","49"
"html-button-response","54","156395","0.0-54.0","76127","","","","","","break","1285.800000000745","<p>BREAK</p><p>Take a break for as long as you need</p><p>Click the button to continue</p>","0","","","","","",""
"html-button-response-mod","55","157212","0.0-55.0","76127","","","","","","triplet","816.1999999992549","","","","0","stimuli/tools_lowercase.png","stimuli/stim001_animate_fish_1.png","stimuli/stim013_inanimate_boats_1.png","50"
"html-button-response-mod","56","158581","0.0-56.0","76127","","","","","","triplet","853","","","","0","stimuli/stim001_animate_fish_1.png","stimuli/bird_uppercase.png","stimuli/face_uppercase.png","51"
"html-button-response-mod","57","160542","0.0-57.0","76127","","","","","","triplet","1459.9000000022352","","","","0","stimuli/stim001_animate_fish_1.png","stimuli/stim022_inanimate_tools_2.png","stimuli/stim006_animate_bird_2.png","52"
"html-button-response-mod","58","162076","0.0-58.0","76127","","","","","","triplet","1018.1000000014901","","","","0","stimuli/stim020_inanimate_tree_4.png","stimuli/boats_uppercase.png","stimuli/tree_uppercase.png","53"
"html-button-response-mod","59","164254","0.0-59.0","76127","","","","","","triplet","1671.6000000014901","","","","1","stimuli/stim011_animate_face_3.png","stimuli/stim021_inanimate_tools_1.png","stimuli/stim004_animate_fish_4.png","54"
"html-button-response-mod","60","166119","0.0-60.0","76127","","","","","","triplet","1350.699999999255","","","","1","stimuli/stim008_animate_bird_4.png","stimuli/stim024_inanimate_tools_4.png","stimuli/stim006_animate_bird_2.png","55"
"html-button-response-mod","61","167564","0.0-61.0","76127","","","","","","triplet","943.8000000007451","","","","1","stimuli/stim008_animate_bird_4.png","stimuli/stim012_animate_face_4.png","stimuli/stim006_animate_bird_2.png","56"
"html-button-response-mod","62","168892","0.0-62.0","76127","","","","","","triplet","827.1000000014901","","","","0","stimuli/face_lowercase.png","stimuli/stim015_inanimate_boats_3.png","stimuli/stim007_animate_bird_3.png","57"
"html-button-response-mod","63","170140","0.0-63.0","76127","","","","","","triplet","735.6999999992549","","","","2","stimuli/stim019_inanimate_tree_3.png","stimuli/stim006_animate_bird_2.png","stimuli/face_lowercase.png","58"
"html-button-response-mod","64","173480","0.0-64.0","76127","","","","","","triplet","2827.10000000149","","","","1","stimuli/stim020_inanimate_tree_4.png","stimuli/stim010_animate_face_2.png","stimuli/stim014_inanimate_boats_2.png","59"
"html-button-response-mod","65","174890","0.0-65.0","76127","","","","","","triplet","908.9000000022352","","","","1","stimuli/stim016_inanimate_boats_4.png","stimuli/boats_lowercase.png","stimuli/stim020_inanimate_tree_4.png","60"
"html-button-response-mod","66","181565","0.0-66.0","76127","","","","","","triplet","6165.60000000149","","","","1","stimuli/stim006_animate_bird_2.png","stimuli/stim022_inanimate_tools_2.png","stimuli/stim012_animate_face_4.png","61"
"html-button-response-mod","67","182830","0.0-67.0","76127","","","","","","triplet","763.6999999992549","","","","0","stimuli/bird_uppercase.png","stimuli/stim015_inanimate_boats_3.png","stimuli/stim001_animate_fish_1.png","62"
"html-button-response-mod","68","184198","0.0-68.0","76127","","","","","","triplet","866.6000000014901","","","","2","stimuli/stim011_animate_face_3.png","stimuli/stim015_inanimate_boats_3.png","stimuli/face_lowercase.png","63"
"html-button-response-mod","69","185880","0.0-69.0","76127","","","","","","triplet","1178.1000000014901","","","","2","stimuli/boats_uppercase.png","stimuli/face_uppercase.png","stimuli/stim018_inanimate_tree_2.png","64"
"html-button-response-mod","70","187105","0.0-70.0","76127","","","","","","triplet","723.1000000014901","","","","1","stimuli/face_uppercase.png","stimuli/stim004_animate_fish_4.png","stimuli/boats_uppercase.png","65"
"html-button-response-mod","71","188670","0.0-71.0","76127","","","","","","triplet","1063","","","","1","stimuli/bird_uppercase.png","stimuli/stim011_animate_face_3.png","stimuli/bird_lowercase.png","66"
"html-button-response-mod","72","190231","0.0-72.0","76127","","","","","","triplet","1059.800000000745","","","","0","stimuli/face_uppercase.png","stimuli/stim014_inanimate_boats_2.png","stimuli/stim024_inanimate_tools_4.png","67"
"html-button-response-mod","73","191534","0.0-73.0","76127","","","","","","triplet","801.7999999970198","","","","1","stimuli/tree_lowercase.png","stimuli/stim011_animate_face_3.png","stimuli/face_uppercase.png","68"
"html-button-response-mod","74","192989","0.0-74.0","76127","","","","","","triplet","948.0999999977648","","","","2","stimuli/stim020_inanimate_tree_4.png","stimuli/stim018_inanimate_tree_2.png","stimuli/stim012_animate_face_4.png","69"
"html-button-response-mod","75","194569","0.0-75.0","76127","","","","","","triplet","1070.3999999985099","","","","0","stimuli/stim020_inanimate_tree_4.png","stimuli/boats_lowercase.png","stimuli/face_lowercase.png","70"
"html-button-response-mod","76","196430","0.0-76.0","76127","","","","","","triplet","1356.2999999970198","","","","0","stimuli/stim022_inanimate_tools_2.png","stimuli/stim007_animate_bird_3.png","stimuli/stim001_animate_fish_1.png","71"
"html-button-response-mod","77","198234","0.0-77.0","76127","","","","","","triplet","1300.2999999970198","","","","0","stimuli/stim023_inanimate_tools_3.png","stimuli/stim007_animate_bird_3.png","stimuli/stim015_inanimate_boats_3.png","72"
"html-button-response-mod","78","200556","0.0-78.0","76127","","","","","","triplet","1805.9000000022352","","","","2","stimuli/stim004_animate_fish_4.png","stimuli/stim018_inanimate_tree_2.png","stimuli/tools_uppercase.png","73"
"html-button-response-mod","79","203144","0.0-79.0","76127","","","","","","triplet","2087","","","","2","stimuli/stim023_inanimate_tools_3.png","stimuli/stim022_inanimate_tools_2.png","stimuli/stim017_inanimate_tree_1.png","74"
"html-button-response-mod","80","204659","0.0-80.0","76127","","","","","","triplet","1011.7999999970198","","","","2","stimuli/face_uppercase.png","stimuli/bird_lowercase.png","stimuli/stim004_animate_fish_4.png","75"
"html-button-response-mod","81","206975","0.0-81.0","76127","","","","","","triplet","1810.0999999977648","","","","0","stimuli/stim015_inanimate_boats_3.png","stimuli/fish_uppercase.png","stimuli/face_uppercase.png","76"
"html-button-response-mod","82","208516","0.0-82.0","76127","","","","","","triplet","1031.3999999985099","","","","0","stimuli/stim012_animate_face_4.png","stimuli/stim007_animate_bird_3.png","stimuli/stim016_inanimate_boats_4.png","77"
"html-button-response-mod","83","209900","0.0-83.0","76127","","","","","","triplet","879.5","","","","0","stimuli/tree_uppercase.png","stimuli/stim021_inanimate_tools_1.png","stimuli/stim006_animate_bird_2.png","78"
"html-button-response-mod","84","210982","0.0-84.0","76127","","","","","","triplet","569.0999999977648","","","","0","stimuli/boats_uppercase.png","stimuli/stim023_inanimate_tools_3.png","stimuli/stim013_inanimate_boats_1.png","79"
"html-button-response-mod","85","212122","0.0-85.0","76127","","","","","","triplet","631","","","","2","stimuli/stim023_inanimate_tools_3.png","stimuli/stim015_inanimate_boats_3.png","stimuli/face_lowercase.png","80"
"html-button-response-mod","86","213458","0.0-86.0","76127","","","","","","triplet","827.8999999985099","","","","1","stimuli/stim009_animate_face_1.png","stimuli/tree_lowercase.png","stimuli/stim010_animate_face_2.png","81"
"html-button-response-mod","87","214634","0.0-87.0","76127","","","","","","triplet","661.1999999992549","","","","1","stimuli/stim008_animate_bird_4.png","stimuli/bird_lowercase.png","stimuli/stim013_inanimate_boats_1.png","82"
"html-button-response-mod","88","215784","0.0-88.0","76127","","","","","","triplet","637.6999999992549","","","","1","stimuli/stim003_animate_fish_3.png","stimuli/boats_uppercase.png","stimuli/stim018_inanimate_tree_2.png","83"
"html-button-response-mod","89","217101","0.0-89.0","76127","","","","","","triplet","811.5","","","","2","stimuli/face_uppercase.png","stimuli/boats_uppercase.png","stimuli/stim007_animate_bird_3.png","84"
"html-button-response-mod","90","218787","0.0-90.0","76127","","","","","","triplet","1184.3999999985099","","","","0","stimuli/stim007_animate_bird_3.png","stimuli/stim001_animate_fish_1.png","stimuli/stim023_inanimate_tools_3.png","85"
"html-button-response-mod","91","220927","0.0-91.0","76127","","","","","","triplet","1636.2999999970198","","","","1","stimuli/stim022_inanimate_tools_2.png","stimuli/boats_uppercase.png","stimuli/stim018_inanimate_tree_2.png","86"
"html-button-response-mod","92","223311","0.0-92.0","76127","","","","","","triplet","1882.300000000745","","","","1","stimuli/stim007_animate_bird_3.png","stimuli/bird_uppercase.png","stimuli/stim015_inanimate_boats_3.png","87"
"html-button-response-mod","93","224436","0.0-93.0","76127","","","","","","triplet","610.7000000029802","","","","0","stimuli/face_lowercase.png","stimuli/stim019_inanimate_tree_3.png","stimuli/stim016_inanimate_boats_4.png","88"
"html-button-response-mod","94","226397","0.0-94.0","76127","","","","","","triplet","1451.699999999255","","","","0","stimuli/stim019_inanimate_tree_3.png","stimuli/boats_uppercase.png","stimuli/bird_lowercase.png","89"
"html-button-response-mod","95","228301","0.0-95.0","76127","","","","","","triplet","1393.5","","","","1","stimuli/stim006_animate_bird_2.png","stimuli/stim004_animate_fish_4.png","stimuli/stim005_animate_bird_1.png","90"
"html-button-response-mod","96","229697","0.0-96.0","76127","","","","","","triplet","894.0999999977648","","","","2","stimuli/stim001_animate_fish_1.png","stimuli/stim015_inanimate_boats_3.png","stimuli/fish_uppercase.png","91"
"html-button-response-mod","97","230818","0.0-97.0","76127","","","","","","triplet","613.2999999970198","","","","2","stimuli/stim016_inanimate_boats_4.png","stimuli/stim007_animate_bird_3.png","stimuli/tree_uppercase.png","92"
"html-button-response-mod","98","235397","0.0-98.0","76127","","","","","","triplet","4066.89999999851","","","","0","stimuli/stim012_animate_face_4.png","stimuli/stim004_animate_fish_4.png","stimuli/stim017_inanimate_tree_1.png","93"
"html-button-response-mod","99","236670","0.0-99.0","76127","","","","","","triplet","766.5999999977648","","","","0","stimuli/face_uppercase.png","stimuli/stim012_animate_face_4.png","stimuli/stim009_animate_face_1.png","94"
"html-button-response-mod","100","237851","0.0-100.0","76127","","","","","","triplet","667.6000000014901","","","","2","stimuli/stim023_inanimate_tools_3.png","stimuli/stim012_animate_face_4.png","stimuli/tools_uppercase.png","95"
"html-button-response-mod","101","240224","0.0-101.0","76127","","","","","","triplet","1870.8999999985099","","","","1","stimuli/stim001_animate_fish_1.png","stimuli/stim015_inanimate_boats_3.png","stimuli/stim013_inanimate_boats_1.png","96"
"html-button-response-mod","102","241573","0.0-102.0","76127","","","","","","triplet","845.6000000014901","","","","0","stimuli/tree_uppercase.png","stimuli/stim004_animate_fish_4.png","stimuli/stim009_animate_face_1.png","97"
"html-button-response-mod","103","242889","0.0-103.0","76127","","","","","","triplet","802.8000000007451","","","","0","stimuli/face_uppercase.png","stimuli/stim023_inanimate_tools_3.png","stimuli/stim021_inanimate_tools_1.png","98"
"html-button-response-mod","104","244183","0.0-104.0","76127","","","","","","triplet","792.4000000022352","","","","0","stimuli/tools_lowercase.png","stimuli/stim008_animate_bird_4.png","stimuli/stim007_animate_bird_3.png","99"
"html-button-response","105","338569","0.0-105.0","76127","","","","","","break","93870.59999999776","<p>BREAK</p><p>Take a break for as long as you need</p><p>Click the button to continue</p>","0","","","","","",""
"html-button-response-mod","106","339339","0.0-106.0","76127","","","","","","triplet","769.6999999992549","","","","0","stimuli/tree_lowercase.png","stimuli/stim020_inanimate_tree_4.png","stimuli/stim007_animate_bird_3.png","100"
"html-button-response-mod","107","342063","0.0-107.0","76127","","","","","","triplet","2222.800000000745","","","","1","stimuli/stim015_inanimate_boats_3.png","stimuli/stim024_inanimate_tools_4.png","stimuli/stim012_animate_face_4.png","101"
"html-button-response-mod","108","344256","0.0-108.0","76127","","","","","","triplet","1690.7999999970198","","","","0","stimuli/stim008_animate_bird_4.png","stimuli/boats_lowercase.png","stimuli/tools_uppercase.png","102"
"html-button-response-mod","109","346591","0.0-109.0","76127","","","","","","triplet","1818.8999999985099","","","","1","stimuli/stim018_inanimate_tree_2.png","stimuli/fish_lowercase.png","stimuli/stim002_animate_fish_2.png","103"
"html-button-response-mod","110","347820","0.0-110.0","76127","","","","","","triplet","719.2000000029802","","","","2","stimuli/stim003_animate_fish_3.png","stimuli/stim016_inanimate_boats_4.png","stimuli/fish_uppercase.png","104"
"html-button-response-mod","111","349454","0.0-111.0","76127","","","","","","triplet","1132.5","","","","0","stimuli/face_lowercase.png","stimuli/stim017_inanimate_tree_1.png","stimuli/stim023_inanimate_tools_3.png","105"
"html-button-response-mod","112","351230","0.0-112.0","76127","","","","","","triplet","1266.2000000029802","","","","0","stimuli/stim004_animate_fish_4.png","stimuli/fish_lowercase.png","stimuli/bird_uppercase.png","106"
"html-button-response-mod","113","352567","0.0-113.0","76127","","","","","","triplet","835.9000000022352","","","","2","stimuli/fish_lowercase.png","stimuli/tree_lowercase.png","stimuli/stim019_inanimate_tree_3.png","107"
"html-button-response-mod","114","355136","0.0-114.0","76127","","","","","","triplet","2067.60000000149","","","","2","stimuli/stim014_inanimate_boats_2.png","stimuli/stim011_animate_face_3.png","stimuli/stim005_animate_bird_1.png","108"
"html-button-response-mod","115","356631","0.0-115.0","76127","","","","","","triplet","984.4000000022352","","","","0","stimuli/bird_uppercase.png","stimuli/stim023_inanimate_tools_3.png","stimuli/stim012_animate_face_4.png","109"
"html-button-response-mod","116","357804","0.0-116.0","76127","","","","","","triplet","662.8000000007451","","","","2","stimuli/stim021_inanimate_tools_1.png","stimuli/stim006_animate_bird_2.png","stimuli/fish_lowercase.png","110"
"html-button-response-mod","117","361280","0.0-117.0","76127","","","","","","triplet","2975.199999999255","","","","2","stimuli/stim003_animate_fish_3.png","stimuli/stim013_inanimate_boats_1.png","stimuli/stim020_inanimate_tree_4.png","111"
"html-button-response-mod","118","363474","0.0-118.0","76127","","","","","","triplet","1685.7000000029802","","","","2","stimuli/stim014_inanimate_boats_2.png","stimuli/stim009_animate_face_1.png","stimuli/stim018_inanimate_tree_2.png","112"
"html-button-response-mod","119","365846","0.0-119.0","76127","","","","","","triplet","1860.5","","","","1","stimuli/stim013_inanimate_boats_1.png","stimuli/stim011_animate_face_3.png","stimuli/stim022_inanimate_tools_2.png","113"
"html-button-response-mod","120","367003","0.0-120.0","76127","","","","","","triplet","655.8000000007451","","","","0","stimuli/tree_lowercase.png","stimuli/stim007_animate_bird_3.png","stimuli/stim023_inanimate_tools_3.png","114"
"html-button-response-mod","121","367941","0.0-121.0","76127","","","","","","triplet","421.5999999977648","","","","0","stimuli/tree_lowercase.png","stimuli/stim020_inanimate_tree_4.png","stimuli/stim010_animate_face_2.png","115"
"html-button-response-mod","122","368982","0.0-122.0","76127","","","","","","triplet","526.8000000007451","","","","2","stimuli/stim017_inanimate_tree_1.png","stimuli/stim019_inanimate_tree_3.png","stimuli/fish_lowercase.png","116"
"html-button-response-mod","123","369941","0.0-123.0","76127","","","","","","triplet","443.19999999925494","","","","2","stimuli/stim019_inanimate_tree_3.png","stimuli/stim017_inanimate_tree_1.png","stimuli/boats_lowercase.png","117"
"html-button-response-mod","124","371100","0.0-124.0","76127","","","","","","triplet","657.6000000014901","","","","2","stimuli/tree_uppercase.png","stimuli/boats_uppercase.png","stimuli/stim003_animate_fish_3.png","118"
"html-button-response-mod","125","372325","0.0-125.0","76127","","","","","","triplet","719.5","","","","0","stimuli/tree_uppercase.png","stimuli/stim020_inanimate_tree_4.png","stimuli/stim012_animate_face_4.png","119"
"html-button-response-mod","126","373838","0.0-126.0","76127","","","","","","triplet","1008.3000000007451","","","","1","stimuli/stim014_inanimate_boats_2.png","stimuli/face_uppercase.png","stimuli/stim018_inanimate_tree_2.png","120"
"html-button-response-mod","127","375856","0.0-127.0","76127","","","","","","triplet","1507.300000000745","","","","0","stimuli/stim011_animate_face_3.png","stimuli/stim006_animate_bird_2.png","stimuli/stim017_inanimate_tree_1.png","121"
"html-button-response-mod","128","378594","0.0-128.0","76127","","","","","","triplet","2232","","","","0","stimuli/boats_uppercase.png","stimuli/tree_lowercase.png","stimuli/fish_uppercase.png","122"
"html-button-response-mod","129","380854","0.0-129.0","76127","","","","","","triplet","1743.2999999970198","","","","2","stimuli/stim018_inanimate_tree_2.png","stimuli/stim007_animate_bird_3.png","stimuli/stim012_animate_face_4.png","123"
"html-button-response-mod","130","383248","0.0-130.0","76127","","","","","","triplet","1890.800000000745","","","","1","stimuli/stim017_inanimate_tree_1.png","stimuli/stim007_animate_bird_3.png","stimuli/stim018_inanimate_tree_2.png","124"
"html-button-response-mod","131","384368","0.0-131.0","76127","","","","","","triplet","607.2000000029802","","","","1","stimuli/stim013_inanimate_boats_1.png","stimuli/bird_uppercase.png","stimuli/stim021_inanimate_tools_1.png","125"
"html-button-response-mod","132","386060","0.0-132.0","76127","","","","","","triplet","1185","","","","1","stimuli/stim004_animate_fish_4.png","stimuli/stim009_animate_face_1.png","stimuli/stim019_inanimate_tree_3.png","126"
"html-button-response-mod","133","388466","0.0-133.0","76127","","","","","","triplet","1903.8999999985099","","","","1","stimuli/stim008_animate_bird_4.png","stimuli/stim024_inanimate_tools_4.png","stimuli/stim018_inanimate_tree_2.png","127"
"html-button-response-mod","134","390694","0.0-134.0","76127","","","","","","triplet","1720.699999999255","","","","0","stimuli/stim018_inanimate_tree_2.png","stimuli/stim009_animate_face_1.png","stimuli/stim010_animate_face_2.png","128"
"html-button-response-mod","135","393819","0.0-135.0","76127","","","","","","triplet","2612.300000000745","","","","1","stimuli/boats_lowercase.png","stimuli/stim020_inanimate_tree_4.png","stimuli/tree_uppercase.png","129"
"html-button-response-mod","136","396164","0.0-136.0","76127","","","","","","triplet","1830.6000000014901","","","","0","stimuli/stim012_animate_face_4.png","stimuli/stim019_inanimate_tree_3.png","stimuli/stim002_animate_fish_2.png","130"
"html-button-response-mod","137","398053","0.0-137.0","76127","","","","","","triplet","1372.800000000745","","","","2","stimuli/stim007_animate_bird_3.png","stimuli/stim010_animate_face_2.png","stimuli/stim013_inanimate_boats_1.png","131"
"html-button-response-mod","138","399189","0.0-138.0","76127","","","","","","triplet","621.0999999977648","","","","0","stimuli/tools_lowercase.png","stimuli/stim013_inanimate_boats_1.png","stimuli/stim021_inanimate_tools_1.png","132"
"html-button-response-mod","139","400698","0.0-139.0","76127","","","","","","triplet","999.7000000029802","","","","2","stimuli/face_uppercase.png","stimuli/tree_lowercase.png","stimuli/stim016_inanimate_boats_4.png","133"
"html-button-response-mod","140","401875","0.0-140.0","76127","","","","","","triplet","663.6999999992549","","","","2","stimuli/stim019_inanimate_tree_3.png","stimuli/stim014_inanimate_boats_2.png","stimuli/fish_uppercase.png","134"
"html-button-response-mod","141","403079","0.0-141.0","76127","","","","","","triplet","702.6999999992549","","","","1","stimuli/stim014_inanimate_boats_2.png","stimuli/boats_uppercase.png","stimuli/stim002_animate_fish_2.png","135"
"html-button-response-mod","142","404486","0.0-142.0","76127","","","","","","triplet","893","","","","0","stimuli/face_uppercase.png","stimuli/stim004_animate_fish_4.png","stimuli/stim021_inanimate_tools_1.png","136"
"html-button-response-mod","143","406890","0.0-143.0","76127","","","","","","triplet","1897.5999999977648","","","","2","stimuli/stim006_animate_bird_2.png","stimuli/stim019_inanimate_tree_3.png","stimuli/stim015_inanimate_boats_3.png","137"
"html-button-response-mod","144","408058","0.0-144.0","76127","","","","","","triplet","651.3000000007451","","","","2","stimuli/stim012_animate_face_4.png","stimuli/stim020_inanimate_tree_4.png","stimuli/face_uppercase.png","138"
"html-button-response-mod","145","409442","0.0-145.0","76127","","","","","","triplet","877.5999999977648","","","","2","stimuli/stim017_inanimate_tree_1.png","stimuli/stim019_inanimate_tree_3.png","stimuli/stim010_animate_face_2.png","139"
"html-button-response-mod","146","410734","0.0-146.0","76127","","","","","","triplet","776.6999999992549","","","","1","stimuli/stim011_animate_face_3.png","stimuli/tree_lowercase.png","stimuli/stim015_inanimate_boats_3.png","140"
"html-button-response-mod","147","412379","0.0-147.0","76127","","","","","","triplet","1143.8999999985099","","","","1","stimuli/stim004_animate_fish_4.png","stimuli/tools_uppercase.png","stimuli/stim012_animate_face_4.png","141"
"html-button-response-mod","148","413607","0.0-148.0","76127","","","","","","triplet","713.5999999977648","","","","1","stimuli/boats_uppercase.png","stimuli/stim007_animate_bird_3.png","stimuli/tools_uppercase.png","142"
"html-button-response-mod","149","414754","0.0-149.0","76127","","","","","","triplet","635.3000000007451","","","","0","stimuli/stim006_animate_bird_2.png","stimuli/fish_lowercase.png","stimuli/face_lowercase.png","143"
"html-button-response-mod","150","415925","0.0-150.0","76127","","","","","","triplet","667.3000000007451","","","","0","stimuli/stim020_inanimate_tree_4.png","stimuli/boats_lowercase.png","stimuli/fish_lowercase.png","144"
"html-button-response-mod","151","417390","0.0-151.0","76127","","","","","","triplet","950.8000000007451","","","","0","stimuli/stim002_animate_fish_2.png","stimuli/stim018_inanimate_tree_2.png","stimuli/stim019_inanimate_tree_3.png","145"
"html-button-response-mod","152","418472","0.0-152.0","76127","","","","","","triplet","580.9000000022352","","","","0","stimuli/tools_lowercase.png","stimuli/stim008_animate_bird_4.png","stimuli/stim016_inanimate_boats_4.png","146"
"html-button-response-mod","153","419676","0.0-153.0","76127","","","","","","triplet","697.7000000029802","","","","1","stimuli/tree_lowercase.png","stimuli/stim019_inanimate_tree_3.png","stimuli/face_lowercase.png","147"
"html-button-response-mod","154","420771","0.0-154.0","76127","","","","","","triplet","593.8000000007451","","","","2","stimuli/tree_uppercase.png","stimuli/face_uppercase.png","stimuli/stim022_inanimate_tools_2.png","148"
"html-button-response-mod","155","422158","0.0-155.0","76127","","","","","","triplet","880.1999999992549","","","","1","stimuli/stim023_inanimate_tools_3.png","stimuli/fish_uppercase.png","stimuli/stim002_animate_fish_2.png","149"
"html-button-response","156","424536","0.0-156.0","76127","","","","","","break","1862.2999999970198","<p>BREAK</p><p>Take a break for as long as you need</p><p>Click the button to continue</p>","0","","","","","",""
"html-button-response-mod","157","426134","0.0-157.0","76127","","","","","","triplet","1596.800000000745","","","","2","stimuli/stim005_animate_bird_1.png","stimuli/stim008_animate_bird_4.png","stimuli/stim023_inanimate_tools_3.png","150"
"html-button-response-mod","158","428218","0.0-158.0","76127","","","","","","triplet","1577.199999999255","","","","0","stimuli/tree_lowercase.png","stimuli/stim006_animate_bird_2.png","stimuli/stim017_inanimate_tree_1.png","151"
"html-button-response-mod","159","429751","0.0-159.0","76127","","","","","","triplet","1018.5","","","","1","stimuli/stim024_inanimate_tools_4.png","stimuli/fish_uppercase.png","stimuli/stim015_inanimate_boats_3.png","152"
"html-button-response-mod","160","430853","0.0-160.0","76127","","","","","","triplet","600","","","","0","stimuli/face_uppercase.png","stimuli/stim016_inanimate_boats_4.png","stimuli/stim024_inanimate_tools_4.png","153"
"html-button-response-mod","161","431858","0.0-161.0","76127","","","","","","triplet","503.69999999925494","","","","0","stimuli/face_uppercase.png","stimuli/stim023_inanimate_tools_3.png","stimuli/stim020_inanimate_tree_4.png","154"
"html-button-response-mod","162","433119","0.0-162.0","76127","","","","","","triplet","749.5","","","","2","stimuli/face_lowercase.png","stimuli/face_uppercase.png","stimuli/stim002_animate_fish_2.png","155"
"html-button-response-mod","163","434921","0.0-163.0","76127","","","","","","triplet","1299.6000000014901","","","","0","stimuli/stim004_animate_fish_4.png","stimuli/stim013_inanimate_boats_1.png","stimuli/stim020_inanimate_tree_4.png","156"
"html-button-response-mod","164","436167","0.0-164.0","76127","","","","","","triplet","737.8000000007451","","","","1","stimuli/stim010_animate_face_2.png","stimuli/fish_uppercase.png","stimuli/stim018_inanimate_tree_2.png","157"
"html-button-response-mod","165","437978","0.0-165.0","76127","","","","","","triplet","1308.800000000745","","","","1","stimuli/stim020_inanimate_tree_4.png","stimuli/stim022_inanimate_tools_2.png","stimuli/stim011_animate_face_3.png","158"
"html-button-response-mod","166","439718","0.0-166.0","76127","","","","","","triplet","1231.300000000745","","","","0","stimuli/stim021_inanimate_tools_1.png","stimuli/stim008_animate_bird_4.png","stimuli/stim003_animate_fish_3.png","159"
"html-button-response-mod","167","441207","0.0-167.0","76127","","","","","","triplet","980.3000000007451","","","","2","stimuli/stim022_inanimate_tools_2.png","stimuli/stim003_animate_fish_3.png","stimuli/tree_uppercase.png","160"
"html-button-response-mod","168","442570","0.0-168.0","76127","","","","","","triplet","854.3000000007451","","","","2","stimuli/tree_uppercase.png","stimuli/face_lowercase.png","stimuli/stim003_animate_fish_3.png","161"
"html-button-response-mod","169","443983","0.0-169.0","76127","","","","","","triplet","910.5","","","","2","stimuli/stim002_animate_fish_2.png","stimuli/stim003_animate_fish_3.png","stimuli/stim020_inanimate_tree_4.png","162"
"html-button-response-mod","170","445252","0.0-170.0","76127","","","","","","triplet","752.9000000022352","","","","0","stimuli/bird_lowercase.png","stimuli/stim007_animate_bird_3.png","stimuli/stim008_animate_bird_4.png","163"
"html-button-response-mod","171","447211","0.0-171.0","76127","","","","","","triplet","1457.800000000745","","","","1","stimuli/fish_lowercase.png","stimuli/stim001_animate_fish_1.png","stimuli/bird_uppercase.png","164"
"html-button-response-mod","172","448379","0.0-172.0","76127","","","","","","triplet","652.5","","","","0","stimuli/stim016_inanimate_boats_4.png","stimuli/bird_lowercase.png","stimuli/face_lowercase.png","165"
"html-button-response-mod","173","449952","0.0-173.0","76127","","","","","","triplet","1071.9000000022352","","","","0","stimuli/stim004_animate_fish_4.png","stimuli/bird_uppercase.png","stimuli/tree_uppercase.png","166"
"html-button-response-mod","174","451340","0.0-174.0","76127","","","","","","triplet","880.0999999977648","","","","1","stimuli/stim013_inanimate_boats_1.png","stimuli/tree_lowercase.png","stimuli/stim004_animate_fish_4.png","167"
"html-button-response-mod","175","452360","0.0-175.0","76127","","","","","","triplet","510.30000000074506","","","","1","stimuli/stim012_animate_face_4.png","stimuli/face_uppercase.png","stimuli/stim019_inanimate_tree_3.png","168"
"html-button-response-mod","176","455096","0.0-176.0","76127","","","","","","triplet","2229","","","","2","stimuli/stim014_inanimate_boats_2.png","stimuli/stim024_inanimate_tools_4.png","stimuli/stim017_inanimate_tree_1.png","169"
"html-button-response-mod","177","457275","0.0-177.0","76127","","","","","","triplet","1664.800000000745","","","","0","stimuli/stim008_animate_bird_4.png","stimuli/stim010_animate_face_2.png","stimuli/stim004_animate_fish_4.png","170"
"html-button-response-mod","178","459546","0.0-178.0","76127","","","","","","triplet","1767.5","","","","0","stimuli/stim019_inanimate_tree_3.png","stimuli/bird_uppercase.png","stimuli/tree_uppercase.png","171"
"html-button-response-mod","179","460987","0.0-179.0","76127","","","","","","triplet","936.3999999985099","","","","2","stimuli/stim017_inanimate_tree_1.png","stimuli/stim021_inanimate_tools_1.png","stimuli/fish_uppercase.png","172"
"html-button-response-mod","180","462586","0.0-180.0","76127","","","","","","triplet","1088.2999999970198","","","","2","stimuli/stim012_animate_face_4.png","stimuli/stim019_inanimate_tree_3.png","stimuli/tools_uppercase.png","173"
"html-button-response-mod","181","464052","0.0-181.0","76127","","","","","","triplet","960","","","","1","stimuli/stim017_inanimate_tree_1.png","stimuli/stim003_animate_fish_3.png","stimuli/stim019_inanimate_tree_3.png","174"
"html-button-response-mod","182","465449","0.0-182.0","76127","","","","","","triplet","886.6999999992549","","","","2","stimuli/stim009_animate_face_1.png","stimuli/stim013_inanimate_boats_1.png","stimuli/bird_lowercase.png","175"
"html-button-response-mod","183","466613","0.0-183.0","76127","","","","","","triplet","651.1999999992549","","","","1","stimuli/stim006_animate_bird_2.png","stimuli/fish_uppercase.png","stimuli/stim009_animate_face_1.png","176"
"html-button-response-mod","184","467738","0.0-184.0","76127","","","","","","triplet","610.1000000014901","","","","2","stimuli/stim002_animate_fish_2.png","stimuli/stim018_inanimate_tree_2.png","stimuli/face_lowercase.png","177"
"html-button-response-mod","185","468905","0.0-185.0","76127","","","","","","triplet","652.2999999970198","","","","0","stimuli/tools_uppercase.png","stimuli/stim019_inanimate_tree_3.png","stimuli/stim014_inanimate_boats_2.png","178"
"html-button-response-mod","186","470461","0.0-186.0","76127","","","","","","triplet","1039.0999999977648","","","","0","stimuli/stim010_animate_face_2.png","stimuli/stim005_animate_bird_1.png","stimuli/stim023_inanimate_tools_3.png","179"
"html-button-response-mod","187","471758","0.0-187.0","76127","","","","","","triplet","793.5","","","","1","stimuli/stim012_animate_face_4.png","stimuli/bird_uppercase.png","stimuli/stim009_animate_face_1.png","180"
"html-button-response-mod","188","473935","0.0-188.0","76127","","","","","","triplet","1670.1000000014901","","","","1","stimuli/tree_uppercase.png","stimuli/stim014_inanimate_boats_2.png","stimuli/bird_uppercase.png","181"
"html-button-response-mod","189","475176","0.0-189.0","76127","","","","","","triplet","727.6999999992549","","","","2","stimuli/stim011_animate_face_3.png","stimuli/stim019_inanimate_tree_3.png","stimuli/tools_lowercase.png","182"
"html-button-response-mod","190","477121","0.0-190.0","76127","","","","","","triplet","1444.199999999255","","","","0","stimuli/bird_lowercase.png","stimuli/stim002_animate_fish_2.png","stimuli/stim001_animate_fish_1.png","183"
"html-button-response-mod","191","478460","0.0-191.0","76127","","","","","","triplet","830.5","","","","2","stimuli/boats_lowercase.png","stimuli/fish_uppercase.png","stimuli/stim022_inanimate_tools_2.png","184"
"html-button-response-mod","192","479842","0.0-192.0","76127","","","","","","triplet","880.6000000014901","","","","0","stimuli/tree_uppercase.png","stimuli/stim005_animate_bird_1.png","stimuli/stim010_animate_face_2.png","185"
"html-button-response-mod","193","481206","0.0-193.0","76127","","","","","","triplet","856.0999999977648","","","","1","stimuli/bird_lowercase.png","stimuli/stim019_inanimate_tree_3.png","stimuli/bird_uppercase.png","186"
"html-button-response-mod","194","482970","0.0-194.0","76127","","","","","","triplet","1251.699999999255","","","","1","stimuli/stim002_animate_fish_2.png","stimuli/tools_lowercase.png","stimuli/stim010_animate_face_2.png","187"
"html-button-response-mod","195","485470","0.0-195.0","76127","","","","","","triplet","1985.2999999970198","","","","0","stimuli/stim011_animate_face_3.png","stimuli/stim003_animate_fish_3.png","stimuli/stim024_inanimate_tools_4.png","188"
"html-button-response-mod","196","489976","0.0-196.0","76127","","","","","","triplet","3998.099999997765","","","","0","stimuli/tools_uppercase.png","stimuli/stim014_inanimate_boats_2.png","stimuli/stim016_inanimate_boats_4.png","189"
"html-button-response-mod","197","491710","0.0-197.0","76127","","","","","","triplet","1229.300000000745","","","","1","stimuli/stim015_inanimate_boats_3.png","stimuli/bird_uppercase.png","stimuli/stim021_inanimate_tools_1.png","190"
"html-button-response-mod","198","493127","0.0-198.0","76127","","","","","","triplet","911.2999999970198","","","","2","stimuli/stim016_inanimate_boats_4.png","stimuli/stim009_animate_face_1.png","stimuli/tree_lowercase.png","191"
"html-button-response-mod","199","494446","0.0-199.0","76127","","","","","","triplet","814.1000000014901","","","","2","stimuli/stim017_inanimate_tree_1.png","stimuli/stim024_inanimate_tools_4.png","stimuli/boats_lowercase.png","192"
"html-button-response-mod","200","495639","0.0-200.0","76127","","","","","","triplet","688.3999999985099","","","","2","stimuli/stim020_inanimate_tree_4.png","stimuli/stim011_animate_face_3.png","stimuli/fish_lowercase.png","193"
"html-button-response-mod","201","500417","0.0-201.0","76127","","","","","","triplet","4271","","","","0","stimuli/stim014_inanimate_boats_2.png","stimuli/fish_uppercase.png","stimuli/tree_uppercase.png","194"
"html-button-response-mod","202","502654","0.0-202.0","76127","","","","","","triplet","1736","","","","1","stimuli/stim015_inanimate_boats_3.png","stimuli/stim011_animate_face_3.png","stimuli/stim002_animate_fish_2.png","195"
"html-button-response-mod","203","507747","0.0-203.0","76127","","","","","","triplet","4580.79999999702","","","","1","stimuli/stim017_inanimate_tree_1.png","stimuli/stim007_animate_bird_3.png","stimuli/stim010_animate_face_2.png","196"
"html-button-response-mod","204","508929","0.0-204.0","76127","","","","","","triplet","676.5","","","","0","stimuli/boats_uppercase.png","stimuli/stim024_inanimate_tools_4.png","stimuli/stim023_inanimate_tools_3.png","197"
"html-button-response-mod","205","510460","0.0-205.0","76127","","","","","","triplet","1029.7999999970198","","","","0","stimuli/stim011_animate_face_3.png","stimuli/stim021_inanimate_tools_1.png","stimuli/stim022_inanimate_tools_2.png","198"
"html-button-response-mod","206","513078","0.0-206.0","76127","","","","","","triplet","2113.199999999255","","","","1","stimuli/stim012_animate_face_4.png","stimuli/face_uppercase.png","stimuli/stim018_inanimate_tree_2.png","199"
"html-button-response","207","519119","0.0-207.0","76127","","","","","","break","5525.699999999255","<p>BREAK</p><p>Take a break for as long as you need</p><p>Click the button to continue</p>","0","","","","","",""
"html-button-response-mod","208","519816","0.0-208.0","76127","","","","","","triplet","695.7999999970198","","","","2","stimuli/stim023_inanimate_tools_3.png","stimuli/stim004_animate_fish_4.png","stimuli/tools_lowercase.png","200"
"html-button-response-mod","209","521937","0.0-209.0","76127","","","","","","triplet","1609.7999999970198","","","","0","stimuli/stim003_animate_fish_3.png","stimuli/stim014_inanimate_boats_2.png","stimuli/stim016_inanimate_boats_4.png","201"
"html-button-response-mod","210","523531","0.0-210.0","76127","","","","","","triplet","1082.699999999255","","","","2","stimuli/stim007_animate_bird_3.png","stimuli/stim006_animate_bird_2.png","stimuli/tools_uppercase.png","202"
"html-button-response-mod","211","524695","0.0-211.0","76127","","","","","","triplet","648.6999999992549","","","","1","stimuli/stim017_inanimate_tree_1.png","stimuli/face_uppercase.png","stimuli/stim023_inanimate_tools_3.png","203"
"html-button-response-mod","212","526963","0.0-212.0","76127","","","","","","triplet","1755.2999999970198","","","","2","stimuli/stim004_animate_fish_4.png","stimuli/stim005_animate_bird_1.png","stimuli/stim019_inanimate_tree_3.png","204"
"html-button-response-mod","213","528295","0.0-213.0","76127","","","","","","triplet","818.2999999970198","","","","1","stimuli/stim010_animate_face_2.png","stimuli/face_uppercase.png","stimuli/stim007_animate_bird_3.png","205"
"html-button-response-mod","214","529555","0.0-214.0","76127","","","","","","triplet","755.2999999970198","","","","2","stimuli/boats_uppercase.png","stimuli/bird_uppercase.png","stimuli/stim014_inanimate_boats_2.png","206"
"html-button-response-mod","215","530796","0.0-215.0","76127","","","","","","triplet","724.1999999992549","","","","1","stimuli/stim006_animate_bird_2.png","stimuli/face_lowercase.png","stimuli/stim014_inanimate_boats_2.png","207"
"html-button-response-mod","216","531910","0.0-216.0","76127","","","","","","triplet","611.6000000014901","","","","0","stimuli/tools_uppercase.png","stimuli/stim005_animate_bird_1.png","stimuli/stim018_inanimate_tree_2.png","208"
"html-button-response-mod","217","533050","0.0-217.0","76127","","","","","","triplet","629.0999999977648","","","","1","stimuli/stim013_inanimate_boats_1.png","stimuli/fish_lowercase.png","stimuli/stim024_inanimate_tools_4.png","209"
"html-button-response-mod","218","534662","0.0-218.0","76127","","","","","","triplet","1095.0999999977648","","","","1","stimuli/stim020_inanimate_tree_4.png","stimuli/stim007_animate_bird_3.png","stimuli/stim017_inanimate_tree_1.png","210"
"html-button-response-mod","219","535757","0.0-219.0","76127","","","","","","triplet","584.3999999985099","","","","0","stimuli/fish_uppercase.png","stimuli/stim021_inanimate_tools_1.png","stimuli/stim010_animate_face_2.png","211"
"html-button-response-mod","220","536957","0.0-220.0","76127","","","","","","triplet","686.0999999977648","","","","0","stimuli/face_lowercase.png","stimuli/stim024_inanimate_tools_4.png","stimuli/stim014_inanimate_boats_2.png","212"
"html-button-response-mod","221","538056","0.0-221.0","76127","","","","","","triplet","594.3999999985099","","","","0","stimuli/tree_lowercase.png","stimuli/stim005_animate_bird_1.png","stimuli/stim011_animate_face_3.png","213"
"html-button-response-mod","222","539110","0.0-222.0","76127","","","","","","triplet","551.5999999977648","","","","1","stimuli/stim009_animate_face_1.png","stimuli/boats_uppercase.png","stimuli/stim008_animate_bird_4.png","214"
"html-button-response-mod","223","540175","0.0-223.0","76127","","","","","","triplet","551.0999999977648","","","","0","stimuli/bird_uppercase.png","stimuli/stim018_inanimate_tree_2.png","stimuli/stim011_animate_face_3.png","215"
"html-button-response-mod","224","541226","0.0-224.0","76127","","","","","","triplet","546.7000000029802","","","","2","stimuli/stim016_inanimate_boats_4.png","stimuli/stim003_animate_fish_3.png","stimuli/bird_uppercase.png","216"
"html-button-response-mod","225","543245","0.0-225.0","76127","","","","","","triplet","1511.5","","","","0","stimuli/stim013_inanimate_boats_1.png","stimuli/stim014_inanimate_boats_2.png","stimuli/stim002_animate_fish_2.png","217"
"html-button-response-mod","226","544372","0.0-226.0","76127","","","","","","triplet","614.3000000007451","","","","2","stimuli/stim010_animate_face_2.png","stimuli/stim014_inanimate_boats_2.png","stimuli/face_lowercase.png","218"
"html-button-response-mod","227","545490","0.0-227.0","76127","","","","","","triplet","601.0999999977648","","","","0","stimuli/boats_lowercase.png","stimuli/stim007_animate_bird_3.png","stimuli/stim003_animate_fish_3.png","219"
"html-button-response-mod","228","546595","0.0-228.0","76127","","","","","","triplet","602.5","","","","2","stimuli/stim018_inanimate_tree_2.png","stimuli/stim024_inanimate_tools_4.png","stimuli/bird_lowercase.png","220"
"html-button-response-mod","229","547681","0.0-229.0","76127","","","","","","triplet","584","","","","0","stimuli/bird_uppercase.png","stimuli/stim012_animate_face_4.png","stimuli/stim021_inanimate_tools_1.png","221"
"html-button-response-mod","230","548799","0.0-230.0","76127","","","","","","triplet","612.6999999992549","","","","1","stimuli/stim016_inanimate_boats_4.png","stimuli/tools_uppercase.png","stimuli/stim013_inanimate_boats_1.png","222"
"html-button-response-mod","231","549924","0.0-231.0","76127","","","","","","triplet","609.5","","","","0","stimuli/stim002_animate_fish_2.png","stimuli/boats_lowercase.png","stimuli/face_uppercase.png","223"
"html-button-response-mod","232","552018","0.0-232.0","76127","","","","","","triplet","1591.199999999255","","","","1","stimuli/tools_uppercase.png","stimuli/face_lowercase.png","stimuli/boats_uppercase.png","224"
"html-button-response-mod","233","554068","0.0-233.0","76127","","","","","","triplet","1536.199999999255","","","","2","stimuli/stim003_animate_fish_3.png","stimuli/stim006_animate_bird_2.png","stimuli/bird_lowercase.png","225"
"html-button-response-mod","234","555272","0.0-234.0","76127","","","","","","triplet","700","","","","2","stimuli/stim011_animate_face_3.png","stimuli/stim013_inanimate_boats_1.png","stimuli/tools_lowercase.png","226"
"html-button-response-mod","235","557614","0.0-235.0","76127","","","","","","triplet","1835.8999999985099","","","","0","stimuli/boats_lowercase.png","stimuli/face_uppercase.png","stimuli/stim013_inanimate_boats_1.png","227"
"html-button-response-mod","236","562004","0.0-236.0","76127","","","","","","triplet","3886.89999999851","","","","0","stimuli/fish_lowercase.png","stimuli/stim004_animate_fish_4.png","stimuli/stim022_inanimate_tools_2.png","228"
"html-button-response-mod","237","563757","0.0-237.0","76127","","","","","","triplet","1239.2000000029802","","","","0","stimuli/stim016_inanimate_boats_4.png","stimuli/bird_lowercase.png","stimuli/tree_lowercase.png","229"
"html-button-response-mod","238","565745","0.0-238.0","76127","","","","","","triplet","1480.2000000029802","","","","1","stimuli/stim006_animate_bird_2.png","stimuli/face_uppercase.png","stimuli/stim016_inanimate_boats_4.png","230"
"html-button-response-mod","239","567667","0.0-239.0","76127","","","","","","triplet","1414.5999999977648","","","","2","stimuli/stim024_inanimate_tools_4.png","stimuli/stim013_inanimate_boats_1.png","stimuli/stim007_animate_bird_3.png","231"
"html-button-response-mod","240","569384","0.0-240.0","76127","","","","","","triplet","1216","","","","1","stimuli/stim024_inanimate_tools_4.png","stimuli/boats_uppercase.png","stimuli/stim006_animate_bird_2.png","232"
"html-button-response-mod","241","571068","0.0-241.0","76127","","","","","","triplet","1175.5","","","","1","stimuli/boats_uppercase.png","stimuli/stim005_animate_bird_1.png","stimuli/bird_lowercase.png","233"
"html-button-response-mod","242","572790","0.0-242.0","76127","","","","","","triplet","1208.699999999255","","","","2","stimuli/stim015_inanimate_boats_3.png","stimuli/stim010_animate_face_2.png","stimuli/fish_lowercase.png","234"
"html-button-response-mod","243","575240","0.0-243.0","76127","","","","","","triplet","1943.800000000745","","","","1","stimuli/stim014_inanimate_boats_2.png","stimuli/stim003_animate_fish_3.png","stimuli/stim021_inanimate_tools_1.png","235"
"html-button-response-mod","244","576471","0.0-244.0","76127","","","","","","triplet","727.5","","","","2","stimuli/stim014_inanimate_boats_2.png","stimuli/stim001_animate_fish_1.png","stimuli/tree_lowercase.png","236"
"html-button-response-mod","245","577951","0.0-245.0","76127","","","","","","triplet","964.3999999985099","","","","2","stimuli/stim013_inanimate_boats_1.png","stimuli/stim017_inanimate_tree_1.png","stimuli/stim015_inanimate_boats_3.png","237"
"html-button-response-mod","246","579193","0.0-246.0","76127","","","","","","triplet","731.1000000014901","","","","2","stimuli/stim016_inanimate_boats_4.png","stimuli/stim021_inanimate_tools_1.png","stimuli/bird_lowercase.png","238"
"html-button-response-mod","247","580533","0.0-247.0","76127","","","","","","triplet","838.5","","","","0","stimuli/stim009_animate_face_1.png","stimuli/stim018_inanimate_tree_2.png","stimuli/stim020_inanimate_tree_4.png","239"
"html-button-response-mod","248","581805","0.0-248.0","76127","","","","","","triplet","769.7000000029802","","","","0","stimuli/boats_lowercase.png","stimuli/stim006_animate_bird_2.png","stimuli/stim018_inanimate_tree_2.png","240"
"html-button-response-mod","249","583141","0.0-249.0","76127","","","","","","triplet","823.1999999992549","","","","1","stimuli/tree_lowercase.png","stimuli/stim012_animate_face_4.png","stimuli/fish_lowercase.png","241"
"html-button-response-mod","250","584776","0.0-250.0","76127","","","","","","triplet","1133","","","","1","stimuli/boats_uppercase.png","stimuli/boats_lowercase.png","stimuli/bird_lowercase.png","242"
"html-button-response-mod","251","586553","0.0-251.0","76127","","","","","","triplet","1275.5","","","","1","stimuli/stim010_animate_face_2.png","stimuli/tree_lowercase.png","stimuli/stim002_animate_fish_2.png","243"
"html-button-response-mod","252","587801","0.0-252.0","76127","","","","","","triplet","737.8999999985099","","","","0","stimuli/face_lowercase.png","stimuli/stim014_inanimate_boats_2.png","stimuli/stim003_animate_fish_3.png","244"
"html-button-response-mod","253","589410","0.0-253.0","76127","","","","","","triplet","1107.300000000745","","","","0","stimuli/boats_lowercase.png","stimuli/stim008_animate_bird_4.png","stimuli/stim002_animate_fish_2.png","245"
"html-button-response-mod","254","591326","0.0-254.0","76127","","","","","","triplet","1409.6000000014901","","","","2","stimuli/stim012_animate_face_4.png","stimuli/stim011_animate_face_3.png","stimuli/stim015_inanimate_boats_3.png","246"
"html-button-response-mod","255","595323","0.0-255.0","76127","","","","","","triplet","3488.7000000029802","","","","1","stimuli/stim010_animate_face_2.png","stimuli/fish_lowercase.png","stimuli/boats_uppercase.png","247"
"html-button-response-mod","256","598656","0.0-256.0","76127","","","","","","triplet","2826.39999999851","","","","1","stimuli/face_uppercase.png","stimuli/stim023_inanimate_tools_3.png","stimuli/tools_lowercase.png","248"
"html-button-response-mod","257","600894","0.0-257.0","76127","","","","","","triplet","1732.300000000745","","","","1","stimuli/stim017_inanimate_tree_1.png","stimuli/stim009_animate_face_1.png","stimuli/stim008_animate_bird_4.png","249"
"html-button-response","258","604993","0.0-258.0","76127","","","","","","break","3593.699999999255","<p>BREAK</p><p>Take a break for as long as you need</p><p>Click the button to continue</p>","0","","","","","",""
"html-button-response-mod","259","605670","0.0-259.0","76127","","","","","","triplet","675.6000000014901","","","","2","stimuli/stim014_inanimate_boats_2.png","stimuli/stim003_animate_fish_3.png","stimuli/bird_uppercase.png","250"
"html-button-response-mod","260","606838","0.0-260.0","76127","","","","","","triplet","653.8000000007451","","","","2","stimuli/bird_uppercase.png","stimuli/face_uppercase.png","stimuli/stim024_inanimate_tools_4.png","251"
"html-button-response-mod","261","608404","0.0-261.0","76127","","","","","","triplet","1050.5","","","","1","stimuli/stim011_animate_face_3.png","stimuli/stim007_animate_bird_3.png","stimuli/stim009_animate_face_1.png","252"
"html-button-response-mod","262","609949","0.0-262.0","76127","","","","","","triplet","1028.2000000029802","","","","0","stimuli/tools_uppercase.png","stimuli/fish_lowercase.png","stimuli/tree_lowercase.png","253"
"html-button-response-mod","263","611159","0.0-263.0","76127","","","","","","triplet","708.1000000014901","","","","1","stimuli/tools_uppercase.png","stimuli/stim004_animate_fish_4.png","stimuli/bird_lowercase.png","254"
"html-button-response-mod","264","612330","0.0-264.0","76127","","","","","","triplet","668.0999999977648","","","","2","stimuli/tools_lowercase.png","stimuli/face_lowercase.png","stimuli/stim013_inanimate_boats_1.png","255"
"html-button-response-mod","265","613890","0.0-265.0","76127","","","","","","triplet","1045.300000000745","","","","2","stimuli/tree_uppercase.png","stimuli/stim024_inanimate_tools_4.png","stimuli/stim005_animate_bird_1.png","256"
"html-button-response-mod","266","615140","0.0-266.0","76127","","","","","","triplet","735.7000000029802","","","","0","stimuli/stim005_animate_bird_1.png","stimuli/face_lowercase.png","stimuli/bird_uppercase.png","257"
"html-button-response-mod","267","617360","0.0-267.0","76127","","","","","","triplet","1717.9000000022352","","","","0","stimuli/fish_lowercase.png","stimuli/tools_lowercase.png","stimuli/tree_lowercase.png","258"
"html-button-response-mod","268","618685","0.0-268.0","76127","","","","","","triplet","821.1000000014901","","","","0","stimuli/stim005_animate_bird_1.png","stimuli/tools_uppercase.png","stimuli/bird_lowercase.png","259"
"html-button-response-mod","269","620371","0.0-269.0","76127","","","","","","triplet","1183.1000000014901","","","","2","stimuli/stim013_inanimate_boats_1.png","stimuli/stim002_animate_fish_2.png","stimuli/fish_lowercase.png","260"
"html-button-response-mod","270","621675","0.0-270.0","76127","","","","","","triplet","793.6999999992549","","","","2","stimuli/stim022_inanimate_tools_2.png","stimuli/stim006_animate_bird_2.png","stimuli/face_lowercase.png","261"
"html-button-response-mod","271","623219","0.0-271.0","76127","","","","","","triplet","1032.4000000022352","","","","0","stimuli/stim012_animate_face_4.png","stimuli/stim006_animate_bird_2.png","stimuli/stim004_animate_fish_4.png","262"
"html-button-response-mod","272","624616","0.0-272.0","76127","","","","","","triplet","895.4000000022352","","","","0","stimuli/tree_lowercase.png","stimuli/stim011_animate_face_3.png","stimuli/stim021_inanimate_tools_1.png","263"
"html-button-response-mod","273","626426","0.0-273.0","76127","","","","","","triplet","1299.5","","","","1","stimuli/stim006_animate_bird_2.png","stimuli/stim009_animate_face_1.png","stimuli/stim021_inanimate_tools_1.png","264"
"html-button-response-mod","274","628084","0.0-274.0","76127","","","","","","triplet","1143.2000000029802","","","","2","stimuli/stim005_animate_bird_1.png","stimuli/stim006_animate_bird_2.png","stimuli/stim010_animate_face_2.png","265"
"html-button-response-mod","275","631000","0.0-275.0","76127","","","","","","triplet","2404.400000002235","","","","2","stimuli/boats_lowercase.png","stimuli/boats_uppercase.png","stimuli/tools_lowercase.png","266"
"html-button-response-mod","276","634245","0.0-276.0","76127","","","","","","triplet","2735.7000000029802","","","","0","stimuli/stim017_inanimate_tree_1.png","stimuli/stim004_animate_fish_4.png","stimuli/stim011_animate_face_3.png","267"
"html-button-response-mod","277","636418","0.0-277.0","76127","","","","","","triplet","1663.4000000022352","","","","0","stimuli/stim009_animate_face_1.png","stimuli/stim005_animate_bird_1.png","stimuli/stim007_animate_bird_3.png","268"
"html-button-response-mod","278","637832","0.0-278.0","76127","","","","","","triplet","897.2000000029802","","","","2","stimuli/stim014_inanimate_boats_2.png","stimuli/stim015_inanimate_boats_3.png","stimuli/bird_uppercase.png","269"
"html-button-response-mod","279","638943","0.0-279.0","76127","","","","","","triplet","595.8999999985099","","","","1","stimuli/stim006_animate_bird_2.png","stimuli/face_uppercase.png","stimuli/stim023_inanimate_tools_3.png","270"
"html-button-response-mod","280","641702","0.0-280.0","76127","","","","","","triplet","2256.900000002235","","","","2","stimuli/boats_uppercase.png","stimuli/face_lowercase.png","stimuli/stim010_animate_face_2.png","271"
"html-button-response-mod","281","642865","0.0-281.0","76127","","","","","","triplet","661.4000000022352","","","","1","stimuli/stim003_animate_fish_3.png","stimuli/tools_lowercase.png","stimuli/stim007_animate_bird_3.png","272"
"html-button-response-mod","282","644183","0.0-282.0","76127","","","","","","triplet","812.4000000022352","","","","0","stimuli/stim004_animate_fish_4.png","stimuli/boats_lowercase.png","stimuli/tools_lowercase.png","273"
"html-button-response-mod","283","645705","0.0-283.0","76127","","","","","","triplet","1016.0999999977648","","","","1","stimuli/stim018_inanimate_tree_2.png","stimuli/fish_lowercase.png","stimuli/stim013_inanimate_boats_1.png","274"
"html-button-response-mod","284","647230","0.0-284.0","76127","","","","","","triplet","1011.0999999977648","","","","1","stimuli/face_lowercase.png","stimuli/stim017_inanimate_tree_1.png","stimuli/tree_lowercase.png","275"
"html-button-response-mod","285","648662","0.0-285.0","76127","","","","","","triplet","925.8000000007451","","","","2","stimuli/stim018_inanimate_tree_2.png","stimuli/stim012_animate_face_4.png","stimuli/tools_lowercase.png","276"
"html-button-response-mod","286","649869","0.0-286.0","76127","","","","","","triplet","690.5999999977648","","","","1","stimuli/stim013_inanimate_boats_1.png","stimuli/fish_lowercase.png","stimuli/stim014_inanimate_boats_2.png","277"
"html-button-response-mod","287","651196","0.0-287.0","76127","","","","","","triplet","814.8000000007451","","","","1","stimuli/face_lowercase.png","stimuli/stim004_animate_fish_4.png","stimuli/boats_uppercase.png","278"
"html-button-response-mod","288","653349","0.0-288.0","76127","","","","","","triplet","1645.300000000745","","","","0","stimuli/stim016_inanimate_boats_4.png","stimuli/stim004_animate_fish_4.png","stimuli/stim009_animate_face_1.png","279"
"html-button-response-mod","289","655915","0.0-289.0","76127","","","","","","triplet","2063.099999997765","","","","0","stimuli/stim011_animate_face_3.png","stimuli/stim016_inanimate_boats_4.png","stimuli/stim019_inanimate_tree_3.png","280"
"html-button-response-mod","290","660043","0.0-290.0","76127","","","","","","triplet","3622.5","","","","2","stimuli/stim012_animate_face_4.png","stimuli/stim020_inanimate_tree_4.png","stimuli/stim023_inanimate_tools_3.png","281"
"html-button-response-mod","291","662404","0.0-291.0","76127","","","","","","triplet","1846.5999999977648","","","","0","stimuli/boats_uppercase.png","stimuli/stim024_inanimate_tools_4.png","stimuli/stim009_animate_face_1.png","282"
"html-button-response-mod","292","664390","0.0-292.0","76127","","","","","","triplet","1470.1000000014901","","","","2","stimuli/stim007_animate_bird_3.png","stimuli/stim011_animate_face_3.png","stimuli/stim016_inanimate_boats_4.png","283"
"html-button-response-mod","293","665900","0.0-293.0","76127","","","","","","triplet","994.1000000014901","","","","2","stimuli/stim017_inanimate_tree_1.png","stimuli/stim015_inanimate_boats_3.png","stimuli/tools_uppercase.png","284"
"html-button-response-mod","294","667574","0.0-294.0","76127","","","","","","triplet","1166.300000000745","","","","2","stimuli/tree_uppercase.png","stimuli/stim022_inanimate_tools_2.png","stimuli/fish_uppercase.png","285"
"html-button-response-mod","295","668733","0.0-295.0","76127","","","","","","triplet","654.6000000014901","","","","1","stimuli/face_uppercase.png","stimuli/boats_uppercase.png","stimuli/stim017_inanimate_tree_1.png","286"
"html-button-response-mod","296","669829","0.0-296.0","76127","","","","","","triplet","591.7000000029802","","","","1","stimuli/stim009_animate_face_1.png","stimuli/bird_lowercase.png","stimuli/stim001_animate_fish_1.png","287"
"html-button-response-mod","297","670926","0.0-297.0","76127","","","","","","triplet","590.1999999992549","","","","2","stimuli/stim012_animate_face_4.png","stimuli/stim017_inanimate_tree_1.png","stimuli/boats_uppercase.png","288"
"html-button-response-mod","298","672086","0.0-298.0","76127","","","","","","triplet","648","","","","0","stimuli/boats_lowercase.png","stimuli/stim001_animate_fish_1.png","stimuli/stim006_animate_bird_2.png","289"
"html-button-response-mod","299","673886","0.0-299.0","76127","","","","","","triplet","1287","","","","1","stimuli/stim010_animate_face_2.png","stimuli/stim023_inanimate_tools_3.png","stimuli/stim004_animate_fish_4.png","290"
"html-button-response-mod","300","675985","0.0-300.0","76127","","","","","","triplet","1592.699999999255","","","","0","stimuli/stim015_inanimate_boats_3.png","stimuli/stim017_inanimate_tree_1.png","stimuli/stim007_animate_bird_3.png","291"
"html-button-response-mod","301","677159","0.0-301.0","76127","","","","","","triplet","672.5999999977648","","","","0","stimuli/boats_uppercase.png","stimuli/stim021_inanimate_tools_1.png","stimuli/stim020_inanimate_tree_4.png","292"
"html-button-response-mod","302","678981","0.0-302.0","76127","","","","","","triplet","1320","","","","2","stimuli/stim019_inanimate_tree_3.png","stimuli/stim014_inanimate_boats_2.png","stimuli/stim011_animate_face_3.png","293"
"html-button-response-mod","303","680215","0.0-303.0","76127","","","","","","triplet","718.1999999992549","","","","2","stimuli/stim001_animate_fish_1.png","stimuli/stim021_inanimate_tools_1.png","stimuli/face_lowercase.png","294"
"html-button-response-mod","304","681210","0.0-304.0","76127","","","","","","triplet","493.1000000014901","","","","2","stimuli/stim020_inanimate_tree_4.png","stimuli/stim005_animate_bird_1.png","stimuli/fish_uppercase.png","295"
"html-button-response-mod","305","682999","0.0-305.0","76127","","","","","","triplet","1282.800000000745","","","","0","stimuli/stim010_animate_face_2.png","stimuli/stim007_animate_bird_3.png","stimuli/stim002_animate_fish_2.png","296"
"html-button-response-mod","306","684874","0.0-306.0","76127","","","","","","triplet","1359.5999999977648","","","","2","stimuli/stim005_animate_bird_1.png","stimuli/stim010_animate_face_2.png","stimuli/stim024_inanimate_tools_4.png","297"
"html-button-response-mod","307","686348","0.0-307.0","76127","","","","","","triplet","970.5","","","","0","stimuli/bird_lowercase.png","stimuli/stim006_animate_bird_2.png","stimuli/stim015_inanimate_boats_3.png","298"
"html-button-response-mod","308","688098","0.0-308.0","76127","","","","","","triplet","1233.300000000745","","","","2","stimuli/stim007_animate_bird_3.png","stimuli/stim012_animate_face_4.png","stimuli/stim019_inanimate_tree_3.png","299"
"html-button-response","309","689313","0.0-309.0","76127","","","","","","break","702.5999999977648","<p>BREAK</p><p>Take a break for as long as you need</p><p>Click the button to continue</p>","0","","","","","",""
"html-button-response-mod","310","691079","0.0-310.0","76127","","","","","","triplet","1765.1000000014901","","","","0","stimuli/stim023_inanimate_tools_3.png","stimuli/stim017_inanimate_tree_1.png","stimuli/stim006_animate_bird_2.png","300"
"html-button-response-mod","311","693023","0.0-311.0","76127","","","","","","triplet","1428.5","","","","2","stimuli/stim005_animate_bird_1.png","stimuli/stim024_inanimate_tools_4.png","stimuli/stim016_inanimate_boats_4.png","301"
"html-button-response-mod","312","694533","0.0-312.0","76127","","","","","","triplet","1007.3000000007451","","","","2","stimuli/stim014_inanimate_boats_2.png","stimuli/stim004_animate_fish_4.png","stimuli/fish_uppercase.png","302"
"html-button-response-mod","313","696552","0.0-313.0","76127","","","","","","triplet","1506.199999999255","","","","0","stimuli/stim006_animate_bird_2.png","stimuli/boats_lowercase.png","stimuli/tree_uppercase.png","303"
"html-button-response-mod","314","697830","0.0-314.0","76127","","","","","","triplet","766.1000000014901","","","","0","stimuli/stim001_animate_fish_1.png","stimuli/tree_uppercase.png","stimuli/face_lowercase.png","304"
"html-button-response-mod","315","701432","0.0-315.0","76127","","","","","","triplet","3093.900000002235","","","","0","stimuli/stim011_animate_face_3.png","stimuli/stim003_animate_fish_3.png","stimuli/stim014_inanimate_boats_2.png","305"
"html-button-response-mod","316","704050","0.0-316.0","76127","","","","","","triplet","2110.300000000745","","","","0","stimuli/tools_uppercase.png","stimuli/stim012_animate_face_4.png","stimuli/stim010_animate_face_2.png","306"
"html-button-response-mod","317","705144","0.0-317.0","76127","","","","","","triplet","579.1999999992549","","","","2","stimuli/stim016_inanimate_boats_4.png","stimuli/stim009_animate_face_1.png","stimuli/fish_lowercase.png","307"
"html-button-response-mod","318","706292","0.0-318.0","76127","","","","","","triplet","645.6000000014901","","","","1","stimuli/stim001_animate_fish_1.png","stimuli/bird_uppercase.png","stimuli/stim007_animate_bird_3.png","308"
"html-button-response-mod","319","707443","0.0-319.0","76127","","","","","","triplet","637.6999999992549","","","","1","stimuli/stim018_inanimate_tree_2.png","stimuli/bird_uppercase.png","stimuli/stim016_inanimate_boats_4.png","309"
"html-button-response-mod","320","708909","0.0-320.0","76127","","","","","","triplet","957.6999999992549","","","","0","stimuli/tree_uppercase.png","stimuli/stim005_animate_bird_1.png","stimuli/stim008_animate_bird_4.png","310"
"html-button-response-mod","321","709983","0.0-321.0","76127","","","","","","triplet","558.3000000007451","","","","1","stimuli/stim002_animate_fish_2.png","stimuli/tools_lowercase.png","stimuli/stim018_inanimate_tree_2.png","311"
"html-button-response-mod","322","711116","0.0-322.0","76127","","","","","","triplet","625.6000000014901","","","","2","stimuli/stim005_animate_bird_1.png","stimuli/stim015_inanimate_boats_3.png","stimuli/tools_uppercase.png","312"
"html-button-response-mod","323","712305","0.0-323.0","76127","","","","","","triplet","680.5","","","","1","stimuli/stim002_animate_fish_2.png","stimuli/tree_uppercase.png","stimuli/stim008_animate_bird_4.png","313"
"html-button-response-mod","324","713714","0.0-324.0","76127","","","","","","triplet","895.1000000014901","","","","0","stimuli/stim013_inanimate_boats_1.png","stimuli/face_lowercase.png","stimuli/bird_lowercase.png","314"
"html-button-response-mod","325","714744","0.0-325.0","76127","","","","","","triplet","520.8999999985099","","","","0","stimuli/bird_lowercase.png","stimuli/stim022_inanimate_tools_2.png","stimuli/stim009_animate_face_1.png","315"
"html-button-response-mod","326","716455","0.0-326.0","76127","","","","","","triplet","1205.9000000022352","","","","1","stimuli/stim012_animate_face_4.png","stimuli/stim024_inanimate_tools_4.png","stimuli/stim011_animate_face_3.png","316"
"html-button-response-mod","327","718554","0.0-327.0","76127","","","","","","triplet","1587.5","","","","1","stimuli/stim017_inanimate_tree_1.png","stimuli/bird_lowercase.png","stimuli/stim012_animate_face_4.png","317"
"html-button-response-mod","328","720678","0.0-328.0","76127","","","","","","triplet","1609.800000000745","","","","2","stimuli/stim018_inanimate_tree_2.png","stimuli/stim017_inanimate_tree_1.png","stimuli/stim003_animate_fish_3.png","318"
"html-button-response-mod","329","722779","0.0-329.0","76127","","","","","","triplet","1585.7000000029802","","","","2","stimuli/bird_uppercase.png","stimuli/face_uppercase.png","stimuli/tree_lowercase.png","319"
"html-button-response-mod","330","724502","0.0-330.0","76127","","","","","","triplet","1220","","","","2","stimuli/stim004_animate_fish_4.png","stimuli/stim007_animate_bird_3.png","stimuli/boats_uppercase.png","320"
"html-button-response-mod","331","729102","0.0-331.0","76127","","","","","","triplet","4093.60000000149","","","","1","stimuli/stim006_animate_bird_2.png","stimuli/stim002_animate_fish_2.png","stimuli/stim018_inanimate_tree_2.png","321"
"html-button-response-mod","332","731674","0.0-332.0","76127","","","","","","triplet","2057.699999999255","","","","0","stimuli/stim017_inanimate_tree_1.png","stimuli/stim016_inanimate_boats_4.png","stimuli/stim013_inanimate_boats_1.png","322"
"html-button-response-mod","333","732907","0.0-333.0","76127","","","","","","triplet","716.6999999992549","","","","0","stimuli/face_lowercase.png","stimuli/stim023_inanimate_tools_3.png","stimuli/stim010_animate_face_2.png","323"
"html-button-response-mod","334","734372","0.0-334.0","76127","","","","","","triplet","959.5","","","","0","stimuli/stim006_animate_bird_2.png","stimuli/tools_uppercase.png","stimuli/fish_lowercase.png","324"
"html-button-response-mod","335","737163","0.0-335.0","76127","","","","","","triplet","2287.5","","","","2","stimuli/stim011_animate_face_3.png","stimuli/stim012_animate_face_4.png","stimuli/stim009_animate_face_1.png","325"
"html-button-response-mod","336","738657","0.0-336.0","76127","","","","","","triplet","990.5999999977648","","","","2","stimuli/stim004_animate_fish_4.png","stimuli/stim008_animate_bird_4.png","stimuli/face_uppercase.png","326"
"html-button-response-mod","337","741008","0.0-337.0","76127","","","","","","triplet","1844.300000000745","","","","2","stimuli/boats_uppercase.png","stimuli/bird_uppercase.png","stimuli/stim013_inanimate_boats_1.png","327"
"html-button-response-mod","338","742993","0.0-338.0","76127","","","","","","triplet","1479.9000000022352","","","","0","stimuli/stim013_inanimate_boats_1.png","stimuli/stim010_animate_face_2.png","stimuli/stim019_inanimate_tree_3.png","328"
"html-button-response-mod","339","747322","0.0-339.0","76127","","","","","","triplet","3815.800000000745","","","","2","stimuli/stim006_animate_bird_2.png","stimuli/stim013_inanimate_boats_1.png","stimuli/tools_uppercase.png","329"
"html-button-response-mod","340","749624","0.0-340.0","76127","","","","","","triplet","1795.199999999255","","","","0","stimuli/bird_lowercase.png","stimuli/boats_uppercase.png","stimuli/tree_uppercase.png","330"
"html-button-response-mod","341","752948","0.0-341.0","76127","","","","","","triplet","2816.300000000745","","","","0","stimuli/tree_lowercase.png","stimuli/stim009_animate_face_1.png","stimuli/stim006_animate_bird_2.png","331"
"html-button-response-mod","342","754474","0.0-342.0","76127","","","","","","triplet","1016.1999999992549","","","","2","stimuli/stim012_animate_face_4.png","stimuli/stim022_inanimate_tools_2.png","stimuli/face_lowercase.png","332"
"html-button-response-mod","343","757554","0.0-343.0","76127","","","","","","triplet","2578.199999999255","","","","0","stimuli/boats_uppercase.png","stimuli/stim011_animate_face_3.png","stimuli/stim020_inanimate_tree_4.png","333"
"html-button-response-mod","344","759702","0.0-344.0","76127","","","","","","triplet","1644.5","","","","1","stimuli/stim011_animate_face_3.png","stimuli/boats_lowercase.png","stimuli/stim001_animate_fish_1.png","334"
"html-button-response-mod","345","761518","0.0-345.0","76127","","","","","","triplet","1308.5999999977648","","","","1","stimuli/stim023_inanimate_tools_3.png","stimuli/stim006_animate_bird_2.png","stimuli/stim021_inanimate_tools_1.png","335"
"html-button-response-mod","346","763688","0.0-346.0","76127","","","","","","triplet","1668.800000000745","","","","0","stimuli/stim020_inanimate_tree_4.png","stimuli/stim014_inanimate_boats_2.png","stimuli/stim004_animate_fish_4.png","336"
"html-button-response-mod","347","766245","0.0-347.0","76127","","","","","","triplet","2051.60000000149","","","","1","stimuli/stim022_inanimate_tools_2.png","stimuli/tools_lowercase.png","stimuli/stim017_inanimate_tree_1.png","337"
"html-button-response-mod","348","768244","0.0-348.0","76127","","","","","","triplet","1491.199999999255","","","","2","stimuli/stim008_animate_bird_4.png","stimuli/stim006_animate_bird_2.png","stimuli/stim015_inanimate_boats_3.png","338"
"html-button-response-mod","349","769880","0.0-349.0","76127","","","","","","triplet","1124.199999999255","","","","0","stimuli/tools_uppercase.png","stimuli/stim005_animate_bird_1.png","stimuli/stim008_animate_bird_4.png","339"
"html-button-response-mod","350","770989","0.0-350.0","76127","","","","","","triplet","606.8000000007451","","","","0","stimuli/bird_lowercase.png","stimuli/stim004_animate_fish_4.png","stimuli/stim010_animate_face_2.png","340"
"html-button-response-mod","351","773435","0.0-351.0","76127","","","","","","triplet","1933.699999999255","","","","0","stimuli/stim024_inanimate_tools_4.png","stimuli/stim007_animate_bird_3.png","stimuli/stim004_animate_fish_4.png","341"
"html-button-response-mod","352","774581","0.0-352.0","76127","","","","","","triplet","637.3000000007451","","","","2","stimuli/stim007_animate_bird_3.png","stimuli/stim018_inanimate_tree_2.png","stimuli/boats_lowercase.png","342"
"html-button-response-mod","353","775930","0.0-353.0","76127","","","","","","triplet","834.0999999977648","","","","0","stimuli/stim015_inanimate_boats_3.png","stimuli/tree_lowercase.png","stimuli/tools_uppercase.png","343"
"html-button-response-mod","354","777232","0.0-354.0","76127","","","","","","triplet","792.0999999977648","","","","1","stimuli/stim019_inanimate_tree_3.png","stimuli/fish_uppercase.png","stimuli/stim008_animate_bird_4.png","344"
"html-button-response-mod","355","778926","0.0-355.0","76127","","","","","","triplet","1177.0999999977648","","","","2","stimuli/stim011_animate_face_3.png","stimuli/stim009_animate_face_1.png","stimuli/stim020_inanimate_tree_4.png","345"
"html-button-response-mod","356","780184","0.0-356.0","76127","","","","","","triplet","755.3999999985099","","","","0","stimuli/tools_uppercase.png","stimuli/stim021_inanimate_tools_1.png","stimuli/stim004_animate_fish_4.png","346"
"html-button-response-mod","357","781797","0.0-357.0","76127","","","","","","triplet","1111","","","","1","stimuli/face_uppercase.png","stimuli/stim004_animate_fish_4.png","stimuli/tree_uppercase.png","347"
"html-button-response-mod","358","783045","0.0-358.0","76127","","","","","","triplet","746.1999999992549","","","","2","stimuli/stim024_inanimate_tools_4.png","stimuli/stim004_animate_fish_4.png","stimuli/tree_lowercase.png","348"
"html-button-response-mod","359","784043","0.0-359.0","76127","","","","","","triplet","485.69999999925494","","","","2","stimuli/stim018_inanimate_tree_2.png","stimuli/stim011_animate_face_3.png","stimuli/tree_uppercase.png","349"
"html-button-response","360","785132","0.0-360.0","76127","","","","","","break","586.0999999977648","<p>BREAK</p><p>Take a break for as long as you need</p><p>Click the button to continue</p>","0","","","","","",""
"html-button-response-mod","361","786689","0.0-361.0","76127","","","","","","triplet","1556.0999999977648","","","","1","stimuli/boats_lowercase.png","stimuli/stim018_inanimate_tree_2.png","stimuli/tools_lowercase.png","350"
"html-button-response-mod","362","788016","0.0-362.0","76127","","","","","","triplet","825.1999999992549","","","","1","stimuli/stim017_inanimate_tree_1.png","stimuli/fish_lowercase.png","stimuli/stim016_inanimate_boats_4.png","351"
"html-button-response-mod","363","789195","0.0-363.0","76127","","","","","","triplet","667.2000000029802","","","","1","stimuli/stim014_inanimate_boats_2.png","stimuli/face_lowercase.png","stimuli/stim016_inanimate_boats_4.png","352"
"html-button-response-mod","364","790265","0.0-364.0","76127","","","","","","triplet","568.6999999992549","","","","0","stimuli/face_uppercase.png","stimuli/stim003_animate_fish_3.png","stimuli/stim017_inanimate_tree_1.png","353"
"html-button-response-mod","365","791221","0.0-365.0","76127","","","","","","triplet","444.3999999985099","","","","0","stimuli/bird_lowercase.png","stimuli/stim002_animate_fish_2.png","stimuli/stim015_inanimate_boats_3.png","354"
"html-button-response-mod","366","793019","0.0-366.0","76127","","","","","","triplet","1284.300000000745","","","","0","stimuli/stim024_inanimate_tools_4.png","stimuli/stim007_animate_bird_3.png","stimuli/stim003_animate_fish_3.png","355"
"html-button-response-mod","367","794886","0.0-367.0","76127","","","","","","triplet","1351.6000000014901","","","","2","stimuli/boats_lowercase.png","stimuli/boats_uppercase.png","stimuli/stim023_inanimate_tools_3.png","356"
"html-button-response-mod","368","796224","0.0-368.0","76127","","","","","","triplet","831.1000000014901","","","","0","stimuli/stim007_animate_bird_3.png","stimuli/tree_lowercase.png","stimuli/tools_uppercase.png","357"
"html-button-response-mod","369","797683","0.0-369.0","76127","","","","","","triplet","954.3999999985099","","","","1","stimuli/stim018_inanimate_tree_2.png","stimuli/boats_lowercase.png","stimuli/stim012_animate_face_4.png","358"
"html-button-response-mod","370","798874","0.0-370.0","76127","","","","","","triplet","685.8999999985099","","","","1","stimuli/fish_uppercase.png","stimuli/stim022_inanimate_tools_2.png","stimuli/bird_lowercase.png","359"
"html-button-response-mod","371","802019","0.0-371.0","76127","","","","","","triplet","2643.199999999255","","","","0","stimuli/stim019_inanimate_tree_3.png","stimuli/stim011_animate_face_3.png","stimuli/stim002_animate_fish_2.png","360"
"html-button-response-mod","372","803544","0.0-372.0","76127","","","","","","triplet","1023.6999999992549","","","","1","stimuli/stim019_inanimate_tree_3.png","stimuli/bird_lowercase.png","stimuli/stim001_animate_fish_1.png","361"
"html-button-response-mod","373","807173","0.0-373.0","76127","","","","","","triplet","3119.199999999255","","","","0","stimuli/stim003_animate_fish_3.png","stimuli/stim024_inanimate_tools_4.png","stimuli/stim023_inanimate_tools_3.png","362"
"html-button-response-mod","374","808419","0.0-374.0","76127","","","","","","triplet","744.7999999970198","","","","1","stimuli/stim005_animate_bird_1.png","stimuli/tools_uppercase.png","stimuli/stim023_inanimate_tools_3.png","363"
"html-button-response-mod","375","810927","0.0-375.0","76127","","","","","","triplet","1996.6000000014901","","","","2","stimuli/stim017_inanimate_tree_1.png","stimuli/stim006_animate_bird_2.png","stimuli/stim012_animate_face_4.png","364"
"html-button-response-mod","376","812981","0.0-376.0","76127","","","","","","triplet","1541.2999999970198","","","","1","stimuli/face_lowercase.png","stimuli/stim011_animate_face_3.png","stimuli/bird_lowercase.png","365"
"html-button-response-mod","377","814652","0.0-377.0","76127","","","","","","triplet","1161","","","","0","stimuli/fish_lowercase.png","stimuli/stim005_animate_bird_1.png","stimuli/stim001_animate_fish_1.png","366"
"html-button-response-mod","378","816069","0.0-378.0","76127","","","","","","triplet","914.1000000014901","","","","0","stimuli/stim015_inanimate_boats_3.png","stimuli/boats_lowercase.png","stimuli/bird_lowercase.png","367"
"html-button-response-mod","379","817548","0.0-379.0","76127","","","","","","triplet","968.5","","","","0","stimuli/stim008_animate_bird_4.png","stimuli/tree_lowercase.png","stimuli/boats_uppercase.png","368"
"html-button-response-mod","380","818696","0.0-380.0","76127","","","","","","triplet","644.5","","","","2","stimuli/stim014_inanimate_boats_2.png","stimuli/stim022_inanimate_tools_2.png","stimuli/tools_uppercase.png","369"
"html-button-response-mod","381","821289","0.0-381.0","76127","","","","","","triplet","2089","","","","1","stimuli/stim013_inanimate_boats_1.png","stimuli/stim021_inanimate_tools_1.png","stimuli/stim004_animate_fish_4.png","370"
"html-button-response-mod","382","824626","0.0-382.0","76127","","","","","","triplet","2822.2000000029802","","","","1","stimuli/stim011_animate_face_3.png","stimuli/stim022_inanimate_tools_2.png","stimuli/stim005_animate_bird_1.png","371"
"html-button-response-mod","383","825967","0.0-383.0","76127","","","","","","triplet","830.6999999992549","","","","1","stimuli/stim021_inanimate_tools_1.png","stimuli/boats_lowercase.png","stimuli/stim011_animate_face_3.png","372"
"html-button-response-mod","384","829042","0.0-384.0","76127","","","","","","triplet","2569.39999999851","","","","2","stimuli/stim005_animate_bird_1.png","stimuli/stim001_animate_fish_1.png","stimuli/stim023_inanimate_tools_3.png","373"
"html-button-response-mod","385","830905","0.0-385.0","76127","","","","","","triplet","1361.699999999255","","","","1","stimuli/stim024_inanimate_tools_4.png","stimuli/stim017_inanimate_tree_1.png","stimuli/stim004_animate_fish_4.png","374"
"html-button-response-mod","386","838807","0.0-386.0","76127","","","","","","triplet","7386.89999999851","","","","0","stimuli/bird_lowercase.png","stimuli/face_lowercase.png","stimuli/tree_lowercase.png","375"
"html-button-response-mod","387","841066","0.0-387.0","76127","","","","","","triplet","1757.300000000745","","","","2","stimuli/stim008_animate_bird_4.png","stimuli/stim001_animate_fish_1.png","stimuli/stim017_inanimate_tree_1.png","376"
"html-button-response-mod","388","842792","0.0-388.0","76127","","","","","","triplet","1225","","","","2","stimuli/stim020_inanimate_tree_4.png","stimuli/stim024_inanimate_tools_4.png","stimuli/fish_lowercase.png","377"
"html-button-response-mod","389","843870","0.0-389.0","76127","","","","","","triplet","563.6000000014901","","","","0","stimuli/fish_lowercase.png","stimuli/stim005_animate_bird_1.png","stimuli/stim016_inanimate_boats_4.png","378"
"html-button-response-mod","390","844933","0.0-390.0","76127","","","","","","triplet","560.6000000014901","","","","1","stimuli/stim012_animate_face_4.png","stimuli/fish_lowercase.png","stimuli/stim015_inanimate_boats_3.png","379"
"html-button-response-mod","391","845971","0.0-391.0","76127","","","","","","triplet","536.6000000014901","","","","2","stimuli/stim003_animate_fish_3.png","stimuli/stim002_animate_fish_2.png","stimuli/bird_lowercase.png","380"
"html-button-response-mod","392","847033","0.0-392.0","76127","","","","","","triplet","558.5","","","","0","stimuli/tree_uppercase.png","stimuli/stim020_inanimate_tree_4.png","stimuli/stim015_inanimate_boats_3.png","381"
"html-button-response-mod","393","848170","0.0-393.0","76127","","","","","","triplet","632.0999999977648","","","","2","stimuli/stim013_inanimate_boats_1.png","stimuli/stim006_animate_bird_2.png","stimuli/tree_lowercase.png","382"
"html-button-response-mod","394","849471","0.0-394.0","76127","","","","","","triplet","794.6000000014901","","","","1","stimuli/tools_lowercase.png","stimuli/stim002_animate_fish_2.png","stimuli/tree_uppercase.png","383"
"html-button-response-mod","395","851722","0.0-395.0","76127","","","","","","triplet","1749.199999999255","","","","1","stimuli/stim010_animate_face_2.png","stimuli/stim024_inanimate_tools_4.png","stimuli/stim004_animate_fish_4.png","384"
"html-button-response-mod","396","853483","0.0-396.0","76127","","","","","","triplet","1255.6000000014901","","","","1","stimuli/stim010_animate_face_2.png","stimuli/stim021_inanimate_tools_1.png","stimuli/stim013_inanimate_boats_1.png","385"
"html-button-response-mod","397","855517","0.0-397.0","76127","","","","","","triplet","1526.300000000745","","","","1","stimuli/boats_uppercase.png","stimuli/tools_lowercase.png","stimuli/fish_uppercase.png","386"
"html-button-response-mod","398","857361","0.0-398.0","76127","","","","","","triplet","1329.9000000022352","","","","1","stimuli/stim019_inanimate_tree_3.png","stimuli/tree_uppercase.png","stimuli/stim005_animate_bird_1.png","387"
"html-button-response-mod","399","858598","0.0-399.0","76127","","","","","","triplet","733.6999999992549","","","","0","stimuli/stim013_inanimate_boats_1.png","stimuli/tree_uppercase.png","stimuli/fish_uppercase.png","388"
"html-button-response-mod","400","861022","0.0-400.0","76127","","","","","","triplet","1912","","","","0","stimuli/stim002_animate_fish_2.png","stimuli/stim010_animate_face_2.png","stimuli/stim015_inanimate_boats_3.png","389"
"html-button-response-mod","401","862535","0.0-401.0","76127","","","","","","triplet","1001.6000000014901","","","","2","stimuli/stim012_animate_face_4.png","stimuli/stim021_inanimate_tools_1.png","stimuli/fish_uppercase.png","390"
"html-button-response-mod","402","863954","0.0-402.0","76127","","","","","","triplet","908.6999999992549","","","","1","stimuli/tree_lowercase.png","stimuli/stim002_animate_fish_2.png","stimuli/tools_uppercase.png","391"
"html-button-response-mod","403","866065","0.0-403.0","76127","","","","","","triplet","1594.800000000745","","","","0","stimuli/stim019_inanimate_tree_3.png","stimuli/stim005_animate_bird_1.png","stimuli/stim001_animate_fish_1.png","392"
"html-button-response-mod","404","867544","0.0-404.0","76127","","","","","","triplet","968.6000000014901","","","","1","stimuli/stim016_inanimate_boats_4.png","stimuli/face_lowercase.png","stimuli/stim009_animate_face_1.png","393"
"html-button-response-mod","405","868603","0.0-405.0","76127","","","","","","triplet","556.1000000014901","","","","0","stimuli/boats_uppercase.png","stimuli/stim020_inanimate_tree_4.png","stimuli/stim006_animate_bird_2.png","394"
"html-button-response-mod","406","872116","0.0-406.0","76127","","","","","","triplet","3011.5","","","","2","stimuli/stim013_inanimate_boats_1.png","stimuli/stim022_inanimate_tools_2.png","stimuli/stim007_animate_bird_3.png","395"
"html-button-response-mod","407","873933","0.0-407.0","76127","","","","","","triplet","1304.4000000022352","","","","2","stimuli/stim001_animate_fish_1.png","stimuli/stim002_animate_fish_2.png","stimuli/stim024_inanimate_tools_4.png","396"
"html-button-response-mod","408","875332","0.0-408.0","76127","","","","","","triplet","895.0999999977648","","","","1","stimuli/tools_uppercase.png","stimuli/stim008_animate_bird_4.png","stimuli/tree_uppercase.png","397"
"html-button-response-mod","409","879494","0.0-409.0","76127","","","","","","triplet","3647.300000000745","","","","0","stimuli/stim018_inanimate_tree_2.png","stimuli/stim005_animate_bird_1.png","stimuli/stim004_animate_fish_4.png","398"
"html-button-response-mod","410","881951","0.0-410.0","76127","","","","","","triplet","1950.7000000029802","","","","0","stimuli/stim022_inanimate_tools_2.png","stimuli/stim004_animate_fish_4.png","stimuli/stim020_inanimate_tree_4.png","399"
"html-button-response","411","883551","0.0-411.0","76127","","","","","","break","1099","<p>BREAK</p><p>Take a break for as long as you need</p><p>Click the button to continue</p>","0","","","","","",""
"survey-text","412","918524","0.0-412.0","76127","","","","","","data_patterns","34969.89999999851","","{""Q0"":""if there was only 1 real image or 1 word I would normally pick that one, otherwise it was based mainly on colour""}","","","","","",""
"survey-text","413","922304","0.0-413.0","76127","","","","","","age_question","3778.900000002235","","{""Age"":""19""}","","","","","",""
"html-button-response","414","925083","0.0-414.0","76127","","","","","","gender_question","2778","How would you like your gender to be recorded?","1","","","","","",""
"html-button-response","415","935771","0.0-415.0","76127","","","","","","debrief","10687.199999999255","<p> Thank you for participating in this experiment! </p><p> We are investigating the dimensions along which you perceive the world </p><p>The images were all sorted according to whether they are animate or not, and </p><p> whether they are text or images. We are comparing this to some neuroimaging data to see </p> how your conscious classification relates to how your brain classifies the objects automatically. </p>","0","939163.8000000007","","","","",""
