"trial_type","trial_index","time_elapsed","internal_node_id","subject","success","timeout","failed_images","failed_audio","failed_video","test_part","rt","stimulus","response","end_time","button_pressed","stim0","stim1","stim2","trialnr"
"pavlovia","0","44","0.0-0.0","73228","","","","","","","","","","","","","","",""
"preload","1","1239","0.0-1.0","73228","true","false","[]","[]","[]","preload","","","","","","","","",""
"html-button-response","2","46504","0.0-2.0","73228","","","","","","","45262.89999997616","<p>Welcome to the experiment. To begin, please read the following and press the button at the bottom of the screen.</p><p></p><p><strong>Project Name: A study on cognitive processes involved in visual perception</p></strong><p></p><p><strong>PARTICIPANT INFORMATION STATEMENT</strong></p><p></p><strong>(1) What is the study about?</strong><br>You are invited to participate in a study that investigates the cognitive processes involved in perceiving and recognizing visual stimuli.If you decide to participate, you will be asked to complete a task in which you will view pictures, letters, numbers, or words presented on a computer screen.<br><strong>(2) Who can participate?</strong><br>Anyone aged 18 years or over with access to a computer (not a phone/tablet)<br><strong>(3) Where is the study located?</strong><br>The study will be conducted in your browser<br><strong>(4) Who is carrying out the study?</strong><br>The study is being conducted by Sophia Shatek from the Computational Cognitive Neuroscience laboratory at the University of Sydney.<br><strong>(5) What does the study involve?</strong><br>In this study, you will be asked to perform tasks where you will see different stimuli appear on the computer screen.You will respond by pressing a key or using a computer mouse.<br><strong>(6) How much time will the study take?</strong><br>The study takes about 30 minutes<br><strong>(7)	Can I withdraw from the study?</strong><br>Being in this study is completely voluntary - you are not under any obligation to consent. You can withdraw at any time without having to give a reason and without penalty.<br><strong>(8) Will anyone else know the results?</strong><br>All aspects of the study, including results, will be strictly confidential and only the researchers will have access to information on participants.The results and data from the study may be submitted for publication or shared with other research labs, but individual participants will not be identifiable.<br><strong>(9) Will the study benefit me?</strong><br>You will be awarded 0.5 credits for your participation.<br><strong>(10) Can I tell other people about the study?</strong><br>Yes, please tell them to contact Dr Thomas Carlson by email at thomas.carlson@sydney.edu.au.<br><strong>(11) What if I require further information about the study or my involvement in it?</strong><br>When you have read this information, the investigator will discuss it with you further and answer any questions you may have.If you would like to know more at any stage, please feel free to contact Dr Thomas Carlson directly by email at thomas.carlson@sydney.edu.au.If you would like to be informed about the outcomes of the study, contact Dr Thomas Carlson directly by email at thomas.carlson@sydney.edu.au.<br><strong>(12) What if I have a complaint or any concerns?</strong><br>Any person with concerns or complaints about the conduct of a research study can contact The Manager,Human Ethics Administration, University of Sydney on +61 2 8627 8176 (Telephone); +61 2 8627 8177 (Facsimile) or ro.humanethics@sydney.edu.au (Email).</p><p></p><strong>By participating in this experiment, you consent to participate in this study and acknowledge that:</strong><br>1. The procedures required for the project and the times involved have been explained to me, and any questions I have about the project have been answered to my satisfaction.<br>2.	I have read the Above Information Statement and have been given the opportunity to discuss the information and my involvement in the project with the researcher/s.<br>3. I understand that allowing my data to be used in research reports is completely voluntary - I am not under any obligation to consent.<br>4. I understand that my involvement is strictly confidential. I understand that any research data gathered from the results of the study may be publishedhowever no information about me will be used in any way that is identifiable.</p><p></p>","0","","","","","",""
"html-button-response","3","50513","0.0-3.0","73228","","","","","","opening_instructions","4007.600000023842","<p>In this experiment, you will see three images appear on the screen.</p><p>You need to click the 'odd one out', or the image </p><p>that LOOKS MOST DIFFERENT to the other two. </p><p>Just go with your intuition, don't spend too long thinking about each one.</p>","0","54530.5","","","","",""
"html-button-response-mod","4","51793","0.0-4.0","73228","","","","","","triplet","1277.8999999761581","","","","2","stimuli/stim001_animate_fish_1.png","stimuli/stim005_animate_bird_1.png","stimuli/stim009_animate_face_1.png","0"
"html-button-response-mod","5","53732","0.0-5.0","73228","","","","","","triplet","1430","","","","1","stimuli/stim021_inanimate_tools_1.png","stimuli/tree_lowercase.png","stimuli/stim014_inanimate_boats_2.png","1"
"html-button-response-mod","6","56078","0.0-6.0","73228","","","","","","triplet","1843.3999999761581","","","","2","stimuli/stim005_animate_bird_1.png","stimuli/stim018_inanimate_tree_2.png","stimuli/tree_uppercase.png","2"
"html-button-response-mod","7","58432","0.0-7.0","73228","","","","","","triplet","1842.8999999761581","","","","2","stimuli/stim012_animate_face_4.png","stimuli/stim023_inanimate_tools_3.png","stimuli/face_uppercase.png","3"
"html-button-response-mod","8","60108","0.0-8.0","73228","","","","","","triplet","1167.3999999761581","","","","1","stimuli/stim008_animate_bird_4.png","stimuli/boats_lowercase.png","stimuli/stim001_animate_fish_1.png","4"
"html-button-response-mod","9","61520","0.0-9.0","73228","","","","","","triplet","908.7999999523163","","","","2","stimuli/stim010_animate_face_2.png","stimuli/stim013_inanimate_boats_1.png","stimuli/tree_lowercase.png","5"
"html-button-response-mod","10","63113","0.0-10.0","73228","","","","","","triplet","1081.800000011921","","","","2","stimuli/fish_lowercase.png","stimuli/tree_uppercase.png","stimuli/stim015_inanimate_boats_3.png","6"
"html-button-response-mod","11","64981","0.0-11.0","73228","","","","","","triplet","1360.8999999761581","","","","0","stimuli/stim016_inanimate_boats_4.png","stimuli/stim003_animate_fish_3.png","stimuli/stim004_animate_fish_4.png","7"
"html-button-response-mod","12","66393","0.0-12.0","73228","","","","","","triplet","908.8000000119209","","","","1","stimuli/stim003_animate_fish_3.png","stimuli/fish_uppercase.png","stimuli/stim016_inanimate_boats_4.png","8"
"html-button-response-mod","13","68135","0.0-13.0","73228","","","","","","triplet","1232.300000011921","","","","1","stimuli/stim013_inanimate_boats_1.png","stimuli/stim019_inanimate_tree_3.png","stimuli/stim016_inanimate_boats_4.png","9"
"html-button-response-mod","14","70135","0.0-14.0","73228","","","","","","triplet","1485.7000000476837","","","","2","stimuli/stim009_animate_face_1.png","stimuli/stim016_inanimate_boats_4.png","stimuli/tree_uppercase.png","10"
"html-button-response-mod","15","71617","0.0-15.0","73228","","","","","","triplet","977.5","","","","1","stimuli/tools_lowercase.png","stimuli/stim005_animate_bird_1.png","stimuli/tree_lowercase.png","11"
"html-button-response-mod","16","72977","0.0-16.0","73228","","","","","","triplet","845.2000000476837","","","","2","stimuli/stim017_inanimate_tree_1.png","stimuli/stim007_animate_bird_3.png","stimuli/boats_lowercase.png","12"
"html-button-response-mod","17","74357","0.0-17.0","73228","","","","","","triplet","874","","","","1","stimuli/stim021_inanimate_tools_1.png","stimuli/boats_uppercase.png","stimuli/stim018_inanimate_tree_2.png","13"
"html-button-response-mod","18","75661","0.0-18.0","73228","","","","","","triplet","799.7000000476837","","","","1","stimuli/stim005_animate_bird_1.png","stimuli/fish_lowercase.png","stimuli/stim022_inanimate_tools_2.png","14"
"html-button-response-mod","19","78225","0.0-19.0","73228","","","","","","triplet","2054.899999976158","","","","0","stimuli/stim009_animate_face_1.png","stimuli/stim024_inanimate_tools_4.png","stimuli/stim004_animate_fish_4.png","15"
"html-button-response-mod","20","79941","0.0-20.0","73228","","","","","","triplet","1214","","","","1","stimuli/tools_uppercase.png","stimuli/stim009_animate_face_1.png","stimuli/tools_lowercase.png","16"
"html-button-response-mod","21","82078","0.0-21.0","73228","","","","","","triplet","1635.1000000238419","","","","2","stimuli/stim023_inanimate_tools_3.png","stimuli/stim024_inanimate_tools_4.png","stimuli/stim003_animate_fish_3.png","17"
"html-button-response-mod","22","84265","0.0-22.0","73228","","","","","","triplet","1685.300000011921","","","","1","stimuli/stim017_inanimate_tree_1.png","stimuli/stim015_inanimate_boats_3.png","stimuli/stim007_animate_bird_3.png","18"
"html-button-response-mod","23","85813","0.0-23.0","73228","","","","","","triplet","1040.2000000476837","","","","1","stimuli/fish_uppercase.png","stimuli/stim005_animate_bird_1.png","stimuli/tools_uppercase.png","19"
"html-button-response-mod","24","87889","0.0-24.0","73228","","","","","","triplet","1566","","","","1","stimuli/stim018_inanimate_tree_2.png","stimuli/tools_uppercase.png","stimuli/stim014_inanimate_boats_2.png","20"
"html-button-response-mod","25","89344","0.0-25.0","73228","","","","","","triplet","953.3000000119209","","","","0","stimuli/tree_uppercase.png","stimuli/stim007_animate_bird_3.png","stimuli/stim006_animate_bird_2.png","21"
"html-button-response-mod","26","90427","0.0-26.0","73228","","","","","","triplet","571.5","","","","1","stimuli/stim012_animate_face_4.png","stimuli/fish_uppercase.png","stimuli/stim017_inanimate_tree_1.png","22"
"html-button-response-mod","27","91485","0.0-27.0","73228","","","","","","triplet","554.8000000119209","","","","0","stimuli/tree_lowercase.png","stimuli/stim011_animate_face_3.png","stimuli/stim016_inanimate_boats_4.png","23"
"html-button-response-mod","28","92583","0.0-28.0","73228","","","","","","triplet","595.5999999642372","","","","2","stimuli/stim008_animate_bird_4.png","stimuli/stim005_animate_bird_1.png","stimuli/tree_lowercase.png","24"
"html-button-response-mod","29","94035","0.0-29.0","73228","","","","","","triplet","944.9000000357628","","","","0","stimuli/stim006_animate_bird_2.png","stimuli/face_uppercase.png","stimuli/fish_lowercase.png","25"
"html-button-response-mod","30","95370","0.0-30.0","73228","","","","","","triplet","828.8000000119209","","","","0","stimuli/stim007_animate_bird_3.png","stimuli/tools_lowercase.png","stimuli/boats_lowercase.png","26"
"html-button-response-mod","31","96752","0.0-31.0","73228","","","","","","triplet","870.9000000357628","","","","2","stimuli/stim015_inanimate_boats_3.png","stimuli/stim007_animate_bird_3.png","stimuli/bird_lowercase.png","27"
"html-button-response-mod","32","104458","0.0-32.0","73228","","","","","","triplet","7204.100000023842","","","","0","stimuli/stim022_inanimate_tools_2.png","stimuli/stim018_inanimate_tree_2.png","stimuli/stim011_animate_face_3.png","28"
"html-button-response-mod","33","106439","0.0-33.0","73228","","","","","","triplet","1473.9000000357628","","","","2","stimuli/face_lowercase.png","stimuli/fish_lowercase.png","stimuli/stim007_animate_bird_3.png","29"
"html-button-response-mod","34","114012","0.0-34.0","73228","","","","","","triplet","7069.899999976158","","","","2","stimuli/stim022_inanimate_tools_2.png","stimuli/stim007_animate_bird_3.png","stimuli/stim014_inanimate_boats_2.png","30"
"html-button-response-mod","35","115477","0.0-35.0","73228","","","","","","triplet","957.3000000119209","","","","0","stimuli/tools_lowercase.png","stimuli/stim018_inanimate_tree_2.png","stimuli/stim016_inanimate_boats_4.png","31"
"html-button-response-mod","36","119374","0.0-36.0","73228","","","","","","triplet","3395","","","","2","stimuli/stim019_inanimate_tree_3.png","stimuli/stim024_inanimate_tools_4.png","stimuli/stim002_animate_fish_2.png","32"
"html-button-response-mod","37","121828","0.0-37.0","73228","","","","","","triplet","1951","","","","2","stimuli/stim016_inanimate_boats_4.png","stimuli/stim002_animate_fish_2.png","stimuli/stim019_inanimate_tree_3.png","33"
"html-button-response-mod","38","123504","0.0-38.0","73228","","","","","","triplet","1170.800000011921","","","","0","stimuli/stim020_inanimate_tree_4.png","stimuli/stim008_animate_bird_4.png","stimuli/stim003_animate_fish_3.png","34"
"html-button-response-mod","39","124942","0.0-39.0","73228","","","","","","triplet","923.3000000119209","","","","0","stimuli/tree_uppercase.png","stimuli/stim023_inanimate_tools_3.png","stimuli/stim016_inanimate_boats_4.png","35"
"html-button-response-mod","40","126300","0.0-40.0","73228","","","","","","triplet","855.5","","","","0","stimuli/face_uppercase.png","stimuli/stim023_inanimate_tools_3.png","stimuli/stim024_inanimate_tools_4.png","36"
"html-button-response-mod","41","127680","0.0-41.0","73228","","","","","","triplet","867.5","","","","2","stimuli/tools_lowercase.png","stimuli/fish_lowercase.png","stimuli/stim007_animate_bird_3.png","37"
"html-button-response-mod","42","129587","0.0-42.0","73228","","","","","","triplet","1402.300000011921","","","","1","stimuli/stim024_inanimate_tools_4.png","stimuli/stim015_inanimate_boats_3.png","stimuli/stim023_inanimate_tools_3.png","38"
"html-button-response-mod","43","130951","0.0-43.0","73228","","","","","","triplet","857","","","","2","stimuli/boats_lowercase.png","stimuli/tools_lowercase.png","stimuli/stim021_inanimate_tools_1.png","39"
"html-button-response-mod","44","133205","0.0-44.0","73228","","","","","","triplet","1738.5999999642372","","","","2","stimuli/bird_uppercase.png","stimuli/tree_uppercase.png","stimuli/stim016_inanimate_boats_4.png","40"
"html-button-response-mod","45","134476","0.0-45.0","73228","","","","","","triplet","754.1999999880791","","","","2","stimuli/stim008_animate_bird_4.png","stimuli/stim009_animate_face_1.png","stimuli/bird_lowercase.png","41"
"html-button-response-mod","46","137553","0.0-46.0","73228","","","","","","triplet","2574.800000011921","","","","0","stimuli/stim024_inanimate_tools_4.png","stimuli/stim018_inanimate_tree_2.png","stimuli/stim010_animate_face_2.png","42"
"html-button-response-mod","47","139573","0.0-47.0","73228","","","","","","triplet","1508.199999988079","","","","1","stimuli/stim018_inanimate_tree_2.png","stimuli/tree_lowercase.png","stimuli/stim007_animate_bird_3.png","43"
"html-button-response-mod","48","141694","0.0-48.0","73228","","","","","","triplet","1613.8999999761581","","","","1","stimuli/stim024_inanimate_tools_4.png","stimuli/boats_uppercase.png","stimuli/stim003_animate_fish_3.png","44"
"html-button-response-mod","49","153417","0.0-49.0","73228","","","","","","triplet","11220","","","","0","stimuli/stim017_inanimate_tree_1.png","stimuli/stim001_animate_fish_1.png","stimuli/stim016_inanimate_boats_4.png","45"
"html-button-response-mod","50","154801","0.0-50.0","73228","","","","","","triplet","874.3999999761581","","","","2","stimuli/stim022_inanimate_tools_2.png","stimuli/stim019_inanimate_tree_3.png","stimuli/tools_lowercase.png","46"
"html-button-response-mod","51","155983","0.0-51.0","73228","","","","","","triplet","680","","","","1","stimuli/stim011_animate_face_3.png","stimuli/face_uppercase.png","stimuli/stim024_inanimate_tools_4.png","47"
"html-button-response-mod","52","157451","0.0-52.0","73228","","","","","","triplet","961.1999999880791","","","","1","stimuli/stim011_animate_face_3.png","stimuli/tree_uppercase.png","stimuli/stim002_animate_fish_2.png","48"
"html-button-response-mod","53","159117","0.0-53.0","73228","","","","","","triplet","1163.3999999761581","","","","1","stimuli/stim002_animate_fish_2.png","stimuli/stim020_inanimate_tree_4.png","stimuli/stim023_inanimate_tools_3.png","49"
"html-button-response","54","161175","0.0-54.0","73228","","","","","","break","1547.199999988079","<p>BREAK</p><p>Take a break for as long as you need</p><p>Click the button to continue</p>","0","","","","","",""
"html-button-response-mod","55","161939","0.0-55.0","73228","","","","","","triplet","763.3999999761581","","","","0","stimuli/stim005_animate_bird_1.png","stimuli/fish_lowercase.png","stimuli/boats_lowercase.png","50"
"html-button-response-mod","56","163564","0.0-56.0","73228","","","","","","triplet","1113","","","","2","stimuli/stim003_animate_fish_3.png","stimuli/stim002_animate_fish_2.png","stimuli/stim021_inanimate_tools_1.png","51"
"html-button-response-mod","57","164777","0.0-57.0","73228","","","","","","triplet","705.4000000357628","","","","0","stimuli/bird_lowercase.png","stimuli/stim023_inanimate_tools_3.png","stimuli/stim021_inanimate_tools_1.png","52"
"html-button-response-mod","58","166086","0.0-58.0","73228","","","","","","triplet","805.3000000119209","","","","1","stimuli/stim018_inanimate_tree_2.png","stimuli/face_lowercase.png","stimuli/stim010_animate_face_2.png","53"
"html-button-response-mod","59","167190","0.0-59.0","73228","","","","","","triplet","595.3000000119209","","","","2","stimuli/stim023_inanimate_tools_3.png","stimuli/stim004_animate_fish_4.png","stimuli/face_lowercase.png","54"
"html-button-response-mod","60","169008","0.0-60.0","73228","","","","","","triplet","1308.800000011921","","","","1","stimuli/stim013_inanimate_boats_1.png","stimuli/stim023_inanimate_tools_3.png","stimuli/stim003_animate_fish_3.png","55"
"html-button-response-mod","61","170796","0.0-61.0","73228","","","","","","triplet","1280.5","","","","1","stimuli/face_lowercase.png","stimuli/stim015_inanimate_boats_3.png","stimuli/bird_uppercase.png","56"
"html-button-response-mod","62","173171","0.0-62.0","73228","","","","","","triplet","1867.6000000238419","","","","0","stimuli/stim019_inanimate_tree_3.png","stimuli/stim003_animate_fish_3.png","stimuli/stim016_inanimate_boats_4.png","57"
"html-button-response-mod","63","174457","0.0-63.0","73228","","","","","","triplet","776.3999999761581","","","","2","stimuli/tree_uppercase.png","stimuli/boats_lowercase.png","stimuli/stim022_inanimate_tools_2.png","58"
"html-button-response-mod","64","176814","0.0-64.0","73228","","","","","","triplet","1854.5999999642372","","","","2","stimuli/stim016_inanimate_boats_4.png","stimuli/stim017_inanimate_tree_1.png","stimuli/face_uppercase.png","59"
"html-button-response-mod","65","178054","0.0-65.0","73228","","","","","","triplet","737","","","","0","stimuli/stim021_inanimate_tools_1.png","stimuli/tree_lowercase.png","stimuli/face_uppercase.png","60"
"html-button-response-mod","66","179538","0.0-66.0","73228","","","","","","triplet","981.5","","","","0","stimuli/stim004_animate_fish_4.png","stimuli/stim016_inanimate_boats_4.png","stimuli/stim013_inanimate_boats_1.png","61"
"html-button-response-mod","67","181577","0.0-67.0","73228","","","","","","triplet","1531.2000000476837","","","","0","stimuli/stim012_animate_face_4.png","stimuli/stim024_inanimate_tools_4.png","stimuli/stim001_animate_fish_1.png","62"
"html-button-response-mod","68","182792","0.0-68.0","73228","","","","","","triplet","713.5999999642372","","","","2","stimuli/stim015_inanimate_boats_3.png","stimuli/stim022_inanimate_tools_2.png","stimuli/boats_lowercase.png","63"
"html-button-response-mod","69","183983","0.0-69.0","73228","","","","","","triplet","688.6999999880791","","","","1","stimuli/tools_lowercase.png","stimuli/stim014_inanimate_boats_2.png","stimuli/bird_uppercase.png","64"
"html-button-response-mod","70","185539","0.0-70.0","73228","","","","","","triplet","1049.800000011921","","","","0","stimuli/stim004_animate_fish_4.png","stimuli/stim011_animate_face_3.png","stimuli/stim012_animate_face_4.png","65"
"html-button-response-mod","71","186714","0.0-71.0","73228","","","","","","triplet","664","","","","2","stimuli/stim004_animate_fish_4.png","stimuli/stim011_animate_face_3.png","stimuli/face_lowercase.png","66"
"html-button-response-mod","72","188840","0.0-72.0","73228","","","","","","triplet","1620.800000011921","","","","2","stimuli/stim003_animate_fish_3.png","stimuli/stim019_inanimate_tree_3.png","stimuli/stim021_inanimate_tools_1.png","67"
"html-button-response-mod","73","190264","0.0-73.0","73228","","","","","","triplet","921.6999999880791","","","","2","stimuli/stim017_inanimate_tree_1.png","stimuli/stim019_inanimate_tree_3.png","stimuli/stim008_animate_bird_4.png","68"
"html-button-response-mod","74","191501","0.0-74.0","73228","","","","","","triplet","725.3000000119209","","","","1","stimuli/fish_lowercase.png","stimuli/stim015_inanimate_boats_3.png","stimuli/bird_lowercase.png","69"
"html-button-response-mod","75","192698","0.0-75.0","73228","","","","","","triplet","689.5","","","","0","stimuli/face_uppercase.png","stimuli/stim005_animate_bird_1.png","stimuli/stim020_inanimate_tree_4.png","70"
"html-button-response-mod","76","193844","0.0-76.0","73228","","","","","","triplet","636.1999999880791","","","","2","stimuli/stim011_animate_face_3.png","stimuli/stim008_animate_bird_4.png","stimuli/face_lowercase.png","71"
"html-button-response-mod","77","194979","0.0-77.0","73228","","","","","","triplet","619","","","","1","stimuli/stim020_inanimate_tree_4.png","stimuli/face_lowercase.png","stimuli/stim004_animate_fish_4.png","72"
"html-button-response-mod","78","197093","0.0-78.0","73228","","","","","","triplet","1598.0999999642372","","","","1","stimuli/stim010_animate_face_2.png","stimuli/stim022_inanimate_tools_2.png","stimuli/stim020_inanimate_tree_4.png","73"
"html-button-response-mod","79","200538","0.0-79.0","73228","","","","","","triplet","2929","","","","0","stimuli/stim020_inanimate_tree_4.png","stimuli/stim014_inanimate_boats_2.png","stimuli/stim008_animate_bird_4.png","74"
"html-button-response-mod","80","201753","0.0-80.0","73228","","","","","","triplet","704.3000000119209","","","","1","stimuli/stim010_animate_face_2.png","stimuli/tools_lowercase.png","stimuli/stim018_inanimate_tree_2.png","75"
"html-button-response-mod","81","202934","0.0-81.0","73228","","","","","","triplet","668.8999999761581","","","","1","stimuli/stim008_animate_bird_4.png","stimuli/boats_lowercase.png","stimuli/stim005_animate_bird_1.png","76"
"html-button-response-mod","82","204065","0.0-82.0","73228","","","","","","triplet","617.0999999642372","","","","0","stimuli/tree_uppercase.png","stimuli/stim011_animate_face_3.png","stimuli/stim004_animate_fish_4.png","77"
"html-button-response-mod","83","205205","0.0-83.0","73228","","","","","","triplet","633.7999999523163","","","","0","stimuli/boats_uppercase.png","stimuli/stim021_inanimate_tools_1.png","stimuli/stim006_animate_bird_2.png","78"
"html-button-response-mod","84","206498","0.0-84.0","73228","","","","","","triplet","790.7999999523163","","","","1","stimuli/face_uppercase.png","stimuli/stim009_animate_face_1.png","stimuli/fish_lowercase.png","79"
"html-button-response-mod","85","208395","0.0-85.0","73228","","","","","","triplet","1395.3999999761581","","","","1","stimuli/stim010_animate_face_2.png","stimuli/stim021_inanimate_tools_1.png","stimuli/stim018_inanimate_tree_2.png","80"
"html-button-response-mod","86","210460","0.0-86.0","73228","","","","","","triplet","1562.699999988079","","","","2","stimuli/stim022_inanimate_tools_2.png","stimuli/stim003_animate_fish_3.png","stimuli/boats_lowercase.png","81"
"html-button-response-mod","87","211563","0.0-87.0","73228","","","","","","triplet","601.6999999880791","","","","0","stimuli/tools_lowercase.png","stimuli/stim007_animate_bird_3.png","stimuli/stim014_inanimate_boats_2.png","82"
"html-button-response-mod","88","212631","0.0-88.0","73228","","","","","","triplet","553.2999999523163","","","","0","stimuli/fish_lowercase.png","stimuli/stim020_inanimate_tree_4.png","stimuli/stim008_animate_bird_4.png","83"
"html-button-response-mod","89","213683","0.0-89.0","73228","","","","","","triplet","549.6999999880791","","","","0","stimuli/boats_lowercase.png","stimuli/stim010_animate_face_2.png","stimuli/stim008_animate_bird_4.png","84"
"html-button-response-mod","90","215286","0.0-90.0","73228","","","","","","triplet","1086.6000000238419","","","","2","stimuli/stim011_animate_face_3.png","stimuli/stim010_animate_face_2.png","stimuli/stim017_inanimate_tree_1.png","85"
"html-button-response-mod","91","216557","0.0-91.0","73228","","","","","","triplet","768","","","","0","stimuli/face_uppercase.png","stimuli/stim024_inanimate_tools_4.png","stimuli/stim020_inanimate_tree_4.png","86"
"html-button-response-mod","92","217568","0.0-92.0","73228","","","","","","triplet","502.7000000476837","","","","2","stimuli/stim006_animate_bird_2.png","stimuli/stim024_inanimate_tools_4.png","stimuli/bird_uppercase.png","87"
"html-button-response-mod","93","219181","0.0-93.0","73228","","","","","","triplet","1111.6000000238419","","","","0","stimuli/tools_uppercase.png","stimuli/stim014_inanimate_boats_2.png","stimuli/stim015_inanimate_boats_3.png","88"
"html-button-response-mod","94","220440","0.0-94.0","73228","","","","","","triplet","741","","","","2","stimuli/face_uppercase.png","stimuli/boats_lowercase.png","stimuli/stim016_inanimate_boats_4.png","89"
"html-button-response-mod","95","221554","0.0-95.0","73228","","","","","","triplet","609.8000000119209","","","","1","stimuli/stim011_animate_face_3.png","stimuli/boats_lowercase.png","stimuli/stim020_inanimate_tree_4.png","90"
"html-button-response-mod","96","223276","0.0-96.0","73228","","","","","","triplet","1219.800000011921","","","","1","stimuli/stim016_inanimate_boats_4.png","stimuli/fish_lowercase.png","stimuli/stim021_inanimate_tools_1.png","91"
"html-button-response-mod","97","224570","0.0-97.0","73228","","","","","","triplet","776.5","","","","2","stimuli/boats_lowercase.png","stimuli/face_uppercase.png","stimuli/stim007_animate_bird_3.png","92"
"html-button-response-mod","98","231758","0.0-98.0","73228","","","","","","triplet","6672","","","","2","stimuli/fish_lowercase.png","stimuli/bird_lowercase.png","stimuli/tree_lowercase.png","93"
"html-button-response-mod","99","233408","0.0-99.0","73228","","","","","","triplet","1141.6000000238419","","","","1","stimuli/stim013_inanimate_boats_1.png","stimuli/boats_lowercase.png","stimuli/stim016_inanimate_boats_4.png","94"
"html-button-response-mod","100","234826","0.0-100.0","73228","","","","","","triplet","911.0999999642372","","","","1","stimuli/tree_uppercase.png","stimuli/stim024_inanimate_tools_4.png","stimuli/fish_uppercase.png","95"
"html-button-response-mod","101","236081","0.0-101.0","73228","","","","","","triplet","738.6999999880791","","","","2","stimuli/fish_lowercase.png","stimuli/tree_lowercase.png","stimuli/stim022_inanimate_tools_2.png","96"
"html-button-response-mod","102","237263","0.0-102.0","73228","","","","","","triplet","664.6999999880791","","","","0","stimuli/stim017_inanimate_tree_1.png","stimuli/tree_lowercase.png","stimuli/bird_lowercase.png","97"
"html-button-response-mod","103","238959","0.0-103.0","73228","","","","","","triplet","1194.3999999761581","","","","2","stimuli/stim006_animate_bird_2.png","stimuli/stim007_animate_bird_3.png","stimuli/stim015_inanimate_boats_3.png","98"
"html-button-response-mod","104","240127","0.0-104.0","73228","","","","","","triplet","655.5999999642372","","","","2","stimuli/stim013_inanimate_boats_1.png","stimuli/stim024_inanimate_tools_4.png","stimuli/fish_lowercase.png","99"
"html-button-response","105","241400","0.0-105.0","73228","","","","","","break","763.1000000238419","<p>BREAK</p><p>Take a break for as long as you need</p><p>Click the button to continue</p>","0","","","","","",""
"html-button-response-mod","106","242164","0.0-106.0","73228","","","","","","triplet","762","","","","1","stimuli/stim005_animate_bird_1.png","stimuli/tools_uppercase.png","stimuli/stim006_animate_bird_2.png","100"
"html-button-response-mod","107","243566","0.0-107.0","73228","","","","","","triplet","899.4000000357628","","","","1","stimuli/stim020_inanimate_tree_4.png","stimuli/stim022_inanimate_tools_2.png","stimuli/stim018_inanimate_tree_2.png","101"
"html-button-response-mod","108","247892","0.0-108.0","73228","","","","","","triplet","3822.800000011921","","","","0","stimuli/stim003_animate_fish_3.png","stimuli/stim014_inanimate_boats_2.png","stimuli/stim023_inanimate_tools_3.png","102"
"html-button-response-mod","109","249126","0.0-109.0","73228","","","","","","triplet","731.6999999880791","","","","0","stimuli/bird_lowercase.png","stimuli/stim024_inanimate_tools_4.png","stimuli/stim014_inanimate_boats_2.png","103"
"html-button-response-mod","110","250222","0.0-110.0","73228","","","","","","triplet","590.6000000238419","","","","0","stimuli/tools_lowercase.png","stimuli/stim010_animate_face_2.png","stimuli/stim002_animate_fish_2.png","104"
"html-button-response-mod","111","252535","0.0-111.0","73228","","","","","","triplet","1810.699999988079","","","","2","stimuli/stim005_animate_bird_1.png","stimuli/stim006_animate_bird_2.png","stimuli/stim003_animate_fish_3.png","105"
"html-button-response-mod","112","254055","0.0-112.0","73228","","","","","","triplet","1017.2999999523163","","","","2","stimuli/face_lowercase.png","stimuli/boats_uppercase.png","stimuli/stim007_animate_bird_3.png","106"
"html-button-response-mod","113","255187","0.0-113.0","73228","","","","","","triplet","615.6999999880791","","","","1","stimuli/boats_uppercase.png","stimuli/stim005_animate_bird_1.png","stimuli/tree_uppercase.png","107"
"html-button-response-mod","114","256857","0.0-114.0","73228","","","","","","triplet","1162.0999999642372","","","","2","stimuli/tools_lowercase.png","stimuli/tree_uppercase.png","stimuli/stim015_inanimate_boats_3.png","108"
"html-button-response-mod","115","258221","0.0-115.0","73228","","","","","","triplet","861.3999999761581","","","","1","stimuli/stim020_inanimate_tree_4.png","stimuli/stim009_animate_face_1.png","stimuli/stim019_inanimate_tree_3.png","109"
"html-button-response-mod","116","259316","0.0-116.0","73228","","","","","","triplet","584.4000000357628","","","","0","stimuli/boats_lowercase.png","stimuli/stim020_inanimate_tree_4.png","stimuli/stim014_inanimate_boats_2.png","110"
"html-button-response-mod","117","260378","0.0-117.0","73228","","","","","","triplet","548.5","","","","0","stimuli/bird_lowercase.png","stimuli/stim020_inanimate_tree_4.png","stimuli/stim023_inanimate_tools_3.png","111"
"html-button-response-mod","118","262491","0.0-118.0","73228","","","","","","triplet","1599.2999999523163","","","","2","stimuli/stim004_animate_fish_4.png","stimuli/stim017_inanimate_tree_1.png","stimuli/boats_lowercase.png","112"
"html-button-response-mod","119","263686","0.0-119.0","73228","","","","","","triplet","687.6000000238419","","","","1","stimuli/face_uppercase.png","stimuli/stim002_animate_fish_2.png","stimuli/boats_lowercase.png","113"
"html-button-response-mod","120","265131","0.0-120.0","73228","","","","","","triplet","942.6999999880791","","","","0","stimuli/stim021_inanimate_tools_1.png","stimuli/stim018_inanimate_tree_2.png","stimuli/stim019_inanimate_tree_3.png","114"
"html-button-response-mod","121","266228","0.0-121.0","73228","","","","","","triplet","594.8000000119209","","","","0","stimuli/tree_uppercase.png","stimuli/stim023_inanimate_tools_3.png","stimuli/stim009_animate_face_1.png","115"
"html-button-response-mod","122","276127","0.0-122.0","73228","","","","","","triplet","9389.200000047684","","","","1","stimuli/stim005_animate_bird_1.png","stimuli/stim016_inanimate_boats_4.png","stimuli/stim003_animate_fish_3.png","116"
"html-button-response-mod","123","279539","0.0-123.0","73228","","","","","","triplet","2900.199999988079","","","","2","stimuli/stim015_inanimate_boats_3.png","stimuli/stim003_animate_fish_3.png","stimuli/stim011_animate_face_3.png","117"
"html-button-response-mod","124","283452","0.0-124.0","73228","","","","","","triplet","3397.699999988079","","","","1","stimuli/fish_uppercase.png","stimuli/stim019_inanimate_tree_3.png","stimuli/boats_uppercase.png","118"
"html-button-response-mod","125","284494","0.0-125.0","73228","","","","","","triplet","539.5","","","","2","stimuli/stim019_inanimate_tree_3.png","stimuli/stim008_animate_bird_4.png","stimuli/fish_uppercase.png","119"
"html-button-response-mod","126","285617","0.0-126.0","73228","","","","","","triplet","606.6000000238419","","","","0","stimuli/tools_lowercase.png","stimuli/stim018_inanimate_tree_2.png","stimuli/stim021_inanimate_tools_1.png","120"
"html-button-response-mod","127","287168","0.0-127.0","73228","","","","","","triplet","1037.5","","","","0","stimuli/stim003_animate_fish_3.png","stimuli/boats_uppercase.png","stimuli/fish_lowercase.png","121"
"html-button-response-mod","128","288748","0.0-128.0","73228","","","","","","triplet","1077.6000000238419","","","","1","stimuli/stim007_animate_bird_3.png","stimuli/fish_lowercase.png","stimuli/stim020_inanimate_tree_4.png","122"
"html-button-response-mod","129","289956","0.0-129.0","73228","","","","","","triplet","699.0999999642372","","","","0","stimuli/stim007_animate_bird_3.png","stimuli/boats_lowercase.png","stimuli/fish_uppercase.png","123"
"html-button-response-mod","130","291163","0.0-130.0","73228","","","","","","triplet","695.0999999642372","","","","1","stimuli/tools_uppercase.png","stimuli/stim022_inanimate_tools_2.png","stimuli/bird_uppercase.png","124"
"html-button-response-mod","131","293410","0.0-131.0","73228","","","","","","triplet","1729.300000011921","","","","2","stimuli/stim010_animate_face_2.png","stimuli/stim003_animate_fish_3.png","stimuli/tree_uppercase.png","125"
"html-button-response-mod","132","299694","0.0-132.0","73228","","","","","","triplet","5768.600000023842","","","","0","stimuli/stim021_inanimate_tools_1.png","stimuli/stim004_animate_fish_4.png","stimuli/stim017_inanimate_tree_1.png","126"
"html-button-response-mod","133","300951","0.0-133.0","73228","","","","","","triplet","753.5","","","","1","stimuli/boats_lowercase.png","stimuli/stim022_inanimate_tools_2.png","stimuli/fish_uppercase.png","127"
"html-button-response-mod","134","302510","0.0-134.0","73228","","","","","","triplet","1056.5999999642372","","","","0","stimuli/stim015_inanimate_boats_3.png","stimuli/stim024_inanimate_tools_4.png","stimuli/stim021_inanimate_tools_1.png","128"
"html-button-response-mod","135","304176","0.0-135.0","73228","","","","","","triplet","1164.4000000357628","","","","0","stimuli/bird_lowercase.png","stimuli/stim013_inanimate_boats_1.png","stimuli/stim024_inanimate_tools_4.png","129"
"html-button-response-mod","136","305356","0.0-136.0","73228","","","","","","triplet","677.8999999761581","","","","2","stimuli/bird_lowercase.png","stimuli/tree_uppercase.png","stimuli/stim024_inanimate_tools_4.png","130"
"html-button-response-mod","137","306656","0.0-137.0","73228","","","","","","triplet","786.0999999642372","","","","2","stimuli/stim020_inanimate_tree_4.png","stimuli/stim007_animate_bird_3.png","stimuli/boats_lowercase.png","131"
"html-button-response-mod","138","307767","0.0-138.0","73228","","","","","","triplet","607","","","","0","stimuli/tree_lowercase.png","stimuli/stim015_inanimate_boats_3.png","stimuli/stim021_inanimate_tools_1.png","132"
"html-button-response-mod","139","309736","0.0-139.0","73228","","","","","","triplet","1466.1000000238419","","","","2","stimuli/stim014_inanimate_boats_2.png","stimuli/stim016_inanimate_boats_4.png","stimuli/stim023_inanimate_tools_3.png","133"
"html-button-response-mod","140","312594","0.0-140.0","73228","","","","","","triplet","2354.800000011921","","","","0","stimuli/stim012_animate_face_4.png","stimuli/stim006_animate_bird_2.png","stimuli/stim019_inanimate_tree_3.png","134"
"html-button-response-mod","141","315439","0.0-141.0","73228","","","","","","triplet","2333.2999999523163","","","","2","stimuli/stim013_inanimate_boats_1.png","stimuli/stim016_inanimate_boats_4.png","stimuli/stim021_inanimate_tools_1.png","135"
"html-button-response-mod","142","316686","0.0-142.0","73228","","","","","","triplet","743.6999999880791","","","","0","stimuli/stim010_animate_face_2.png","stimuli/bird_uppercase.png","stimuli/bird_lowercase.png","136"
"html-button-response-mod","143","317894","0.0-143.0","73228","","","","","","triplet","705.6999999880791","","","","0","stimuli/fish_uppercase.png","stimuli/stim004_animate_fish_4.png","stimuli/stim009_animate_face_1.png","137"
"html-button-response-mod","144","318909","0.0-144.0","73228","","","","","","triplet","513.1999999880791","","","","2","stimuli/stim023_inanimate_tools_3.png","stimuli/stim006_animate_bird_2.png","stimuli/fish_lowercase.png","138"
"html-button-response-mod","145","320091","0.0-145.0","73228","","","","","","triplet","676.1000000238419","","","","0","stimuli/fish_uppercase.png","stimuli/stim005_animate_bird_1.png","stimuli/stim024_inanimate_tools_4.png","139"
"html-button-response-mod","146","321671","0.0-146.0","73228","","","","","","triplet","1072.2000000476837","","","","2","stimuli/stim022_inanimate_tools_2.png","stimuli/stim006_animate_bird_2.png","stimuli/boats_lowercase.png","140"
"html-button-response-mod","147","322968","0.0-147.0","73228","","","","","","triplet","795.4000000357628","","","","0","stimuli/stim015_inanimate_boats_3.png","stimuli/tree_lowercase.png","stimuli/tools_uppercase.png","141"
"html-button-response-mod","148","327021","0.0-148.0","73228","","","","","","triplet","3550.800000011921","","","","0","stimuli/stim022_inanimate_tools_2.png","stimuli/stim005_animate_bird_1.png","stimuli/stim017_inanimate_tree_1.png","142"
"html-button-response-mod","149","330313","0.0-149.0","73228","","","","","","triplet","2790","","","","2","stimuli/tools_uppercase.png","stimuli/tools_lowercase.png","stimuli/stim001_animate_fish_1.png","143"
"html-button-response-mod","150","332338","0.0-150.0","73228","","","","","","triplet","1520.3999999761581","","","","1","stimuli/stim001_animate_fish_1.png","stimuli/tools_lowercase.png","stimuli/stim010_animate_face_2.png","144"
"html-button-response-mod","151","333731","0.0-151.0","73228","","","","","","triplet","890.8000000119209","","","","0","stimuli/stim013_inanimate_boats_1.png","stimuli/tree_lowercase.png","stimuli/tools_lowercase.png","145"
"html-button-response-mod","152","335552","0.0-152.0","73228","","","","","","triplet","1317.1000000238419","","","","2","stimuli/stim006_animate_bird_2.png","stimuli/stim018_inanimate_tree_2.png","stimuli/stim014_inanimate_boats_2.png","146"
"html-button-response-mod","153","339687","0.0-153.0","73228","","","","","","triplet","3633.399999976158","","","","0","stimuli/face_lowercase.png","stimuli/stim018_inanimate_tree_2.png","stimuli/stim002_animate_fish_2.png","147"
"html-button-response-mod","154","340771","0.0-154.0","73228","","","","","","triplet","569.3999999761581","","","","0","stimuli/tree_uppercase.png","stimuli/stim012_animate_face_4.png","stimuli/stim021_inanimate_tools_1.png","148"
"html-button-response-mod","155","342009","0.0-155.0","73228","","","","","","triplet","736.0999999642372","","","","0","stimuli/stim005_animate_bird_1.png","stimuli/face_lowercase.png","stimuli/tools_lowercase.png","149"
"html-button-response","156","343413","0.0-156.0","73228","","","","","","break","895.3000000119209","<p>BREAK</p><p>Take a break for as long as you need</p><p>Click the button to continue</p>","0","","","","","",""
"html-button-response-mod","157","344436","0.0-157.0","73228","","","","","","triplet","1022.4000000357628","","","","2","stimuli/stim024_inanimate_tools_4.png","stimuli/stim022_inanimate_tools_2.png","stimuli/stim001_animate_fish_1.png","150"
"html-button-response-mod","158","352531","0.0-158.0","73228","","","","","","triplet","7588.800000011921","","","","1","stimuli/stim007_animate_bird_3.png","stimuli/stim013_inanimate_boats_1.png","stimuli/stim009_animate_face_1.png","151"
"html-button-response-mod","159","353854","0.0-159.0","73228","","","","","","triplet","821.2999999523163","","","","2","stimuli/bird_uppercase.png","stimuli/tree_lowercase.png","stimuli/stim004_animate_fish_4.png","152"
"html-button-response-mod","160","355272","0.0-160.0","73228","","","","","","triplet","916.5999999642372","","","","1","stimuli/stim023_inanimate_tools_3.png","stimuli/stim019_inanimate_tree_3.png","stimuli/stim016_inanimate_boats_4.png","153"
"html-button-response-mod","161","357179","0.0-161.0","73228","","","","","","triplet","1404.7999999523163","","","","0","stimuli/boats_lowercase.png","stimuli/stim014_inanimate_boats_2.png","stimuli/stim018_inanimate_tree_2.png","154"
"html-button-response-mod","162","362344","0.0-162.0","73228","","","","","","triplet","4663","","","","2","stimuli/stim001_animate_fish_1.png","stimuli/stim012_animate_face_4.png","stimuli/stim022_inanimate_tools_2.png","155"
"html-button-response-mod","163","363610","0.0-163.0","73228","","","","","","triplet","763.8000000119209","","","","1","stimuli/tree_lowercase.png","stimuli/stim009_animate_face_1.png","stimuli/boats_uppercase.png","156"
"html-button-response-mod","164","364895","0.0-164.0","73228","","","","","","triplet","779.2000000476837","","","","0","stimuli/stim002_animate_fish_2.png","stimuli/boats_uppercase.png","stimuli/fish_lowercase.png","157"
"html-button-response-mod","165","366960","0.0-165.0","73228","","","","","","triplet","1551.199999988079","","","","2","stimuli/stim003_animate_fish_3.png","stimuli/stim001_animate_fish_1.png","stimuli/stim011_animate_face_3.png","158"
"html-button-response-mod","166","372976","0.0-166.0","73228","","","","","","triplet","5500.699999988079","","","","0","stimuli/stim020_inanimate_tree_4.png","stimuli/stim009_animate_face_1.png","stimuli/stim003_animate_fish_3.png","159"
"html-button-response-mod","167","375194","0.0-167.0","73228","","","","","","triplet","1715.5999999642372","","","","1","stimuli/stim009_animate_face_1.png","stimuli/stim019_inanimate_tree_3.png","stimuli/stim011_animate_face_3.png","160"
"html-button-response-mod","168","376470","0.0-168.0","73228","","","","","","triplet","761.1000000238419","","","","0","stimuli/stim016_inanimate_boats_4.png","stimuli/tools_uppercase.png","stimuli/fish_lowercase.png","161"
"html-button-response-mod","169","377635","0.0-169.0","73228","","","","","","triplet","661.8000000119209","","","","0","stimuli/fish_lowercase.png","stimuli/stim008_animate_bird_4.png","stimuli/stim013_inanimate_boats_1.png","162"
"html-button-response-mod","170","378670","0.0-170.0","73228","","","","","","triplet","531.7000000476837","","","","2","stimuli/stim022_inanimate_tools_2.png","stimuli/stim013_inanimate_boats_1.png","stimuli/boats_lowercase.png","163"
"html-button-response-mod","171","389047","0.0-171.0","73228","","","","","","triplet","9867.399999976158","","","","2","stimuli/stim013_inanimate_boats_1.png","stimuli/stim021_inanimate_tools_1.png","stimuli/stim018_inanimate_tree_2.png","164"
"html-button-response-mod","172","390478","0.0-172.0","73228","","","","","","triplet","923.6000000238419","","","","0","stimuli/bird_uppercase.png","stimuli/stim014_inanimate_boats_2.png","stimuli/stim016_inanimate_boats_4.png","165"
"html-button-response-mod","173","391590","0.0-173.0","73228","","","","","","triplet","610.1000000238419","","","","0","stimuli/bird_lowercase.png","stimuli/stim002_animate_fish_2.png","stimuli/stim017_inanimate_tree_1.png","166"
"html-button-response-mod","174","392737","0.0-174.0","73228","","","","","","triplet","637.1000000238419","","","","1","stimuli/stim010_animate_face_2.png","stimuli/boats_uppercase.png","stimuli/stim014_inanimate_boats_2.png","167"
"html-button-response-mod","175","393820","0.0-175.0","73228","","","","","","triplet","572.3000000119209","","","","1","stimuli/stim011_animate_face_3.png","stimuli/bird_uppercase.png","stimuli/stim007_animate_bird_3.png","168"
"html-button-response-mod","176","394911","0.0-176.0","73228","","","","","","triplet","586.6999999880791","","","","2","stimuli/stim005_animate_bird_1.png","stimuli/stim021_inanimate_tools_1.png","stimuli/face_lowercase.png","169"
"html-button-response-mod","177","396276","0.0-177.0","73228","","","","","","triplet","849","","","","2","stimuli/fish_uppercase.png","stimuli/tree_uppercase.png","stimuli/stim008_animate_bird_4.png","170"
"html-button-response-mod","178","398187","0.0-178.0","73228","","","","","","triplet","1408.800000011921","","","","2","stimuli/stim020_inanimate_tree_4.png","stimuli/stim005_animate_bird_1.png","stimuli/stim011_animate_face_3.png","171"
"html-button-response-mod","179","401632","0.0-179.0","73228","","","","","","triplet","2942.5","","","","1","stimuli/stim014_inanimate_boats_2.png","stimuli/tree_lowercase.png","stimuli/stim019_inanimate_tree_3.png","172"
"html-button-response-mod","180","404039","0.0-180.0","73228","","","","","","triplet","1894.8999999761581","","","","2","stimuli/stim003_animate_fish_3.png","stimuli/stim004_animate_fish_4.png","stimuli/stim014_inanimate_boats_2.png","173"
"html-button-response-mod","181","408167","0.0-181.0","73228","","","","","","triplet","3619","","","","1","stimuli/stim008_animate_bird_4.png","stimuli/stim016_inanimate_boats_4.png","stimuli/stim011_animate_face_3.png","174"
"html-button-response-mod","182","409506","0.0-182.0","73228","","","","","","triplet","825.1000000238419","","","","2","stimuli/stim017_inanimate_tree_1.png","stimuli/stim024_inanimate_tools_4.png","stimuli/fish_uppercase.png","175"
"html-button-response-mod","183","411738","0.0-183.0","73228","","","","","","triplet","1717.2000000476837","","","","0","stimuli/stim015_inanimate_boats_3.png","stimuli/stim001_animate_fish_1.png","stimuli/stim007_animate_bird_3.png","176"
"html-button-response-mod","184","413678","0.0-184.0","73228","","","","","","triplet","1423.8999999761581","","","","0","stimuli/stim019_inanimate_tree_3.png","stimuli/stim024_inanimate_tools_4.png","stimuli/stim022_inanimate_tools_2.png","177"
"html-button-response-mod","185","414860","0.0-185.0","73228","","","","","","triplet","670.3999999761581","","","","2","stimuli/stim016_inanimate_boats_4.png","stimuli/stim013_inanimate_boats_1.png","stimuli/tree_lowercase.png","178"
"html-button-response-mod","186","417162","0.0-186.0","73228","","","","","","triplet","1788.1000000238419","","","","2","stimuli/stim002_animate_fish_2.png","stimuli/stim008_animate_bird_4.png","stimuli/stim020_inanimate_tree_4.png","179"
"html-button-response-mod","187","419822","0.0-187.0","73228","","","","","","triplet","2158.900000035763","","","","1","stimuli/stim004_animate_fish_4.png","stimuli/stim016_inanimate_boats_4.png","stimuli/stim010_animate_face_2.png","180"
"html-button-response-mod","188","420994","0.0-188.0","73228","","","","","","triplet","669.8000000119209","","","","2","stimuli/stim013_inanimate_boats_1.png","stimuli/stim009_animate_face_1.png","stimuli/tools_uppercase.png","181"
"html-button-response-mod","189","422200","0.0-189.0","73228","","","","","","triplet","696.1000000238419","","","","2","stimuli/stim014_inanimate_boats_2.png","stimuli/stim004_animate_fish_4.png","stimuli/tools_lowercase.png","182"
"html-button-response-mod","190","424080","0.0-190.0","73228","","","","","","triplet","1377.199999988079","","","","2","stimuli/stim013_inanimate_boats_1.png","stimuli/stim007_animate_bird_3.png","stimuli/tools_lowercase.png","183"
"html-button-response-mod","191","425603","0.0-191.0","73228","","","","","","triplet","1007.5","","","","1","stimuli/tree_uppercase.png","stimuli/stim001_animate_fish_1.png","stimuli/tools_uppercase.png","184"
"html-button-response-mod","192","426693","0.0-192.0","73228","","","","","","triplet","586.8000000119209","","","","1","stimuli/stim015_inanimate_boats_3.png","stimuli/face_lowercase.png","stimuli/stim022_inanimate_tools_2.png","185"
"html-button-response-mod","193","428034","0.0-193.0","73228","","","","","","triplet","839.5","","","","0","stimuli/stim022_inanimate_tools_2.png","stimuli/fish_lowercase.png","stimuli/face_uppercase.png","186"
"html-button-response-mod","194","429287","0.0-194.0","73228","","","","","","triplet","746.3999999761581","","","","1","stimuli/stim022_inanimate_tools_2.png","stimuli/stim010_animate_face_2.png","stimuli/stim024_inanimate_tools_4.png","187"
"html-button-response-mod","195","431198","0.0-195.0","73228","","","","","","triplet","1404.699999988079","","","","0","stimuli/fish_uppercase.png","stimuli/stim007_animate_bird_3.png","stimuli/stim015_inanimate_boats_3.png","188"
"html-button-response-mod","196","432433","0.0-196.0","73228","","","","","","triplet","731.2999999523163","","","","1","stimuli/face_uppercase.png","stimuli/stim023_inanimate_tools_3.png","stimuli/boats_uppercase.png","189"
"html-button-response-mod","197","433709","0.0-197.0","73228","","","","","","triplet","773.0999999642372","","","","0","stimuli/stim019_inanimate_tree_3.png","stimuli/boats_uppercase.png","stimuli/bird_uppercase.png","190"
"html-button-response-mod","198","434853","0.0-198.0","73228","","","","","","triplet","642.5999999642372","","","","0","stimuli/tools_lowercase.png","stimuli/stim008_animate_bird_4.png","stimuli/stim017_inanimate_tree_1.png","191"
"html-button-response-mod","199","435943","0.0-199.0","73228","","","","","","triplet","573.1999999880791","","","","2","stimuli/stim021_inanimate_tools_1.png","stimuli/stim016_inanimate_boats_4.png","stimuli/tools_uppercase.png","192"
"html-button-response-mod","200","437085","0.0-200.0","73228","","","","","","triplet","639","","","","2","stimuli/stim001_animate_fish_1.png","stimuli/stim006_animate_bird_2.png","stimuli/tree_lowercase.png","193"
"html-button-response-mod","201","439436","0.0-201.0","73228","","","","","","triplet","1838.3999999761581","","","","0","stimuli/tree_lowercase.png","stimuli/bird_uppercase.png","stimuli/boats_uppercase.png","194"
"html-button-response-mod","202","441206","0.0-202.0","73228","","","","","","triplet","1260.8999999761581","","","","0","stimuli/boats_uppercase.png","stimuli/stim014_inanimate_boats_2.png","stimuli/stim004_animate_fish_4.png","195"
"html-button-response-mod","203","442573","0.0-203.0","73228","","","","","","triplet","864.3000000119209","","","","1","stimuli/stim005_animate_bird_1.png","stimuli/tree_uppercase.png","stimuli/stim024_inanimate_tools_4.png","196"
"html-button-response-mod","204","443621","0.0-204.0","73228","","","","","","triplet","534.6999999880791","","","","1","stimuli/stim013_inanimate_boats_1.png","stimuli/face_lowercase.png","stimuli/stim024_inanimate_tools_4.png","197"
"html-button-response-mod","205","444696","0.0-205.0","73228","","","","","","triplet","566.8000000119209","","","","0","stimuli/fish_uppercase.png","stimuli/stim007_animate_bird_3.png","stimuli/stim020_inanimate_tree_4.png","198"
"html-button-response-mod","206","445793","0.0-206.0","73228","","","","","","triplet","586.3999999761581","","","","0","stimuli/fish_lowercase.png","stimuli/stim004_animate_fish_4.png","stimuli/stim013_inanimate_boats_1.png","199"
"html-button-response","207","447056","0.0-207.0","73228","","","","","","break","755.8999999761581","<p>BREAK</p><p>Take a break for as long as you need</p><p>Click the button to continue</p>","0","","","","","",""
"html-button-response-mod","208","448802","0.0-208.0","73228","","","","","","triplet","1745.5","","","","0","stimuli/fish_uppercase.png","stimuli/tools_lowercase.png","stimuli/tree_lowercase.png","200"
"html-button-response-mod","209","450009","0.0-209.0","73228","","","","","","triplet","704.5","","","","2","stimuli/bird_lowercase.png","stimuli/tools_uppercase.png","stimuli/stim017_inanimate_tree_1.png","201"
"html-button-response-mod","210","451675","0.0-210.0","73228","","","","","","triplet","1163.699999988079","","","","1","stimuli/stim008_animate_bird_4.png","stimuli/bird_uppercase.png","stimuli/stim018_inanimate_tree_2.png","202"
"html-button-response-mod","211","458553","0.0-211.0","73228","","","","","","triplet","6360.899999976158","","","","2","stimuli/stim018_inanimate_tree_2.png","stimuli/stim011_animate_face_3.png","stimuli/stim023_inanimate_tools_3.png","203"
"html-button-response-mod","212","460610","0.0-212.0","73228","","","","","","triplet","1555.1000000238419","","","","1","stimuli/stim017_inanimate_tree_1.png","stimuli/fish_lowercase.png","stimuli/stim022_inanimate_tools_2.png","204"
"html-button-response-mod","213","461663","0.0-213.0","73228","","","","","","triplet","551.0999999642372","","","","2","stimuli/stim008_animate_bird_4.png","stimuli/stim021_inanimate_tools_1.png","stimuli/boats_uppercase.png","205"
"html-button-response-mod","214","462809","0.0-214.0","73228","","","","","","triplet","632.6999999880791","","","","2","stimuli/stim012_animate_face_4.png","stimuli/stim014_inanimate_boats_2.png","stimuli/fish_lowercase.png","206"
"html-button-response-mod","215","463931","0.0-215.0","73228","","","","","","triplet","618.3999999761581","","","","2","stimuli/stim016_inanimate_boats_4.png","stimuli/stim020_inanimate_tree_4.png","stimuli/fish_lowercase.png","207"
"html-button-response-mod","216","471411","0.0-216.0","73228","","","","","","triplet","6963.700000047684","","","","2","stimuli/stim008_animate_bird_4.png","stimuli/stim009_animate_face_1.png","stimuli/stim020_inanimate_tree_4.png","208"
"html-button-response-mod","217","472714","0.0-217.0","73228","","","","","","triplet","800.9000000357628","","","","0","stimuli/bird_uppercase.png","stimuli/stim009_animate_face_1.png","stimuli/stim024_inanimate_tools_4.png","209"
"html-button-response-mod","218","476008","0.0-218.0","73228","","","","","","triplet","2786.899999976158","","","","1","stimuli/stim001_animate_fish_1.png","stimuli/stim020_inanimate_tree_4.png","stimuli/stim006_animate_bird_2.png","210"
"html-button-response-mod","219","477214","0.0-219.0","73228","","","","","","triplet","694.1999999880791","","","","1","stimuli/stim002_animate_fish_2.png","stimuli/tools_lowercase.png","stimuli/stim011_animate_face_3.png","211"
"html-button-response-mod","220","478519","0.0-220.0","73228","","","","","","triplet","799","","","","2","stimuli/bird_uppercase.png","stimuli/face_uppercase.png","stimuli/stim014_inanimate_boats_2.png","212"
"html-button-response-mod","221","479938","0.0-221.0","73228","","","","","","triplet","911.1000000238419","","","","1","stimuli/stim011_animate_face_3.png","stimuli/bird_lowercase.png","stimuli/stim002_animate_fish_2.png","213"
"html-button-response-mod","222","481133","0.0-222.0","73228","","","","","","triplet","688.6999999880791","","","","2","stimuli/stim017_inanimate_tree_1.png","stimuli/stim010_animate_face_2.png","stimuli/tree_uppercase.png","214"
"html-button-response-mod","223","482915","0.0-223.0","73228","","","","","","triplet","1269.300000011921","","","","2","stimuli/stim002_animate_fish_2.png","stimuli/stim003_animate_fish_3.png","stimuli/stim023_inanimate_tools_3.png","215"
"html-button-response-mod","224","484109","0.0-224.0","73228","","","","","","triplet","686.7000000476837","","","","0","stimuli/tools_lowercase.png","stimuli/stim009_animate_face_1.png","stimuli/stim002_animate_fish_2.png","216"
"html-button-response-mod","225","485179","0.0-225.0","73228","","","","","","triplet","556.5","","","","1","stimuli/stim015_inanimate_boats_3.png","stimuli/tools_lowercase.png","stimuli/stim008_animate_bird_4.png","217"
"html-button-response-mod","226","487328","0.0-226.0","73228","","","","","","triplet","1636.8999999761581","","","","2","stimuli/stim007_animate_bird_3.png","stimuli/stim005_animate_bird_1.png","stimuli/stim013_inanimate_boats_1.png","218"
"html-button-response-mod","227","488479","0.0-227.0","73228","","","","","","triplet","649.1999999880791","","","","0","stimuli/tools_uppercase.png","stimuli/stim006_animate_bird_2.png","stimuli/stim011_animate_face_3.png","219"
"html-button-response-mod","228","489783","0.0-228.0","73228","","","","","","triplet","799.1000000238419","","","","2","stimuli/tree_lowercase.png","stimuli/tree_uppercase.png","stimuli/stim006_animate_bird_2.png","220"
"html-button-response-mod","229","491815","0.0-229.0","73228","","","","","","triplet","1524.300000011921","","","","2","stimuli/stim015_inanimate_boats_3.png","stimuli/stim014_inanimate_boats_2.png","stimuli/stim018_inanimate_tree_2.png","221"
"html-button-response-mod","230","492924","0.0-230.0","73228","","","","","","triplet","597.3999999761581","","","","2","stimuli/stim004_animate_fish_4.png","stimuli/stim008_animate_bird_4.png","stimuli/tools_uppercase.png","222"
"html-button-response-mod","231","495627","0.0-231.0","73228","","","","","","triplet","2195.899999976158","","","","0","stimuli/stim020_inanimate_tree_4.png","stimuli/stim003_animate_fish_3.png","stimuli/stim007_animate_bird_3.png","223"
"html-button-response-mod","232","498491","0.0-232.0","73228","","","","","","triplet","2353.2999999523163","","","","1","stimuli/stim010_animate_face_2.png","stimuli/stim001_animate_fish_1.png","stimuli/stim012_animate_face_4.png","224"
"html-button-response-mod","233","499736","0.0-233.0","73228","","","","","","triplet","742.1999999880791","","","","1","stimuli/tools_uppercase.png","stimuli/stim019_inanimate_tree_3.png","stimuli/fish_uppercase.png","225"
"html-button-response-mod","234","500942","0.0-234.0","73228","","","","","","triplet","704.5999999642372","","","","0","stimuli/stim024_inanimate_tools_4.png","stimuli/boats_uppercase.png","stimuli/fish_uppercase.png","226"
"html-button-response-mod","235","503331","0.0-235.0","73228","","","","","","triplet","1873.5999999642372","","","","1","stimuli/stim010_animate_face_2.png","stimuli/stim018_inanimate_tree_2.png","stimuli/stim008_animate_bird_4.png","227"
"html-button-response-mod","236","505913","0.0-236.0","73228","","","","","","triplet","2080.699999988079","","","","2","stimuli/tree_uppercase.png","stimuli/face_lowercase.png","stimuli/stim016_inanimate_boats_4.png","228"
"html-button-response-mod","237","507040","0.0-237.0","73228","","","","","","triplet","616.5","","","","0","stimuli/boats_uppercase.png","stimuli/stim008_animate_bird_4.png","stimuli/stim012_animate_face_4.png","229"
"html-button-response-mod","238","508149","0.0-238.0","73228","","","","","","triplet","593.1999999880791","","","","0","stimuli/face_uppercase.png","stimuli/stim002_animate_fish_2.png","stimuli/stim010_animate_face_2.png","230"
"html-button-response-mod","239","509319","0.0-239.0","73228","","","","","","triplet","658.5","","","","2","stimuli/tree_uppercase.png","stimuli/tools_uppercase.png","stimuli/stim024_inanimate_tools_4.png","231"
"html-button-response-mod","240","510444","0.0-240.0","73228","","","","","","triplet","616.8999999761581","","","","0","stimuli/face_uppercase.png","stimuli/stim010_animate_face_2.png","stimuli/stim006_animate_bird_2.png","232"
"html-button-response-mod","241","511834","0.0-241.0","73228","","","","","","triplet","874.6000000238419","","","","0","stimuli/stim017_inanimate_tree_1.png","stimuli/face_lowercase.png","stimuli/tree_uppercase.png","233"
"html-button-response-mod","242","515101","0.0-242.0","73228","","","","","","triplet","2756.7999999523163","","","","1","stimuli/stim002_animate_fish_2.png","stimuli/stim015_inanimate_boats_3.png","stimuli/stim009_animate_face_1.png","234"
"html-button-response-mod","243","516864","0.0-243.0","73228","","","","","","triplet","1261.300000011921","","","","1","stimuli/stim020_inanimate_tree_4.png","stimuli/boats_lowercase.png","stimuli/stim004_animate_fish_4.png","235"
"html-button-response-mod","244","518125","0.0-244.0","73228","","","","","","triplet","758.6999999880791","","","","0","stimuli/stim023_inanimate_tools_3.png","stimuli/tree_uppercase.png","stimuli/tools_lowercase.png","236"
"html-button-response-mod","245","520928","0.0-245.0","73228","","","","","","triplet","2302","","","","0","stimuli/stim022_inanimate_tools_2.png","stimuli/stim006_animate_bird_2.png","stimuli/stim002_animate_fish_2.png","237"
"html-button-response-mod","246","523306","0.0-246.0","73228","","","","","","triplet","1876.4000000357628","","","","0","stimuli/stim022_inanimate_tools_2.png","stimuli/stim011_animate_face_3.png","stimuli/stim008_animate_bird_4.png","238"
"html-button-response-mod","247","538056","0.0-247.0","73228","","","","","","triplet","14247.400000035763","","","","1","stimuli/stim019_inanimate_tree_3.png","stimuli/stim014_inanimate_boats_2.png","stimuli/stim007_animate_bird_3.png","239"
"html-button-response-mod","248","539896","0.0-248.0","73228","","","","","","triplet","1325.199999988079","","","","0","stimuli/face_uppercase.png","stimuli/tools_lowercase.png","stimuli/tools_uppercase.png","240"
"html-button-response-mod","249","542807","0.0-249.0","73228","","","","","","triplet","2402.199999988079","","","","1","stimuli/boats_uppercase.png","stimuli/stim003_animate_fish_3.png","stimuli/tree_lowercase.png","241"
"html-button-response-mod","250","544423","0.0-250.0","73228","","","","","","triplet","1108","","","","2","stimuli/stim003_animate_fish_3.png","stimuli/stim002_animate_fish_2.png","stimuli/bird_lowercase.png","242"
"html-button-response-mod","251","547807","0.0-251.0","73228","","","","","","triplet","2869.600000023842","","","","0","stimuli/fish_uppercase.png","stimuli/stim004_animate_fish_4.png","stimuli/stim015_inanimate_boats_3.png","243"
"html-button-response-mod","252","549651","0.0-252.0","73228","","","","","","triplet","1341.699999988079","","","","1","stimuli/stim017_inanimate_tree_1.png","stimuli/stim002_animate_fish_2.png","stimuli/stim020_inanimate_tree_4.png","244"
"html-button-response-mod","253","550857","0.0-253.0","73228","","","","","","triplet","688.6000000238419","","","","0","stimuli/tools_lowercase.png","stimuli/stim007_animate_bird_3.png","stimuli/stim010_animate_face_2.png","245"
"html-button-response-mod","254","554057","0.0-254.0","73228","","","","","","triplet","2685.599999964237","","","","0","stimuli/boats_lowercase.png","stimuli/stim017_inanimate_tree_1.png","stimuli/stim022_inanimate_tools_2.png","246"
"html-button-response-mod","255","559445","0.0-255.0","73228","","","","","","triplet","4883.399999976158","","","","1","stimuli/stim017_inanimate_tree_1.png","stimuli/stim023_inanimate_tools_3.png","stimuli/stim009_animate_face_1.png","247"
"html-button-response-mod","256","561550","0.0-256.0","73228","","","","","","triplet","1601.5","","","","0","stimuli/stim021_inanimate_tools_1.png","stimuli/stim005_animate_bird_1.png","stimuli/stim006_animate_bird_2.png","248"
"html-button-response-mod","257","562818","0.0-257.0","73228","","","","","","triplet","754.2999999523163","","","","0","stimuli/tools_lowercase.png","stimuli/stim022_inanimate_tools_2.png","stimuli/stim009_animate_face_1.png","249"
"html-button-response","258","564345","0.0-258.0","73228","","","","","","break","1015.8000000119209","<p>BREAK</p><p>Take a break for as long as you need</p><p>Click the button to continue</p>","0","","","","","",""
"html-button-response-mod","259","565009","0.0-259.0","73228","","","","","","triplet","663.3000000119209","","","","2","stimuli/stim014_inanimate_boats_2.png","stimuli/stim011_animate_face_3.png","stimuli/bird_uppercase.png","250"
"html-button-response-mod","260","566146","0.0-260.0","73228","","","","","","triplet","631.6999999880791","","","","2","stimuli/stim001_animate_fish_1.png","stimuli/stim004_animate_fish_4.png","stimuli/bird_lowercase.png","251"
"html-button-response-mod","261","567320","0.0-261.0","73228","","","","","","triplet","666.3999999761581","","","","2","stimuli/stim017_inanimate_tree_1.png","stimuli/stim002_animate_fish_2.png","stimuli/tools_uppercase.png","252"
"html-button-response-mod","262","568441","0.0-262.0","73228","","","","","","triplet","604.5","","","","2","stimuli/stim003_animate_fish_3.png","stimuli/stim013_inanimate_boats_1.png","stimuli/boats_lowercase.png","253"
"html-button-response-mod","263","569559","0.0-263.0","73228","","","","","","triplet","601.8000000119209","","","","1","stimuli/stim006_animate_bird_2.png","stimuli/fish_uppercase.png","stimuli/stim009_animate_face_1.png","254"
"html-button-response-mod","264","571253","0.0-264.0","73228","","","","","","triplet","1185.3999999761581","","","","2","stimuli/stim021_inanimate_tools_1.png","stimuli/stim023_inanimate_tools_3.png","stimuli/stim008_animate_bird_4.png","255"
"html-button-response-mod","265","572488","0.0-265.0","73228","","","","","","triplet","726.9000000357628","","","","2","stimuli/stim021_inanimate_tools_1.png","stimuli/stim020_inanimate_tree_4.png","stimuli/fish_uppercase.png","256"
"html-button-response-mod","266","573939","0.0-266.0","73228","","","","","","triplet","935.0999999642372","","","","2","stimuli/tree_lowercase.png","stimuli/bird_uppercase.png","stimuli/stim011_animate_face_3.png","257"
"html-button-response-mod","267","575147","0.0-267.0","73228","","","","","","triplet","691.8999999761581","","","","1","stimuli/bird_uppercase.png","stimuli/stim018_inanimate_tree_2.png","stimuli/face_lowercase.png","258"
"html-button-response-mod","268","576234","0.0-268.0","73228","","","","","","triplet","580.8000000119209","","","","2","stimuli/stim019_inanimate_tree_3.png","stimuli/stim018_inanimate_tree_2.png","stimuli/bird_uppercase.png","259"
"html-button-response-mod","269","577364","0.0-269.0","73228","","","","","","triplet","617.7999999523163","","","","1","stimuli/stim010_animate_face_2.png","stimuli/tree_uppercase.png","stimuli/stim012_animate_face_4.png","260"
"html-button-response-mod","270","581727","0.0-270.0","73228","","","","","","triplet","3846","","","","1","stimuli/stim005_animate_bird_1.png","stimuli/stim014_inanimate_boats_2.png","stimuli/stim018_inanimate_tree_2.png","261"
"html-button-response-mod","271","584754","0.0-271.0","73228","","","","","","triplet","2520.7000000476837","","","","2","stimuli/stim001_animate_fish_1.png","stimuli/stim024_inanimate_tools_4.png","stimuli/tree_lowercase.png","262"
"html-button-response-mod","272","586366","0.0-272.0","73228","","","","","","triplet","1107.199999988079","","","","2","stimuli/boats_lowercase.png","stimuli/fish_lowercase.png","stimuli/stim016_inanimate_boats_4.png","263"
"html-button-response-mod","273","587619","0.0-273.0","73228","","","","","","triplet","740.8000000119209","","","","1","stimuli/tools_lowercase.png","stimuli/stim003_animate_fish_3.png","stimuli/bird_uppercase.png","264"
"html-button-response-mod","274","588792","0.0-274.0","73228","","","","","","triplet","668.5","","","","0","stimuli/stim018_inanimate_tree_2.png","stimuli/tree_lowercase.png","stimuli/bird_lowercase.png","265"
"html-button-response-mod","275","589908","0.0-275.0","73228","","","","","","triplet","613.3999999761581","","","","2","stimuli/boats_lowercase.png","stimuli/bird_uppercase.png","stimuli/stim021_inanimate_tools_1.png","266"
"html-button-response-mod","276","591264","0.0-276.0","73228","","","","","","triplet","852.8000000119209","","","","2","stimuli/stim017_inanimate_tree_1.png","stimuli/stim001_animate_fish_1.png","stimuli/tools_lowercase.png","267"
"html-button-response-mod","277","592357","0.0-277.0","73228","","","","","","triplet","589","","","","0","stimuli/face_uppercase.png","stimuli/stim012_animate_face_4.png","stimuli/stim006_animate_bird_2.png","268"
"html-button-response-mod","278","593659","0.0-278.0","73228","","","","","","triplet","788.0999999642372","","","","2","stimuli/boats_uppercase.png","stimuli/bird_uppercase.png","stimuli/stim004_animate_fish_4.png","269"
"html-button-response-mod","279","594733","0.0-279.0","73228","","","","","","triplet","558.3999999761581","","","","1","stimuli/stim006_animate_bird_2.png","stimuli/tools_uppercase.png","stimuli/stim009_animate_face_1.png","270"
"html-button-response-mod","280","595997","0.0-280.0","73228","","","","","","triplet","746.9000000357628","","","","2","stimuli/stim004_animate_fish_4.png","stimuli/stim017_inanimate_tree_1.png","stimuli/tree_uppercase.png","271"
"html-button-response-mod","281","597980","0.0-281.0","73228","","","","","","triplet","1469.800000011921","","","","1","stimuli/tools_uppercase.png","stimuli/stim015_inanimate_boats_3.png","stimuli/boats_uppercase.png","272"
"html-button-response-mod","282","599075","0.0-282.0","73228","","","","","","triplet","593.8000000119209","","","","0","stimuli/tree_lowercase.png","stimuli/stim004_animate_fish_4.png","stimuli/stim016_inanimate_boats_4.png","273"
"html-button-response-mod","283","601406","0.0-283.0","73228","","","","","","triplet","1826.0999999642372","","","","2","stimuli/tree_uppercase.png","stimuli/face_uppercase.png","stimuli/bird_lowercase.png","274"
"html-button-response-mod","284","607240","0.0-284.0","73228","","","","","","triplet","5330.900000035763","","","","2","stimuli/stim012_animate_face_4.png","stimuli/stim020_inanimate_tree_4.png","stimuli/stim022_inanimate_tools_2.png","275"
"html-button-response-mod","285","608473","0.0-285.0","73228","","","","","","triplet","727.0999999642372","","","","2","stimuli/stim017_inanimate_tree_1.png","stimuli/stim011_animate_face_3.png","stimuli/bird_uppercase.png","276"
"html-button-response-mod","286","609605","0.0-286.0","73228","","","","","","triplet","618.8999999761581","","","","0","stimuli/fish_uppercase.png","stimuli/stim015_inanimate_boats_3.png","stimuli/stim010_animate_face_2.png","277"
"html-button-response-mod","287","611264","0.0-287.0","73228","","","","","","triplet","1157","","","","1","stimuli/stim008_animate_bird_4.png","stimuli/tree_lowercase.png","stimuli/stim024_inanimate_tools_4.png","278"
"html-button-response-mod","288","612581","0.0-288.0","73228","","","","","","triplet","809.8999999761581","","","","1","stimuli/fish_lowercase.png","stimuli/stim015_inanimate_boats_3.png","stimuli/boats_uppercase.png","279"
"html-button-response-mod","289","614264","0.0-289.0","73228","","","","","","triplet","1166.6000000238419","","","","0","stimuli/boats_uppercase.png","stimuli/stim024_inanimate_tools_4.png","stimuli/stim001_animate_fish_1.png","280"
"html-button-response-mod","290","615496","0.0-290.0","73228","","","","","","triplet","729.1999999880791","","","","1","stimuli/tree_lowercase.png","stimuli/stim018_inanimate_tree_2.png","stimuli/tools_lowercase.png","281"
"html-button-response-mod","291","616594","0.0-291.0","73228","","","","","","triplet","596.1000000238419","","","","0","stimuli/boats_uppercase.png","stimuli/stim023_inanimate_tools_3.png","stimuli/stim012_animate_face_4.png","282"
"html-button-response-mod","292","619470","0.0-292.0","73228","","","","","","triplet","2373.899999976158","","","","2","stimuli/stim001_animate_fish_1.png","stimuli/stim020_inanimate_tree_4.png","stimuli/stim013_inanimate_boats_1.png","283"
"html-button-response-mod","293","621688","0.0-293.0","73228","","","","","","triplet","1703.300000011921","","","","0","stimuli/stim015_inanimate_boats_3.png","stimuli/stim008_animate_bird_4.png","stimuli/stim010_animate_face_2.png","284"
"html-button-response-mod","294","623272","0.0-294.0","73228","","","","","","triplet","1081.9000000357628","","","","2","stimuli/stim020_inanimate_tree_4.png","stimuli/stim011_animate_face_3.png","stimuli/tree_uppercase.png","285"
"html-button-response-mod","295","624532","0.0-295.0","73228","","","","","","triplet","758.3000000119209","","","","0","stimuli/stim016_inanimate_boats_4.png","stimuli/tree_lowercase.png","stimuli/fish_uppercase.png","286"
"html-button-response-mod","296","625728","0.0-296.0","73228","","","","","","triplet","693.9000000357628","","","","2","stimuli/bird_uppercase.png","stimuli/tree_lowercase.png","stimuli/stim014_inanimate_boats_2.png","287"
"html-button-response-mod","297","626919","0.0-297.0","73228","","","","","","triplet","676.8000000119209","","","","2","stimuli/tree_lowercase.png","stimuli/tools_lowercase.png","stimuli/stim006_animate_bird_2.png","288"
"html-button-response-mod","298","628101","0.0-298.0","73228","","","","","","triplet","673.6999999880791","","","","0","stimuli/bird_lowercase.png","stimuli/stim005_animate_bird_1.png","stimuli/stim018_inanimate_tree_2.png","289"
"html-button-response-mod","299","634350","0.0-299.0","73228","","","","","","triplet","5737","","","","0","stimuli/stim019_inanimate_tree_3.png","stimuli/stim013_inanimate_boats_1.png","stimuli/stim022_inanimate_tools_2.png","290"
"html-button-response-mod","300","636069","0.0-300.0","73228","","","","","","triplet","1202.800000011921","","","","0","stimuli/fish_uppercase.png","stimuli/stim021_inanimate_tools_1.png","stimuli/stim006_animate_bird_2.png","291"
"html-button-response-mod","301","639938","0.0-301.0","73228","","","","","","triplet","3360.300000011921","","","","0","stimuli/stim014_inanimate_boats_2.png","stimuli/boats_lowercase.png","stimuli/boats_uppercase.png","292"
"html-button-response-mod","302","646468","0.0-302.0","73228","","","","","","triplet","6024.5","","","","1","stimuli/stim017_inanimate_tree_1.png","stimuli/stim013_inanimate_boats_1.png","stimuli/stim002_animate_fish_2.png","293"
"html-button-response-mod","303","648261","0.0-303.0","73228","","","","","","triplet","1291.300000011921","","","","0","stimuli/stim001_animate_fish_1.png","stimuli/stim010_animate_face_2.png","stimuli/stim011_animate_face_3.png","294"
"html-button-response-mod","304","653379","0.0-304.0","73228","","","","","","triplet","4608.599999964237","","","","2","stimuli/stim023_inanimate_tools_3.png","stimuli/stim013_inanimate_boats_1.png","stimuli/stim004_animate_fish_4.png","295"
"html-button-response-mod","305","656610","0.0-305.0","73228","","","","","","triplet","2728","","","","1","stimuli/stim008_animate_bird_4.png","stimuli/stim013_inanimate_boats_1.png","stimuli/stim011_animate_face_3.png","296"
"html-button-response-mod","306","659205","0.0-306.0","73228","","","","","","triplet","2092","","","","1","stimuli/fish_lowercase.png","stimuli/stim004_animate_fish_4.png","stimuli/tools_uppercase.png","297"
"html-button-response-mod","307","663065","0.0-307.0","73228","","","","","","triplet","3357.800000011921","","","","2","stimuli/stim005_animate_bird_1.png","stimuli/stim011_animate_face_3.png","stimuli/stim021_inanimate_tools_1.png","298"
"html-button-response-mod","308","676640","0.0-308.0","73228","","","","","","triplet","13065.800000011921","","","","2","stimuli/face_uppercase.png","stimuli/tree_uppercase.png","stimuli/tools_uppercase.png","299"
"html-button-response","309","678133","0.0-309.0","73228","","","","","","break","980.1000000238419","<p>BREAK</p><p>Take a break for as long as you need</p><p>Click the button to continue</p>","0","","","","","",""
"html-button-response-mod","310","680209","0.0-310.0","73228","","","","","","triplet","2074.300000011921","","","","2","stimuli/boats_uppercase.png","stimuli/face_uppercase.png","stimuli/stim018_inanimate_tree_2.png","300"
"html-button-response-mod","311","681356","0.0-311.0","73228","","","","","","triplet","632.5","","","","2","stimuli/bird_uppercase.png","stimuli/face_lowercase.png","stimuli/stim006_animate_bird_2.png","301"
"html-button-response-mod","312","684159","0.0-312.0","73228","","","","","","triplet","2299.899999976158","","","","1","stimuli/stim004_animate_fish_4.png","stimuli/stim019_inanimate_tree_3.png","stimuli/stim010_animate_face_2.png","302"
"html-button-response-mod","313","687417","0.0-313.0","73228","","","","","","triplet","2744.5","","","","2","stimuli/stim019_inanimate_tree_3.png","stimuli/stim022_inanimate_tools_2.png","stimuli/fish_lowercase.png","303"
"html-button-response-mod","314","688654","0.0-314.0","73228","","","","","","triplet","728.9000000357628","","","","1","stimuli/boats_lowercase.png","stimuli/stim009_animate_face_1.png","stimuli/fish_uppercase.png","304"
"html-button-response-mod","315","690112","0.0-315.0","73228","","","","","","triplet","943.8000000119209","","","","1","stimuli/stim019_inanimate_tree_3.png","stimuli/tree_uppercase.png","stimuli/stim006_animate_bird_2.png","305"
"html-button-response-mod","316","692936","0.0-316.0","73228","","","","","","triplet","2309.300000011921","","","","1","stimuli/stim007_animate_bird_3.png","stimuli/stim022_inanimate_tools_2.png","stimuli/stim004_animate_fish_4.png","306"
"html-button-response-mod","317","694177","0.0-317.0","73228","","","","","","triplet","726.3000000119209","","","","1","stimuli/tools_uppercase.png","stimuli/stim024_inanimate_tools_4.png","stimuli/boats_uppercase.png","307"
"html-button-response-mod","318","695417","0.0-318.0","73228","","","","","","triplet","735.6000000238419","","","","1","stimuli/tools_uppercase.png","stimuli/stim020_inanimate_tree_4.png","stimuli/face_lowercase.png","308"
"html-button-response-mod","319","697245","0.0-319.0","73228","","","","","","triplet","1317.0999999642372","","","","2","stimuli/stim019_inanimate_tree_3.png","stimuli/stim017_inanimate_tree_1.png","stimuli/stim011_animate_face_3.png","309"
"html-button-response-mod","320","698642","0.0-320.0","73228","","","","","","triplet","886.5999999642372","","","","1","stimuli/tools_lowercase.png","stimuli/stim021_inanimate_tools_1.png","stimuli/tree_uppercase.png","310"
"html-button-response-mod","321","700051","0.0-321.0","73228","","","","","","triplet","906.1999999880791","","","","1","stimuli/stim009_animate_face_1.png","stimuli/stim018_inanimate_tree_2.png","stimuli/stim011_animate_face_3.png","311"
"html-button-response-mod","322","701615","0.0-322.0","73228","","","","","","triplet","1055.9000000357628","","","","1","stimuli/stim022_inanimate_tools_2.png","stimuli/tree_lowercase.png","stimuli/stim016_inanimate_boats_4.png","312"
"html-button-response-mod","323","702714","0.0-323.0","73228","","","","","","triplet","586.5999999642372","","","","1","stimuli/stim003_animate_fish_3.png","stimuli/bird_uppercase.png","stimuli/stim013_inanimate_boats_1.png","313"
"html-button-response-mod","324","703956","0.0-324.0","73228","","","","","","triplet","738.1999999880791","","","","0","stimuli/stim016_inanimate_boats_4.png","stimuli/face_uppercase.png","stimuli/tools_lowercase.png","314"
"html-button-response-mod","325","705272","0.0-325.0","73228","","","","","","triplet","809.8999999761581","","","","1","stimuli/stim007_animate_bird_3.png","stimuli/fish_lowercase.png","stimuli/stim004_animate_fish_4.png","315"
"html-button-response-mod","326","706744","0.0-326.0","73228","","","","","","triplet","959","","","","2","stimuli/stim019_inanimate_tree_3.png","stimuli/stim020_inanimate_tree_4.png","stimuli/stim016_inanimate_boats_4.png","316"
"html-button-response-mod","327","708784","0.0-327.0","73228","","","","","","triplet","1524.199999988079","","","","1","stimuli/stim009_animate_face_1.png","stimuli/tools_uppercase.png","stimuli/stim007_animate_bird_3.png","317"
"html-button-response-mod","328","712448","0.0-328.0","73228","","","","","","triplet","3151.699999988079","","","","1","stimuli/stim013_inanimate_boats_1.png","stimuli/stim003_animate_fish_3.png","stimuli/stim021_inanimate_tools_1.png","318"
"html-button-response-mod","329","715040","0.0-329.0","73228","","","","","","triplet","2080.400000035763","","","","0","stimuli/stim016_inanimate_boats_4.png","stimuli/face_lowercase.png","stimuli/bird_lowercase.png","319"
"html-button-response-mod","330","717542","0.0-330.0","73228","","","","","","triplet","1997.1000000238419","","","","0","stimuli/stim013_inanimate_boats_1.png","stimuli/stim024_inanimate_tools_4.png","stimuli/stim022_inanimate_tools_2.png","320"
"html-button-response-mod","331","718888","0.0-331.0","73228","","","","","","triplet","844.0999999642372","","","","1","stimuli/tools_uppercase.png","stimuli/stim018_inanimate_tree_2.png","stimuli/face_lowercase.png","321"
"html-button-response-mod","332","720063","0.0-332.0","73228","","","","","","triplet","657.6000000238419","","","","0","stimuli/stim007_animate_bird_3.png","stimuli/face_lowercase.png","stimuli/fish_uppercase.png","322"
"html-button-response-mod","333","721268","0.0-333.0","73228","","","","","","triplet","691","","","","1","stimuli/face_uppercase.png","stimuli/stim022_inanimate_tools_2.png","stimuli/fish_uppercase.png","323"
"html-button-response-mod","334","722395","0.0-334.0","73228","","","","","","triplet","619.5","","","","0","stimuli/face_lowercase.png","stimuli/stim004_animate_fish_4.png","stimuli/stim014_inanimate_boats_2.png","324"
"html-button-response-mod","335","725787","0.0-335.0","73228","","","","","","triplet","2884.7000000476837","","","","1","stimuli/stim005_animate_bird_1.png","stimuli/stim016_inanimate_boats_4.png","stimuli/stim012_animate_face_4.png","325"
"html-button-response-mod","336","727681","0.0-336.0","73228","","","","","","triplet","1377.1000000238419","","","","1","stimuli/stim022_inanimate_tools_2.png","stimuli/face_uppercase.png","stimuli/stim006_animate_bird_2.png","326"
"html-button-response-mod","337","731679","0.0-337.0","73228","","","","","","triplet","3489.5","","","","1","stimuli/stim002_animate_fish_2.png","stimuli/stim013_inanimate_boats_1.png","stimuli/stim018_inanimate_tree_2.png","327"
"html-button-response-mod","338","732913","0.0-338.0","73228","","","","","","triplet","732.6999999880791","","","","0","stimuli/tools_lowercase.png","stimuli/stim010_animate_face_2.png","stimuli/stim023_inanimate_tools_3.png","328"
"html-button-response-mod","339","734032","0.0-339.0","73228","","","","","","triplet","613.9000000357628","","","","1","stimuli/stim005_animate_bird_1.png","stimuli/fish_lowercase.png","stimuli/stim019_inanimate_tree_3.png","329"
"html-button-response-mod","340","735788","0.0-340.0","73228","","","","","","triplet","1254.3999999761581","","","","0","stimuli/stim021_inanimate_tools_1.png","stimuli/stim004_animate_fish_4.png","stimuli/stim009_animate_face_1.png","330"
"html-button-response-mod","341","740685","0.0-341.0","73228","","","","","","triplet","4385.400000035763","","","","1","stimuli/stim019_inanimate_tree_3.png","stimuli/stim013_inanimate_boats_1.png","stimuli/stim011_animate_face_3.png","331"
"html-button-response-mod","342","743810","0.0-342.0","73228","","","","","","triplet","2615.7999999523163","","","","0","stimuli/boats_uppercase.png","stimuli/stim023_inanimate_tools_3.png","stimuli/stim005_animate_bird_1.png","332"
"html-button-response-mod","343","750186","0.0-343.0","73228","","","","","","triplet","5860.5","","","","1","stimuli/stim020_inanimate_tree_4.png","stimuli/stim014_inanimate_boats_2.png","stimuli/stim003_animate_fish_3.png","333"
"html-button-response-mod","344","751622","0.0-344.0","73228","","","","","","triplet","921.5999999642372","","","","1","stimuli/stim003_animate_fish_3.png","stimuli/tools_uppercase.png","stimuli/stim015_inanimate_boats_3.png","334"
"html-button-response-mod","345","752868","0.0-345.0","73228","","","","","","triplet","740.8000000119209","","","","0","stimuli/stim001_animate_fish_1.png","stimuli/boats_lowercase.png","stimuli/tree_lowercase.png","335"
"html-button-response-mod","346","754087","0.0-346.0","73228","","","","","","triplet","703.3999999761581","","","","1","stimuli/stim024_inanimate_tools_4.png","stimuli/tools_lowercase.png","stimuli/stim019_inanimate_tree_3.png","336"
"html-button-response-mod","347","758405","0.0-347.0","73228","","","","","","triplet","3816","","","","2","stimuli/stim022_inanimate_tools_2.png","stimuli/stim013_inanimate_boats_1.png","stimuli/stim010_animate_face_2.png","337"
"html-button-response-mod","348","761256","0.0-348.0","73228","","","","","","triplet","2335.800000011921","","","","2","stimuli/stim006_animate_bird_2.png","stimuli/stim001_animate_fish_1.png","stimuli/stim022_inanimate_tools_2.png","338"
"html-button-response-mod","349","762429","0.0-349.0","73228","","","","","","triplet","667.6000000238419","","","","0","stimuli/fish_lowercase.png","stimuli/stim014_inanimate_boats_2.png","stimuli/stim022_inanimate_tools_2.png","339"
"html-button-response-mod","350","763815","0.0-350.0","73228","","","","","","triplet","871.5","","","","1","stimuli/stim019_inanimate_tree_3.png","stimuli/stim005_animate_bird_1.png","stimuli/stim020_inanimate_tree_4.png","340"
"html-button-response-mod","351","771822","0.0-351.0","73228","","","","","","triplet","7494.600000023842","","","","1","stimuli/stim024_inanimate_tools_4.png","stimuli/stim007_animate_bird_3.png","stimuli/stim014_inanimate_boats_2.png","341"
"html-button-response-mod","352","775407","0.0-352.0","73228","","","","","","triplet","3083.199999988079","","","","1","stimuli/stim011_animate_face_3.png","stimuli/stim020_inanimate_tree_4.png","stimuli/stim008_animate_bird_4.png","342"
"html-button-response-mod","353","778704","0.0-353.0","73228","","","","","","triplet","2794.600000023842","","","","2","stimuli/stim014_inanimate_boats_2.png","stimuli/stim021_inanimate_tools_1.png","stimuli/stim003_animate_fish_3.png","343"
"html-button-response-mod","354","779966","0.0-354.0","73228","","","","","","triplet","760.3000000119209","","","","2","stimuli/stim018_inanimate_tree_2.png","stimuli/stim015_inanimate_boats_3.png","stimuli/bird_uppercase.png","344"
"html-button-response-mod","355","782849","0.0-355.0","73228","","","","","","triplet","2365.7999999523163","","","","2","stimuli/stim012_animate_face_4.png","stimuli/stim001_animate_fish_1.png","stimuli/stim017_inanimate_tree_1.png","345"
"html-button-response-mod","356","784081","0.0-356.0","73228","","","","","","triplet","719.6999999880791","","","","0","stimuli/fish_uppercase.png","stimuli/stim012_animate_face_4.png","stimuli/stim013_inanimate_boats_1.png","346"
"html-button-response-mod","357","785179","0.0-357.0","73228","","","","","","triplet","581.8000000119209","","","","2","stimuli/stim023_inanimate_tools_3.png","stimuli/stim020_inanimate_tree_4.png","stimuli/tools_lowercase.png","347"
"html-button-response-mod","358","786209","0.0-358.0","73228","","","","","","triplet","520.1000000238419","","","","2","stimuli/stim022_inanimate_tools_2.png","stimuli/stim010_animate_face_2.png","stimuli/fish_lowercase.png","348"
"html-button-response-mod","359","787553","0.0-359.0","73228","","","","","","triplet","834.1999999880791","","","","0","stimuli/stim010_animate_face_2.png","stimuli/face_uppercase.png","stimuli/boats_uppercase.png","349"
"html-button-response","360","795333","0.0-360.0","73228","","","","","","break","7266.899999976158","<p>BREAK</p><p>Take a break for as long as you need</p><p>Click the button to continue</p>","0","","","","","",""
"html-button-response-mod","361","796128","0.0-361.0","73228","","","","","","triplet","793.8000000119209","","","","0","stimuli/bird_uppercase.png","stimuli/stim018_inanimate_tree_2.png","stimuli/stim013_inanimate_boats_1.png","350"
"html-button-response-mod","362","797295","0.0-362.0","73228","","","","","","triplet","649.5","","","","1","stimuli/stim001_animate_fish_1.png","stimuli/boats_uppercase.png","stimuli/stim013_inanimate_boats_1.png","351"
"html-button-response-mod","363","798369","0.0-363.0","73228","","","","","","triplet","571.5","","","","0","stimuli/bird_lowercase.png","stimuli/stim005_animate_bird_1.png","stimuli/stim023_inanimate_tools_3.png","352"
"html-button-response-mod","364","799439","0.0-364.0","73228","","","","","","triplet","567.7999999523163","","","","0","stimuli/boats_uppercase.png","stimuli/stim024_inanimate_tools_4.png","stimuli/stim007_animate_bird_3.png","353"
"html-button-response-mod","365","801718","0.0-365.0","73228","","","","","","triplet","1771.5","","","","2","stimuli/stim003_animate_fish_3.png","stimuli/stim007_animate_bird_3.png","stimuli/stim016_inanimate_boats_4.png","354"
"html-button-response-mod","366","802807","0.0-366.0","73228","","","","","","triplet","585.0999999642372","","","","0","stimuli/boats_uppercase.png","stimuli/stim018_inanimate_tree_2.png","stimuli/stim002_animate_fish_2.png","355"
"html-button-response-mod","367","805568","0.0-367.0","73228","","","","","","triplet","2256","","","","2","stimuli/stim022_inanimate_tools_2.png","stimuli/stim015_inanimate_boats_3.png","stimuli/stim006_animate_bird_2.png","356"
"html-button-response-mod","368","806763","0.0-368.0","73228","","","","","","triplet","681.6000000238419","","","","0","stimuli/face_lowercase.png","stimuli/stim016_inanimate_boats_4.png","stimuli/stim014_inanimate_boats_2.png","357"
"html-button-response-mod","369","807844","0.0-369.0","73228","","","","","","triplet","578.6000000238419","","","","2","stimuli/stim015_inanimate_boats_3.png","stimuli/stim005_animate_bird_1.png","stimuli/fish_lowercase.png","358"
"html-button-response-mod","370","811185","0.0-370.0","73228","","","","","","triplet","2833.699999988079","","","","2","stimuli/stim007_animate_bird_3.png","stimuli/stim009_animate_face_1.png","stimuli/stim024_inanimate_tools_4.png","359"
"html-button-response-mod","371","816044","0.0-371.0","73228","","","","","","triplet","4353.400000035763","","","","2","stimuli/stim019_inanimate_tree_3.png","stimuli/stim007_animate_bird_3.png","stimuli/stim015_inanimate_boats_3.png","360"
"html-button-response-mod","372","820504","0.0-372.0","73228","","","","","","triplet","3958.300000011921","","","","2","stimuli/stim024_inanimate_tools_4.png","stimuli/stim013_inanimate_boats_1.png","stimuli/tools_uppercase.png","361"
"html-button-response-mod","373","821726","0.0-373.0","73228","","","","","","triplet","719.8999999761581","","","","0","stimuli/bird_uppercase.png","stimuli/stim009_animate_face_1.png","stimuli/stim017_inanimate_tree_1.png","362"
"html-button-response-mod","374","824833","0.0-374.0","73228","","","","","","triplet","2597.2000000476837","","","","2","stimuli/face_lowercase.png","stimuli/bird_lowercase.png","stimuli/tools_uppercase.png","363"
"html-button-response-mod","375","826116","0.0-375.0","73228","","","","","","triplet","766.3000000119209","","","","0","stimuli/face_uppercase.png","stimuli/stim018_inanimate_tree_2.png","stimuli/stim022_inanimate_tools_2.png","364"
"html-button-response-mod","376","827263","0.0-376.0","73228","","","","","","triplet","646.3000000119209","","","","2","stimuli/stim018_inanimate_tree_2.png","stimuli/stim001_animate_fish_1.png","stimuli/face_uppercase.png","365"
"html-button-response-mod","377","828364","0.0-377.0","73228","","","","","","triplet","598.6000000238419","","","","2","stimuli/stim003_animate_fish_3.png","stimuli/stim016_inanimate_boats_4.png","stimuli/face_uppercase.png","366"
"html-button-response-mod","378","829461","0.0-378.0","73228","","","","","","triplet","592.8000000119209","","","","2","stimuli/stim006_animate_bird_2.png","stimuli/stim011_animate_face_3.png","stimuli/tree_lowercase.png","367"
"html-button-response-mod","379","830769","0.0-379.0","73228","","","","","","triplet","796.8999999761581","","","","2","stimuli/fish_lowercase.png","stimuli/bird_lowercase.png","stimuli/stim020_inanimate_tree_4.png","368"
"html-button-response-mod","380","832316","0.0-380.0","73228","","","","","","triplet","1034.0999999642372","","","","0","stimuli/stim007_animate_bird_3.png","stimuli/stim020_inanimate_tree_4.png","stimuli/stim019_inanimate_tree_3.png","369"
"html-button-response-mod","381","833574","0.0-381.0","73228","","","","","","triplet","755.8999999761581","","","","1","stimuli/stim014_inanimate_boats_2.png","stimuli/tools_lowercase.png","stimuli/stim003_animate_fish_3.png","370"
"html-button-response-mod","382","834877","0.0-382.0","73228","","","","","","triplet","793.1000000238419","","","","0","stimuli/stim017_inanimate_tree_1.png","stimuli/fish_lowercase.png","stimuli/face_lowercase.png","371"
"html-button-response-mod","383","836193","0.0-383.0","73228","","","","","","triplet","814.5","","","","0","stimuli/tools_uppercase.png","stimuli/stim015_inanimate_boats_3.png","stimuli/stim004_animate_fish_4.png","372"
"html-button-response-mod","384","838977","0.0-384.0","73228","","","","","","triplet","2273.199999988079","","","","0","stimuli/stim019_inanimate_tree_3.png","stimuli/stim005_animate_bird_1.png","stimuli/stim009_animate_face_1.png","373"
"html-button-response-mod","385","840389","0.0-385.0","73228","","","","","","triplet","896.1000000238419","","","","1","stimuli/stim012_animate_face_4.png","stimuli/bird_lowercase.png","stimuli/stim008_animate_bird_4.png","374"
"html-button-response-mod","386","841873","0.0-386.0","73228","","","","","","triplet","981.7999999523163","","","","2","stimuli/tree_uppercase.png","stimuli/tree_lowercase.png","stimuli/stim022_inanimate_tools_2.png","375"
"html-button-response-mod","387","843084","0.0-387.0","73228","","","","","","triplet","709","","","","0","stimuli/stim023_inanimate_tools_3.png","stimuli/face_uppercase.png","stimuli/tools_uppercase.png","376"
"html-button-response-mod","388","844217","0.0-388.0","73228","","","","","","triplet","622.1000000238419","","","","0","stimuli/bird_lowercase.png","stimuli/stim022_inanimate_tools_2.png","stimuli/stim020_inanimate_tree_4.png","377"
"html-button-response-mod","389","845394","0.0-389.0","73228","","","","","","triplet","664.1999999880791","","","","0","stimuli/tools_uppercase.png","stimuli/stim002_animate_fish_2.png","stimuli/stim022_inanimate_tools_2.png","378"
"html-button-response-mod","390","848530","0.0-390.0","73228","","","","","","triplet","2633.5","","","","0","stimuli/tree_uppercase.png","stimuli/stim023_inanimate_tools_3.png","stimuli/stim022_inanimate_tools_2.png","379"
"html-button-response-mod","391","849705","0.0-391.0","73228","","","","","","triplet","671.5","","","","2","stimuli/face_uppercase.png","stimuli/tools_uppercase.png","stimuli/stim011_animate_face_3.png","380"
"html-button-response-mod","392","850887","0.0-392.0","73228","","","","","","triplet","670.8999999761581","","","","1","stimuli/stim010_animate_face_2.png","stimuli/face_uppercase.png","stimuli/stim004_animate_fish_4.png","381"
"html-button-response-mod","393","852058","0.0-393.0","73228","","","","","","triplet","656","","","","2","stimuli/stim005_animate_bird_1.png","stimuli/stim019_inanimate_tree_3.png","stimuli/face_uppercase.png","382"
"html-button-response-mod","394","853211","0.0-394.0","73228","","","","","","triplet","651.1999999880791","","","","1","stimuli/stim022_inanimate_tools_2.png","stimuli/tools_lowercase.png","stimuli/stim023_inanimate_tools_3.png","383"
"html-button-response-mod","395","854411","0.0-395.0","73228","","","","","","triplet","698","","","","0","stimuli/stim004_animate_fish_4.png","stimuli/face_uppercase.png","stimuli/fish_lowercase.png","384"
"html-button-response-mod","396","855520","0.0-396.0","73228","","","","","","triplet","607.5999999642372","","","","1","stimuli/stim021_inanimate_tools_1.png","stimuli/fish_uppercase.png","stimuli/stim009_animate_face_1.png","385"
"html-button-response-mod","397","856627","0.0-397.0","73228","","","","","","triplet","604.7999999523163","","","","1","stimuli/stim012_animate_face_4.png","stimuli/face_uppercase.png","stimuli/stim004_animate_fish_4.png","386"
"html-button-response-mod","398","858099","0.0-398.0","73228","","","","","","triplet","961.1999999880791","","","","0","stimuli/stim013_inanimate_boats_1.png","stimuli/stim010_animate_face_2.png","stimuli/stim012_animate_face_4.png","387"
"html-button-response-mod","399","859160","0.0-399.0","73228","","","","","","triplet","547.0999999642372","","","","1","stimuli/stim003_animate_fish_3.png","stimuli/fish_lowercase.png","stimuli/stim019_inanimate_tree_3.png","388"
"html-button-response-mod","400","860504","0.0-400.0","73228","","","","","","triplet","830.6000000238419","","","","0","stimuli/stim021_inanimate_tools_1.png","stimuli/stim020_inanimate_tree_4.png","stimuli/stim017_inanimate_tree_1.png","389"
"html-button-response-mod","401","863646","0.0-401.0","73228","","","","","","triplet","2632.100000023842","","","","0","stimuli/stim022_inanimate_tools_2.png","stimuli/stim020_inanimate_tree_4.png","stimuli/stim004_animate_fish_4.png","390"
"html-button-response-mod","402","864788","0.0-402.0","73228","","","","","","triplet","632.1000000238419","","","","0","stimuli/bird_uppercase.png","stimuli/stim002_animate_fish_2.png","stimuli/stim012_animate_face_4.png","391"
"html-button-response-mod","403","867366","0.0-403.0","73228","","","","","","triplet","2070.300000011921","","","","2","stimuli/stim012_animate_face_4.png","stimuli/stim007_animate_bird_3.png","stimuli/stim023_inanimate_tools_3.png","392"
"html-button-response-mod","404","868570","0.0-404.0","73228","","","","","","triplet","695.1000000238419","","","","2","stimuli/tree_uppercase.png","stimuli/boats_uppercase.png","stimuli/stim007_animate_bird_3.png","393"
"html-button-response-mod","405","870386","0.0-405.0","73228","","","","","","triplet","1314.2000000476837","","","","2","stimuli/stim010_animate_face_2.png","stimuli/stim005_animate_bird_1.png","stimuli/stim017_inanimate_tree_1.png","394"
"html-button-response-mod","406","872120","0.0-406.0","73228","","","","","","triplet","1231.800000011921","","","","2","stimuli/boats_uppercase.png","stimuli/tools_uppercase.png","stimuli/stim010_animate_face_2.png","395"
"html-button-response-mod","407","880078","0.0-407.0","73228","","","","","","triplet","7444.899999976158","","","","2","stimuli/face_uppercase.png","stimuli/tree_uppercase.png","stimuli/boats_uppercase.png","396"
"html-button-response-mod","408","889676","0.0-408.0","73228","","","","","","triplet","9081.699999988079","","","","1","stimuli/stim007_animate_bird_3.png","stimuli/stim024_inanimate_tools_4.png","stimuli/stim010_animate_face_2.png","397"
"html-button-response-mod","409","890929","0.0-409.0","73228","","","","","","triplet","750.5999999642372","","","","2","stimuli/tree_lowercase.png","stimuli/face_lowercase.png","stimuli/stim009_animate_face_1.png","398"
"html-button-response-mod","410","894164","0.0-410.0","73228","","","","","","triplet","2724","","","","0","stimuli/tools_uppercase.png","stimuli/stim010_animate_face_2.png","stimuli/stim021_inanimate_tools_1.png","399"
"html-button-response","411","895617","0.0-411.0","73228","","","","","","break","949.5","<p>BREAK</p><p>Take a break for as long as you need</p><p>Click the button to continue</p>","0","","","","","",""
"survey-text","412","1263373","0.0-412.0","73228","","","","","","data_patterns","367735.8000000119","","{""Q0"":""Divided the objects into subsets:\ne.g 'living' - man, woman, bird & fish \n'environment' - trees\n'tools' - wrench and pliers (?)\n'man-made' - 'tools' & boats\n\n1 word and 2 objects would always be the word that is odd one out, and vice versa for 2 words 1 object. This took priority over all other decisions. \n\nIf there was no objects from the same two subsets; 'living' would group with 'environment' and 'tools' would group with 'man-made'. \n\nFor words only;\n* 2 lower case and 1 upper case would result in the upper case being chosen, and vice versa. \n* All upper case/lower case would be a comparison of letters (e.g. whatever word had more of the same letters, e.g. tool & tree were matched). \n\n""}","","","","","",""
"survey-text","413","1265839","0.0-413.0","73228","","","","","","age_question","2463.5","","{""Age"":""18""}","","","","","",""
"html-button-response","414","1267788","0.0-414.0","73228","","","","","","gender_question","1947.5","How would you like your gender to be recorded?","0","","","","","",""
