"trial_type","trial_index","time_elapsed","internal_node_id","subject","success","timeout","failed_images","failed_audio","failed_video","test_part","rt","stimulus","response","end_time","button_pressed","stim0","stim1","stim2","trialnr"
"pavlovia","0","13","0.0-0.0","74012","","","","","","","","","","","","","","",""
"preload","1","807","0.0-1.0","74012","true","false","[]","[]","[]","preload","","","","","","","","",""
"html-button-response","2","16040","0.0-2.0","74012","","","","","","","15232","<p>Welcome to the experiment. To begin, please read the following and press the button at the bottom of the screen.</p><p></p><p><strong>Project Name: A study on cognitive processes involved in visual perception</p></strong><p></p><p><strong>PARTICIPANT INFORMATION STATEMENT</strong></p><p></p><strong>(1) What is the study about?</strong><br>You are invited to participate in a study that investigates the cognitive processes involved in perceiving and recognizing visual stimuli.If you decide to participate, you will be asked to complete a task in which you will view pictures, letters, numbers, or words presented on a computer screen.<br><strong>(2) Who can participate?</strong><br>Anyone aged 18 years or over with access to a computer (not a phone/tablet)<br><strong>(3) Where is the study located?</strong><br>The study will be conducted in your browser<br><strong>(4) Who is carrying out the study?</strong><br>The study is being conducted by Sophia Shatek from the Computational Cognitive Neuroscience laboratory at the University of Sydney.<br><strong>(5) What does the study involve?</strong><br>In this study, you will be asked to perform tasks where you will see different stimuli appear on the computer screen.You will respond by pressing a key or using a computer mouse.<br><strong>(6) How much time will the study take?</strong><br>The study takes about 30 minutes<br><strong>(7)	Can I withdraw from the study?</strong><br>Being in this study is completely voluntary - you are not under any obligation to consent. You can withdraw at any time without having to give a reason and without penalty.<br><strong>(8) Will anyone else know the results?</strong><br>All aspects of the study, including results, will be strictly confidential and only the researchers will have access to information on participants.The results and data from the study may be submitted for publication or shared with other research labs, but individual participants will not be identifiable.<br><strong>(9) Will the study benefit me?</strong><br>You will be awarded 0.5 credits for your participation.<br><strong>(10) Can I tell other people about the study?</strong><br>Yes, please tell them to contact Dr Thomas Carlson by email at thomas.carlson@sydney.edu.au.<br><strong>(11) What if I require further information about the study or my involvement in it?</strong><br>When you have read this information, the investigator will discuss it with you further and answer any questions you may have.If you would like to know more at any stage, please feel free to contact Dr Thomas Carlson directly by email at thomas.carlson@sydney.edu.au.If you would like to be informed about the outcomes of the study, contact Dr Thomas Carlson directly by email at thomas.carlson@sydney.edu.au.<br><strong>(12) What if I have a complaint or any concerns?</strong><br>Any person with concerns or complaints about the conduct of a research study can contact The Manager,Human Ethics Administration, University of Sydney on +61 2 8627 8176 (Telephone); +61 2 8627 8177 (Facsimile) or ro.humanethics@sydney.edu.au (Email).</p><p></p><strong>By participating in this experiment, you consent to participate in this study and acknowledge that:</strong><br>1. The procedures required for the project and the times involved have been explained to me, and any questions I have about the project have been answered to my satisfaction.<br>2.	I have read the Above Information Statement and have been given the opportunity to discuss the information and my involvement in the project with the researcher/s.<br>3. I understand that allowing my data to be used in research reports is completely voluntary - I am not under any obligation to consent.<br>4. I understand that my involvement is strictly confidential. I understand that any research data gathered from the results of the study may be publishedhowever no information about me will be used in any way that is identifiable.</p><p></p>","0","","","","","",""
"html-button-response","3","17469","0.0-3.0","74012","","","","","","opening_instructions","1428.7000000029802","<p>In this experiment, you will see three images appear on the screen.</p><p>You need to click the 'odd one out', or the image </p><p>that LOOKS MOST DIFFERENT to the other two. </p><p>Just go with your intuition, don't spend too long thinking about each one.</p>","0","20795.59999999404","","","","",""
"html-button-response-mod","4","19335","0.0-4.0","74012","","","","","","triplet","1864.0999999940395","","","","0","stimuli/tree_lowercase.png","stimuli/stim011_animate_face_3.png","stimuli/stim010_animate_face_2.png","0"
"html-button-response-mod","5","22584","0.0-5.0","74012","","","","","","triplet","2739.4000000059605","","","","0","stimuli/stim005_animate_bird_1.png","stimuli/stim023_inanimate_tools_3.png","stimuli/tools_lowercase.png","1"
"html-button-response-mod","6","25545","0.0-6.0","74012","","","","","","triplet","2457.5999999940395","","","","1","stimuli/stim008_animate_bird_4.png","stimuli/stim017_inanimate_tree_1.png","stimuli/fish_lowercase.png","2"
"html-button-response-mod","7","29869","0.0-7.0","74012","","","","","","triplet","3816.7999999970198","","","","1","stimuli/stim009_animate_face_1.png","stimuli/boats_lowercase.png","stimuli/stim005_animate_bird_1.png","3"
"html-button-response-mod","8","32832","0.0-8.0","74012","","","","","","triplet","2451","","","","1","stimuli/stim011_animate_face_3.png","stimuli/tools_uppercase.png","stimuli/stim001_animate_fish_1.png","4"
"html-button-response-mod","9","36168","0.0-9.0","74012","","","","","","triplet","2833.9000000059605","","","","1","stimuli/stim022_inanimate_tools_2.png","stimuli/stim008_animate_bird_4.png","stimuli/stim016_inanimate_boats_4.png","5"
"html-button-response-mod","10","39825","0.0-10.0","74012","","","","","","triplet","3150.2999999970198","","","","2","stimuli/fish_uppercase.png","stimuli/stim003_animate_fish_3.png","stimuli/boats_uppercase.png","6"
"html-button-response-mod","11","46273","0.0-11.0","74012","","","","","","triplet","5945.70000000298","","","","1","stimuli/fish_lowercase.png","stimuli/stim024_inanimate_tools_4.png","stimuli/stim007_animate_bird_3.png","7"
"html-button-response-mod","12","49749","0.0-12.0","74012","","","","","","triplet","2967.2999999970198","","","","2","stimuli/fish_uppercase.png","stimuli/stim007_animate_bird_3.png","stimuli/boats_lowercase.png","8"
"html-button-response-mod","13","64266","0.0-13.0","74012","","","","","","triplet","14007.20000000298","","","","1","stimuli/bird_lowercase.png","stimuli/tools_uppercase.png","stimuli/stim017_inanimate_tree_1.png","9"
"html-button-response-mod","14","68238","0.0-14.0","74012","","","","","","triplet","3462.2999999970198","","","","1","stimuli/stim009_animate_face_1.png","stimuli/boats_uppercase.png","stimuli/stim007_animate_bird_3.png","10"
"html-button-response-mod","15","71082","0.0-15.0","74012","","","","","","triplet","2342","","","","2","stimuli/stim007_animate_bird_3.png","stimuli/stim005_animate_bird_1.png","stimuli/stim001_animate_fish_1.png","11"
"html-button-response-mod","16","73769","0.0-16.0","74012","","","","","","triplet","2184.8999999910593","","","","0","stimuli/stim018_inanimate_tree_2.png","stimuli/stim015_inanimate_boats_3.png","stimuli/boats_lowercase.png","12"
"html-button-response-mod","17","75825","0.0-17.0","74012","","","","","","triplet","1555","","","","1","stimuli/bird_lowercase.png","stimuli/stim014_inanimate_boats_2.png","stimuli/stim006_animate_bird_2.png","13"
"html-button-response-mod","18","80426","0.0-18.0","74012","","","","","","triplet","4092.5999999940395","","","","1","stimuli/fish_lowercase.png","stimuli/stim016_inanimate_boats_4.png","stimuli/stim008_animate_bird_4.png","14"
"html-button-response-mod","19","83088","0.0-19.0","74012","","","","","","triplet","2150.7000000029802","","","","1","stimuli/stim003_animate_fish_3.png","stimuli/stim021_inanimate_tools_1.png","stimuli/tree_lowercase.png","15"
"html-button-response-mod","20","84933","0.0-20.0","74012","","","","","","triplet","1334.7000000029802","","","","0","stimuli/boats_lowercase.png","stimuli/stim004_animate_fish_4.png","stimuli/fish_uppercase.png","16"
"html-button-response-mod","21","86900","0.0-21.0","74012","","","","","","triplet","1465.1000000089407","","","","1","stimuli/stim002_animate_fish_2.png","stimuli/stim023_inanimate_tools_3.png","stimuli/stim008_animate_bird_4.png","17"
"html-button-response-mod","22","88397","0.0-22.0","74012","","","","","","triplet","987.5","","","","1","stimuli/stim004_animate_fish_4.png","stimuli/stim015_inanimate_boats_3.png","stimuli/bird_lowercase.png","18"
"html-button-response-mod","23","91629","0.0-23.0","74012","","","","","","triplet","2729.2999999970198","","","","2","stimuli/stim023_inanimate_tools_3.png","stimuli/stim014_inanimate_boats_2.png","stimuli/stim004_animate_fish_4.png","19"
"html-button-response-mod","24","93472","0.0-24.0","74012","","","","","","triplet","1337.5","","","","1","stimuli/stim013_inanimate_boats_1.png","stimuli/stim009_animate_face_1.png","stimuli/stim024_inanimate_tools_4.png","20"
"html-button-response-mod","25","95698","0.0-25.0","74012","","","","","","triplet","1723.9000000059605","","","","1","stimuli/stim024_inanimate_tools_4.png","stimuli/stim003_animate_fish_3.png","stimuli/tools_uppercase.png","21"
"html-button-response-mod","26","99677","0.0-26.0","74012","","","","","","triplet","3472.5","","","","2","stimuli/boats_lowercase.png","stimuli/stim017_inanimate_tree_1.png","stimuli/stim010_animate_face_2.png","22"
"html-button-response-mod","27","101579","0.0-27.0","74012","","","","","","triplet","1395.7000000029802","","","","0","stimuli/stim024_inanimate_tools_4.png","stimuli/stim007_animate_bird_3.png","stimuli/stim008_animate_bird_4.png","23"
"html-button-response-mod","28","103990","0.0-28.0","74012","","","","","","triplet","1908.9000000059605","","","","1","stimuli/stim023_inanimate_tools_3.png","stimuli/fish_uppercase.png","stimuli/stim016_inanimate_boats_4.png","24"
"html-button-response-mod","29","113142","0.0-29.0","74012","","","","","","triplet","8650.40000000596","","","","1","stimuli/stim006_animate_bird_2.png","stimuli/stim020_inanimate_tree_4.png","stimuli/face_uppercase.png","25"
"html-button-response-mod","30","129263","0.0-30.0","74012","","","","","","triplet","15617.29999999702","","","","0","stimuli/bird_uppercase.png","stimuli/boats_lowercase.png","stimuli/stim013_inanimate_boats_1.png","26"
"html-button-response-mod","31","131742","0.0-31.0","74012","","","","","","triplet","1976.7999999970198","","","","1","stimuli/tools_lowercase.png","stimuli/stim012_animate_face_4.png","stimuli/stim024_inanimate_tools_4.png","27"
"html-button-response-mod","32","135438","0.0-32.0","74012","","","","","","triplet","3183.0999999940395","","","","2","stimuli/stim019_inanimate_tree_3.png","stimuli/stim003_animate_fish_3.png","stimuli/stim014_inanimate_boats_2.png","28"
"html-button-response-mod","33","137328","0.0-33.0","74012","","","","","","triplet","1386.9000000059605","","","","1","stimuli/stim021_inanimate_tools_1.png","stimuli/face_lowercase.png","stimuli/stim016_inanimate_boats_4.png","29"
"html-button-response-mod","34","139542","0.0-34.0","74012","","","","","","triplet","1700.5","","","","1","stimuli/stim005_animate_bird_1.png","stimuli/tree_lowercase.png","stimuli/bird_uppercase.png","30"
"html-button-response-mod","35","140952","0.0-35.0","74012","","","","","","triplet","900.9000000059605","","","","2","stimuli/stim006_animate_bird_2.png","stimuli/stim005_animate_bird_1.png","stimuli/stim020_inanimate_tree_4.png","31"
"html-button-response-mod","36","146972","0.0-36.0","74012","","","","","","triplet","5516.100000008941","","","","0","stimuli/stim019_inanimate_tree_3.png","stimuli/stim007_animate_bird_3.png","stimuli/stim009_animate_face_1.png","32"
"html-button-response-mod","37","154270","0.0-37.0","74012","","","","","","triplet","6797.4000000059605","","","","2","stimuli/stim012_animate_face_4.png","stimuli/face_uppercase.png","stimuli/stim022_inanimate_tools_2.png","33"
"html-button-response-mod","38","155858","0.0-38.0","74012","","","","","","triplet","1086.5","","","","1","stimuli/stim007_animate_bird_3.png","stimuli/stim019_inanimate_tree_3.png","stimuli/bird_uppercase.png","34"
"html-button-response-mod","39","158200","0.0-39.0","74012","","","","","","triplet","1840.5","","","","2","stimuli/fish_lowercase.png","stimuli/stim008_animate_bird_4.png","stimuli/stim020_inanimate_tree_4.png","35"
"html-button-response-mod","40","160547","0.0-40.0","74012","","","","","","triplet","1843.7999999970198","","","","0","stimuli/stim009_animate_face_1.png","stimuli/tree_lowercase.png","stimuli/stim018_inanimate_tree_2.png","36"
"html-button-response-mod","41","163442","0.0-41.0","74012","","","","","","triplet","2381.8999999910593","","","","2","stimuli/stim007_animate_bird_3.png","stimuli/bird_uppercase.png","stimuli/face_uppercase.png","37"
"html-button-response-mod","42","166269","0.0-42.0","74012","","","","","","triplet","2318.0999999940395","","","","0","stimuli/fish_uppercase.png","stimuli/stim016_inanimate_boats_4.png","stimuli/tools_uppercase.png","38"
"html-button-response-mod","43","167618","0.0-43.0","74012","","","","","","triplet","846.9000000059605","","","","2","stimuli/stim009_animate_face_1.png","stimuli/stim010_animate_face_2.png","stimuli/stim024_inanimate_tools_4.png","39"
"html-button-response-mod","44","169820","0.0-44.0","74012","","","","","","triplet","1701.2000000029802","","","","0","stimuli/boats_uppercase.png","stimuli/fish_uppercase.png","stimuli/stim004_animate_fish_4.png","40"
"html-button-response-mod","45","172621","0.0-45.0","74012","","","","","","triplet","2287.3999999910593","","","","0","stimuli/stim021_inanimate_tools_1.png","stimuli/stim015_inanimate_boats_3.png","stimuli/stim013_inanimate_boats_1.png","41"
"html-button-response-mod","46","174279","0.0-46.0","74012","","","","","","triplet","1156.0999999940395","","","","2","stimuli/face_lowercase.png","stimuli/face_uppercase.png","stimuli/stim005_animate_bird_1.png","42"
"html-button-response-mod","47","177189","0.0-47.0","74012","","","","","","triplet","2408.5999999940395","","","","0","stimuli/stim014_inanimate_boats_2.png","stimuli/stim002_animate_fish_2.png","stimuli/stim011_animate_face_3.png","43"
"html-button-response-mod","48","184070","0.0-48.0","74012","","","","","","triplet","6377.79999999702","","","","0","stimuli/stim005_animate_bird_1.png","stimuli/bird_uppercase.png","stimuli/bird_lowercase.png","44"
"html-button-response-mod","49","186756","0.0-49.0","74012","","","","","","triplet","2177.2999999970198","","","","2","stimuli/stim001_animate_fish_1.png","stimuli/fish_lowercase.png","stimuli/boats_lowercase.png","45"
"html-button-response-mod","50","190605","0.0-50.0","74012","","","","","","triplet","3345.9000000059605","","","","0","stimuli/stim002_animate_fish_2.png","stimuli/tree_uppercase.png","stimuli/tree_lowercase.png","46"
"html-button-response-mod","51","193895","0.0-51.0","74012","","","","","","triplet","2788.5999999940395","","","","0","stimuli/tools_lowercase.png","stimuli/stim020_inanimate_tree_4.png","stimuli/face_lowercase.png","47"
"html-button-response-mod","52","196925","0.0-52.0","74012","","","","","","triplet","2521.0999999940395","","","","1","stimuli/fish_uppercase.png","stimuli/stim015_inanimate_boats_3.png","stimuli/stim007_animate_bird_3.png","48"
"html-button-response-mod","53","199646","0.0-53.0","74012","","","","","","triplet","2215.7999999970198","","","","2","stimuli/stim001_animate_fish_1.png","stimuli/stim012_animate_face_4.png","stimuli/tree_uppercase.png","49"
"html-button-response","54","201549","0.0-54.0","74012","","","","","","break","1401.6000000089407","<p>BREAK</p><p>Take a break for as long as you need</p><p>Click the button to continue</p>","0","","","","","",""
"html-button-response-mod","55","203904","0.0-55.0","74012","","","","","","triplet","2353.7999999970198","","","","0","stimuli/tree_uppercase.png","stimuli/stim022_inanimate_tools_2.png","stimuli/tools_lowercase.png","50"
"html-button-response-mod","56","206262","0.0-56.0","74012","","","","","","triplet","1853.7000000029802","","","","0","stimuli/face_lowercase.png","stimuli/fish_lowercase.png","stimuli/stim002_animate_fish_2.png","51"
"html-button-response-mod","57","208472","0.0-57.0","74012","","","","","","triplet","1708.2000000029802","","","","1","stimuli/stim004_animate_fish_4.png","stimuli/face_lowercase.png","stimuli/stim006_animate_bird_2.png","52"
"html-button-response-mod","58","211102","0.0-58.0","74012","","","","","","triplet","2125.300000011921","","","","1","stimuli/stim010_animate_face_2.png","stimuli/tree_lowercase.png","stimuli/stim003_animate_fish_3.png","53"
"html-button-response-mod","59","212795","0.0-59.0","74012","","","","","","triplet","1191.6000000089407","","","","1","stimuli/stim002_animate_fish_2.png","stimuli/stim024_inanimate_tools_4.png","stimuli/stim011_animate_face_3.png","54"
"html-button-response-mod","60","214459","0.0-60.0","74012","","","","","","triplet","1162.699999988079","","","","0","stimuli/stim013_inanimate_boats_1.png","stimuli/stim009_animate_face_1.png","stimuli/stim001_animate_fish_1.png","55"
"html-button-response-mod","61","216304","0.0-61.0","74012","","","","","","triplet","1344.199999988079","","","","0","stimuli/stim024_inanimate_tools_4.png","stimuli/stim018_inanimate_tree_2.png","stimuli/stim004_animate_fish_4.png","56"
"html-button-response-mod","62","217738","0.0-62.0","74012","","","","","","triplet","931.8999999910593","","","","1","stimuli/stim007_animate_bird_3.png","stimuli/stim024_inanimate_tools_4.png","stimuli/stim020_inanimate_tree_4.png","57"
"html-button-response-mod","63","219751","0.0-63.0","74012","","","","","","triplet","1512.5","","","","1","stimuli/stim013_inanimate_boats_1.png","stimuli/face_lowercase.png","stimuli/stim016_inanimate_boats_4.png","58"
"html-button-response-mod","64","221849","0.0-64.0","74012","","","","","","triplet","1593.5999999940395","","","","1","stimuli/tools_uppercase.png","stimuli/stim017_inanimate_tree_1.png","stimuli/stim021_inanimate_tools_1.png","59"
"html-button-response-mod","65","223748","0.0-65.0","74012","","","","","","triplet","1397.5","","","","2","stimuli/stim019_inanimate_tree_3.png","stimuli/tree_lowercase.png","stimuli/stim012_animate_face_4.png","60"
"html-button-response-mod","66","225384","0.0-66.0","74012","","","","","","triplet","1134.0999999940395","","","","2","stimuli/bird_lowercase.png","stimuli/stim002_animate_fish_2.png","stimuli/stim013_inanimate_boats_1.png","61"
"html-button-response-mod","67","227138","0.0-67.0","74012","","","","","","triplet","1252.7999999970198","","","","2","stimuli/stim007_animate_bird_3.png","stimuli/bird_uppercase.png","stimuli/face_lowercase.png","62"
"html-button-response-mod","68","230151","0.0-68.0","74012","","","","","","triplet","2508.7000000029802","","","","0","stimuli/bird_uppercase.png","stimuli/stim004_animate_fish_4.png","stimuli/fish_lowercase.png","63"
"html-button-response-mod","69","232670","0.0-69.0","74012","","","","","","triplet","2012.3999999910593","","","","0","stimuli/stim014_inanimate_boats_2.png","stimuli/face_lowercase.png","stimuli/stim012_animate_face_4.png","64"
"html-button-response-mod","70","237979","0.0-70.0","74012","","","","","","triplet","4799.5","","","","0","stimuli/stim021_inanimate_tools_1.png","stimuli/fish_uppercase.png","stimuli/stim012_animate_face_4.png","65"
"html-button-response-mod","71","240214","0.0-71.0","74012","","","","","","triplet","1734","","","","0","stimuli/tools_lowercase.png","stimuli/stim003_animate_fish_3.png","stimuli/face_uppercase.png","66"
"html-button-response-mod","72","254101","0.0-72.0","74012","","","","","","triplet","13384","","","","2","stimuli/stim013_inanimate_boats_1.png","stimuli/stim023_inanimate_tools_3.png","stimuli/tree_uppercase.png","67"
"html-button-response-mod","73","255655","0.0-73.0","74012","","","","","","triplet","1045.4000000059605","","","","2","stimuli/stim006_animate_bird_2.png","stimuli/bird_uppercase.png","stimuli/stim020_inanimate_tree_4.png","68"
"html-button-response-mod","74","257181","0.0-74.0","74012","","","","","","triplet","1018.5","","","","2","stimuli/stim001_animate_fish_1.png","stimuli/stim018_inanimate_tree_2.png","stimuli/stim013_inanimate_boats_1.png","69"
"html-button-response-mod","75","259324","0.0-75.0","74012","","","","","","triplet","1642.2000000029802","","","","2","stimuli/stim014_inanimate_boats_2.png","stimuli/tools_uppercase.png","stimuli/stim018_inanimate_tree_2.png","70"
"html-button-response-mod","76","260680","0.0-76.0","74012","","","","","","triplet","854.2999999970198","","","","2","stimuli/stim006_animate_bird_2.png","stimuli/stim008_animate_bird_4.png","stimuli/stim010_animate_face_2.png","71"
"html-button-response-mod","77","262618","0.0-77.0","74012","","","","","","triplet","1433.7000000029802","","","","2","stimuli/bird_uppercase.png","stimuli/stim004_animate_fish_4.png","stimuli/stim010_animate_face_2.png","72"
"html-button-response-mod","78","264750","0.0-78.0","74012","","","","","","triplet","1631.2000000029802","","","","2","stimuli/stim007_animate_bird_3.png","stimuli/tree_uppercase.png","stimuli/boats_lowercase.png","73"
"html-button-response-mod","79","266454","0.0-79.0","74012","","","","","","triplet","1202.4000000059605","","","","0","stimuli/stim015_inanimate_boats_3.png","stimuli/stim006_animate_bird_2.png","stimuli/stim009_animate_face_1.png","74"
"html-button-response-mod","80","267972","0.0-80.0","74012","","","","","","triplet","1017","","","","2","stimuli/stim019_inanimate_tree_3.png","stimuli/stim004_animate_fish_4.png","stimuli/tools_uppercase.png","75"
"html-button-response-mod","81","270519","0.0-81.0","74012","","","","","","triplet","2031.2999999970198","","","","0","stimuli/stim004_animate_fish_4.png","stimuli/stim011_animate_face_3.png","stimuli/stim012_animate_face_4.png","76"
"html-button-response-mod","82","272524","0.0-82.0","74012","","","","","","triplet","1503.7999999970198","","","","2","stimuli/stim024_inanimate_tools_4.png","stimuli/stim013_inanimate_boats_1.png","stimuli/stim001_animate_fish_1.png","77"
"html-button-response-mod","83","274546","0.0-83.0","74012","","","","","","triplet","1518.7000000029802","","","","2","stimuli/face_uppercase.png","stimuli/stim017_inanimate_tree_1.png","stimuli/stim014_inanimate_boats_2.png","78"
"html-button-response-mod","84","276423","0.0-84.0","74012","","","","","","triplet","1375.8999999910593","","","","2","stimuli/tools_uppercase.png","stimuli/stim021_inanimate_tools_1.png","stimuli/stim005_animate_bird_1.png","79"
"html-button-response-mod","85","278514","0.0-85.0","74012","","","","","","triplet","1589.699999988079","","","","1","stimuli/fish_uppercase.png","stimuli/stim014_inanimate_boats_2.png","stimuli/stim020_inanimate_tree_4.png","80"
"html-button-response-mod","86","280268","0.0-86.0","74012","","","","","","triplet","1252.0999999940395","","","","1","stimuli/stim007_animate_bird_3.png","stimuli/tools_lowercase.png","stimuli/fish_lowercase.png","81"
"html-button-response-mod","87","282279","0.0-87.0","74012","","","","","","triplet","1509.2000000029802","","","","1","stimuli/stim024_inanimate_tools_4.png","stimuli/fish_uppercase.png","stimuli/boats_uppercase.png","82"
"html-button-response-mod","88","284963","0.0-88.0","74012","","","","","","triplet","2170.7999999970198","","","","2","stimuli/stim008_animate_bird_4.png","stimuli/face_uppercase.png","stimuli/tools_uppercase.png","83"
"html-button-response-mod","89","288159","0.0-89.0","74012","","","","","","triplet","2687.2999999970198","","","","1","stimuli/bird_lowercase.png","stimuli/stim015_inanimate_boats_3.png","stimuli/tree_uppercase.png","84"
"html-button-response-mod","90","290189","0.0-90.0","74012","","","","","","triplet","1529.3999999910593","","","","0","stimuli/tree_lowercase.png","stimuli/fish_uppercase.png","stimuli/stim008_animate_bird_4.png","85"
"html-button-response-mod","91","293657","0.0-91.0","74012","","","","","","triplet","2965.9000000059605","","","","1","stimuli/stim020_inanimate_tree_4.png","stimuli/boats_lowercase.png","stimuli/stim004_animate_fish_4.png","86"
"html-button-response-mod","92","297871","0.0-92.0","74012","","","","","","triplet","3711.7999999970198","","","","2","stimuli/tree_lowercase.png","stimuli/stim018_inanimate_tree_2.png","stimuli/tools_uppercase.png","87"
"html-button-response-mod","93","300167","0.0-93.0","74012","","","","","","triplet","1785.7000000029802","","","","0","stimuli/fish_uppercase.png","stimuli/boats_lowercase.png","stimuli/stim021_inanimate_tools_1.png","88"
"html-button-response-mod","94","302117","0.0-94.0","74012","","","","","","triplet","1439.7999999970198","","","","0","stimuli/tools_uppercase.png","stimuli/fish_lowercase.png","stimuli/stim020_inanimate_tree_4.png","89"
"html-button-response-mod","95","303825","0.0-95.0","74012","","","","","","triplet","1199.1000000089407","","","","2","stimuli/stim005_animate_bird_1.png","stimuli/face_lowercase.png","stimuli/stim022_inanimate_tools_2.png","90"
"html-button-response-mod","96","306567","0.0-96.0","74012","","","","","","triplet","2231","","","","0","stimuli/boats_uppercase.png","stimuli/face_uppercase.png","stimuli/fish_uppercase.png","91"
"html-button-response-mod","97","309882","0.0-97.0","74012","","","","","","triplet","2813.7999999970198","","","","2","stimuli/tools_lowercase.png","stimuli/stim015_inanimate_boats_3.png","stimuli/face_uppercase.png","92"
"html-button-response-mod","98","311270","0.0-98.0","74012","","","","","","triplet","876","","","","1","stimuli/stim012_animate_face_4.png","stimuli/stim016_inanimate_boats_4.png","stimuli/stim011_animate_face_3.png","93"
"html-button-response-mod","99","313838","0.0-99.0","74012","","","","","","triplet","2061.2999999970198","","","","2","stimuli/boats_lowercase.png","stimuli/stim014_inanimate_boats_2.png","stimuli/stim023_inanimate_tools_3.png","94"
"html-button-response-mod","100","315433","0.0-100.0","74012","","","","","","triplet","1091.3999999910593","","","","0","stimuli/stim015_inanimate_boats_3.png","stimuli/stim003_animate_fish_3.png","stimuli/stim002_animate_fish_2.png","95"
"html-button-response-mod","101","317589","0.0-101.0","74012","","","","","","triplet","1653.8999999910593","","","","0","stimuli/tools_uppercase.png","stimuli/stim020_inanimate_tree_4.png","stimuli/face_uppercase.png","96"
"html-button-response-mod","102","319392","0.0-102.0","74012","","","","","","triplet","1300.6000000089407","","","","2","stimuli/stim004_animate_fish_4.png","stimuli/stim017_inanimate_tree_1.png","stimuli/boats_lowercase.png","97"
"html-button-response-mod","103","321215","0.0-103.0","74012","","","","","","triplet","1321.2000000029802","","","","2","stimuli/stim019_inanimate_tree_3.png","stimuli/stim005_animate_bird_1.png","stimuli/stim015_inanimate_boats_3.png","98"
"html-button-response-mod","104","323241","0.0-104.0","74012","","","","","","triplet","1525.4000000059605","","","","0","stimuli/stim009_animate_face_1.png","stimuli/fish_lowercase.png","stimuli/stim001_animate_fish_1.png","99"
"html-button-response","105","324530","0.0-105.0","74012","","","","","","break","787","<p>BREAK</p><p>Take a break for as long as you need</p><p>Click the button to continue</p>","0","","","","","",""
"html-button-response-mod","106","325690","0.0-106.0","74012","","","","","","triplet","1159.199999988079","","","","2","stimuli/stim008_animate_bird_4.png","stimuli/stim004_animate_fish_4.png","stimuli/stim020_inanimate_tree_4.png","100"
"html-button-response-mod","107","327349","0.0-107.0","74012","","","","","","triplet","1158.6000000089407","","","","0","stimuli/boats_lowercase.png","stimuli/stim005_animate_bird_1.png","stimuli/stim018_inanimate_tree_2.png","101"
"html-button-response-mod","108","330146","0.0-108.0","74012","","","","","","triplet","2295.2999999970198","","","","1","stimuli/stim016_inanimate_boats_4.png","stimuli/stim007_animate_bird_3.png","stimuli/boats_lowercase.png","102"
"html-button-response-mod","109","332391","0.0-109.0","74012","","","","","","triplet","1736.4000000059605","","","","0","stimuli/stim007_animate_bird_3.png","stimuli/tools_lowercase.png","stimuli/stim021_inanimate_tools_1.png","103"
"html-button-response-mod","110","335508","0.0-110.0","74012","","","","","","triplet","2610.7999999970198","","","","0","stimuli/stim014_inanimate_boats_2.png","stimuli/stim011_animate_face_3.png","stimuli/stim001_animate_fish_1.png","104"
"html-button-response-mod","111","337459","0.0-111.0","74012","","","","","","triplet","1449.800000011921","","","","1","stimuli/stim009_animate_face_1.png","stimuli/stim017_inanimate_tree_1.png","stimuli/stim001_animate_fish_1.png","105"
"html-button-response-mod","112","338966","0.0-112.0","74012","","","","","","triplet","1002.7000000029802","","","","2","stimuli/stim007_animate_bird_3.png","stimuli/stim003_animate_fish_3.png","stimuli/bird_lowercase.png","106"
"html-button-response-mod","113","341198","0.0-113.0","74012","","","","","","triplet","1730.2999999970198","","","","0","stimuli/stim011_animate_face_3.png","stimuli/stim018_inanimate_tree_2.png","stimuli/stim019_inanimate_tree_3.png","107"
"html-button-response-mod","114","343260","0.0-114.0","74012","","","","","","triplet","1561.2999999970198","","","","0","stimuli/stim014_inanimate_boats_2.png","stimuli/stim017_inanimate_tree_1.png","stimuli/fish_uppercase.png","108"
"html-button-response-mod","115","345686","0.0-115.0","74012","","","","","","triplet","1924.6000000089407","","","","2","stimuli/stim001_animate_fish_1.png","stimuli/stim017_inanimate_tree_1.png","stimuli/stim016_inanimate_boats_4.png","109"
"html-button-response-mod","116","347621","0.0-116.0","74012","","","","","","triplet","1433.8999999910593","","","","1","stimuli/stim007_animate_bird_3.png","stimuli/fish_uppercase.png","stimuli/stim006_animate_bird_2.png","110"
"html-button-response-mod","117","349687","0.0-117.0","74012","","","","","","triplet","1564.1000000089407","","","","2","stimuli/stim007_animate_bird_3.png","stimuli/stim006_animate_bird_2.png","stimuli/boats_uppercase.png","111"
"html-button-response-mod","118","352071","0.0-118.0","74012","","","","","","triplet","1875.2000000029802","","","","1","stimuli/stim014_inanimate_boats_2.png","stimuli/tree_lowercase.png","stimuli/stim016_inanimate_boats_4.png","112"
"html-button-response-mod","119","353993","0.0-119.0","74012","","","","","","triplet","1417.1000000089407","","","","1","stimuli/stim018_inanimate_tree_2.png","stimuli/stim023_inanimate_tools_3.png","stimuli/stim003_animate_fish_3.png","113"
"html-button-response-mod","120","356564","0.0-120.0","74012","","","","","","triplet","2069.7999999970198","","","","0","stimuli/fish_lowercase.png","stimuli/tree_uppercase.png","stimuli/tree_lowercase.png","114"
"html-button-response-mod","121","358884","0.0-121.0","74012","","","","","","triplet","1804.7999999970198","","","","1","stimuli/stim015_inanimate_boats_3.png","stimuli/stim019_inanimate_tree_3.png","stimuli/tools_uppercase.png","115"
"html-button-response-mod","122","360539","0.0-122.0","74012","","","","","","triplet","1138.7999999970198","","","","1","stimuli/tools_lowercase.png","stimuli/stim004_animate_fish_4.png","stimuli/tools_uppercase.png","116"
"html-button-response-mod","123","362371","0.0-123.0","74012","","","","","","triplet","1316.3999999910593","","","","0","stimuli/tools_uppercase.png","stimuli/stim004_animate_fish_4.png","stimuli/stim001_animate_fish_1.png","117"
"html-button-response-mod","124","364042","0.0-124.0","74012","","","","","","triplet","1169.8999999910593","","","","1","stimuli/stim002_animate_fish_2.png","stimuli/stim021_inanimate_tools_1.png","stimuli/tree_uppercase.png","118"
"html-button-response-mod","125","367898","0.0-125.0","74012","","","","","","triplet","3354.9000000059605","","","","2","stimuli/stim016_inanimate_boats_4.png","stimuli/stim023_inanimate_tools_3.png","stimuli/tree_uppercase.png","119"
"html-button-response-mod","126","370675","0.0-126.0","74012","","","","","","triplet","2275.2000000029802","","","","0","stimuli/boats_lowercase.png","stimuli/face_uppercase.png","stimuli/stim005_animate_bird_1.png","120"
"html-button-response-mod","127","375020","0.0-127.0","74012","","","","","","triplet","3842.4000000059605","","","","0","stimuli/boats_lowercase.png","stimuli/stim006_animate_bird_2.png","stimuli/stim008_animate_bird_4.png","121"
"html-button-response-mod","128","376924","0.0-128.0","74012","","","","","","triplet","1395.300000011921","","","","2","stimuli/stim013_inanimate_boats_1.png","stimuli/boats_lowercase.png","stimuli/stim003_animate_fish_3.png","122"
"html-button-response-mod","129","378676","0.0-129.0","74012","","","","","","triplet","1235.5","","","","2","stimuli/boats_uppercase.png","stimuli/stim016_inanimate_boats_4.png","stimuli/stim005_animate_bird_1.png","123"
"html-button-response-mod","130","380010","0.0-130.0","74012","","","","","","triplet","822.7000000029802","","","","1","stimuli/stim004_animate_fish_4.png","stimuli/face_lowercase.png","stimuli/stim001_animate_fish_1.png","124"
"html-button-response-mod","131","381235","0.0-131.0","74012","","","","","","triplet","712","","","","2","stimuli/stim003_animate_fish_3.png","stimuli/stim005_animate_bird_1.png","stimuli/stim009_animate_face_1.png","125"
"html-button-response-mod","132","386006","0.0-132.0","74012","","","","","","triplet","4259.20000000298","","","","1","stimuli/stim016_inanimate_boats_4.png","stimuli/stim023_inanimate_tools_3.png","stimuli/boats_lowercase.png","126"
"html-button-response-mod","133","387873","0.0-133.0","74012","","","","","","triplet","1364.9000000059605","","","","0","stimuli/stim016_inanimate_boats_4.png","stimuli/stim007_animate_bird_3.png","stimuli/bird_lowercase.png","127"
"html-button-response-mod","134","389384","0.0-134.0","74012","","","","","","triplet","1008.7999999970198","","","","0","stimuli/stim024_inanimate_tools_4.png","stimuli/stim019_inanimate_tree_3.png","stimuli/stim018_inanimate_tree_2.png","128"
"html-button-response-mod","135","391278","0.0-135.0","74012","","","","","","triplet","1387.6000000089407","","","","1","stimuli/fish_uppercase.png","stimuli/stim024_inanimate_tools_4.png","stimuli/stim005_animate_bird_1.png","129"
"html-button-response-mod","136","392919","0.0-136.0","74012","","","","","","triplet","1138.5","","","","2","stimuli/face_uppercase.png","stimuli/stim010_animate_face_2.png","stimuli/stim020_inanimate_tree_4.png","130"
"html-button-response-mod","137","394855","0.0-137.0","74012","","","","","","triplet","1430.3999999910593","","","","1","stimuli/face_uppercase.png","stimuli/stim017_inanimate_tree_1.png","stimuli/fish_uppercase.png","131"
"html-button-response-mod","138","403258","0.0-138.0","74012","","","","","","triplet","7899.29999999702","","","","0","stimuli/stim014_inanimate_boats_2.png","stimuli/stim008_animate_bird_4.png","stimuli/stim019_inanimate_tree_3.png","132"
"html-button-response-mod","139","406378","0.0-139.0","74012","","","","","","triplet","2616","","","","2","stimuli/stim002_animate_fish_2.png","stimuli/stim017_inanimate_tree_1.png","stimuli/tools_uppercase.png","133"
"html-button-response-mod","140","407853","0.0-140.0","74012","","","","","","triplet","973.5","","","","1","stimuli/bird_uppercase.png","stimuli/stim022_inanimate_tools_2.png","stimuli/stim003_animate_fish_3.png","134"
"html-button-response-mod","141","410163","0.0-141.0","74012","","","","","","triplet","1797.4000000059605","","","","1","stimuli/boats_lowercase.png","stimuli/fish_uppercase.png","stimuli/tools_lowercase.png","135"
"html-button-response-mod","142","413694","0.0-142.0","74012","","","","","","triplet","3029.4000000059605","","","","0","stimuli/stim010_animate_face_2.png","stimuli/face_uppercase.png","stimuli/face_lowercase.png","136"
"html-button-response-mod","143","417652","0.0-143.0","74012","","","","","","triplet","3456.3999999910593","","","","1","stimuli/stim011_animate_face_3.png","stimuli/boats_lowercase.png","stimuli/stim002_animate_fish_2.png","137"
"html-button-response-mod","144","421255","0.0-144.0","74012","","","","","","triplet","3092.7000000029802","","","","1","stimuli/stim023_inanimate_tools_3.png","stimuli/stim020_inanimate_tree_4.png","stimuli/tools_uppercase.png","138"
"html-button-response-mod","145","422947","0.0-145.0","74012","","","","","","triplet","1190.3999999910593","","","","2","stimuli/stim004_animate_fish_4.png","stimuli/tree_lowercase.png","stimuli/stim015_inanimate_boats_3.png","139"
"html-button-response-mod","146","424345","0.0-146.0","74012","","","","","","triplet","896.7000000029802","","","","2","stimuli/stim001_animate_fish_1.png","stimuli/stim007_animate_bird_3.png","stimuli/stim019_inanimate_tree_3.png","140"
"html-button-response-mod","147","426664","0.0-147.0","74012","","","","","","triplet","1815","","","","2","stimuli/bird_lowercase.png","stimuli/bird_uppercase.png","stimuli/tree_uppercase.png","141"
"html-button-response-mod","148","428345","0.0-148.0","74012","","","","","","triplet","1179.1000000089407","","","","1","stimuli/stim012_animate_face_4.png","stimuli/stim005_animate_bird_1.png","stimuli/face_uppercase.png","142"
"html-button-response-mod","149","430072","0.0-149.0","74012","","","","","","triplet","1225.2000000029802","","","","2","stimuli/stim016_inanimate_boats_4.png","stimuli/boats_lowercase.png","stimuli/stim001_animate_fish_1.png","143"
"html-button-response-mod","150","431502","0.0-150.0","74012","","","","","","triplet","927.7999999970198","","","","2","stimuli/stim006_animate_bird_2.png","stimuli/stim008_animate_bird_4.png","stimuli/stim021_inanimate_tools_1.png","144"
"html-button-response-mod","151","433621","0.0-151.0","74012","","","","","","triplet","1617","","","","2","stimuli/stim008_animate_bird_4.png","stimuli/stim011_animate_face_3.png","stimuli/boats_uppercase.png","145"
"html-button-response-mod","152","435306","0.0-152.0","74012","","","","","","triplet","1183.5","","","","0","stimuli/fish_lowercase.png","stimuli/boats_uppercase.png","stimuli/stim015_inanimate_boats_3.png","146"
"html-button-response-mod","153","437153","0.0-153.0","74012","","","","","","triplet","1345.0999999940395","","","","2","stimuli/face_uppercase.png","stimuli/stim009_animate_face_1.png","stimuli/stim020_inanimate_tree_4.png","147"
"html-button-response-mod","154","439344","0.0-154.0","74012","","","","","","triplet","1689.5999999940395","","","","0","stimuli/stim018_inanimate_tree_2.png","stimuli/stim009_animate_face_1.png","stimuli/stim006_animate_bird_2.png","148"
"html-button-response-mod","155","441767","0.0-155.0","74012","","","","","","triplet","1922.7000000029802","","","","1","stimuli/tools_uppercase.png","stimuli/face_uppercase.png","stimuli/stim013_inanimate_boats_1.png","149"
"html-button-response","156","525233","0.0-156.0","74012","","","","","","break","82963.90000000596","<p>BREAK</p><p>Take a break for as long as you need</p><p>Click the button to continue</p>","0","","","","","",""
"html-button-response-mod","157","526691","0.0-157.0","74012","","","","","","triplet","1456.800000011921","","","","1","stimuli/stim003_animate_fish_3.png","stimuli/stim015_inanimate_boats_3.png","stimuli/tree_uppercase.png","150"
"html-button-response-mod","158","528417","0.0-158.0","74012","","","","","","triplet","1224.4000000059605","","","","0","stimuli/stim019_inanimate_tree_3.png","stimuli/stim015_inanimate_boats_3.png","stimuli/stim016_inanimate_boats_4.png","151"
"html-button-response-mod","159","530190","0.0-159.0","74012","","","","","","triplet","1269","","","","2","stimuli/stim018_inanimate_tree_2.png","stimuli/tree_lowercase.png","stimuli/face_lowercase.png","152"
"html-button-response-mod","160","532119","0.0-160.0","74012","","","","","","triplet","1427.5999999940395","","","","1","stimuli/stim011_animate_face_3.png","stimuli/stim003_animate_fish_3.png","stimuli/stim010_animate_face_2.png","153"
"html-button-response-mod","161","534217","0.0-161.0","74012","","","","","","triplet","1595.2999999970198","","","","0","stimuli/stim020_inanimate_tree_4.png","stimuli/stim011_animate_face_3.png","stimuli/fish_uppercase.png","154"
"html-button-response-mod","162","536765","0.0-162.0","74012","","","","","","triplet","2039.7999999970198","","","","2","stimuli/stim020_inanimate_tree_4.png","stimuli/face_lowercase.png","stimuli/boats_uppercase.png","155"
"html-button-response-mod","163","538864","0.0-163.0","74012","","","","","","triplet","1584.7999999970198","","","","2","stimuli/stim006_animate_bird_2.png","stimuli/stim010_animate_face_2.png","stimuli/boats_uppercase.png","156"
"html-button-response-mod","164","540722","0.0-164.0","74012","","","","","","triplet","1356.5","","","","0","stimuli/tools_lowercase.png","stimuli/stim011_animate_face_3.png","stimuli/face_lowercase.png","157"
"html-button-response-mod","165","542704","0.0-165.0","74012","","","","","","triplet","1477.699999988079","","","","2","stimuli/stim012_animate_face_4.png","stimuli/stim001_animate_fish_1.png","stimuli/stim020_inanimate_tree_4.png","158"
"html-button-response-mod","166","544159","0.0-166.0","74012","","","","","","triplet","949.8000000119209","","","","2","stimuli/stim001_animate_fish_1.png","stimuli/stim009_animate_face_1.png","stimuli/boats_lowercase.png","159"
"html-button-response-mod","167","545991","0.0-167.0","74012","","","","","","triplet","1325.0999999940395","","","","1","stimuli/face_lowercase.png","stimuli/stim020_inanimate_tree_4.png","stimuli/stim004_animate_fish_4.png","160"
"html-button-response-mod","168","547446","0.0-168.0","74012","","","","","","triplet","953.2000000029802","","","","1","stimuli/stim006_animate_bird_2.png","stimuli/tree_lowercase.png","stimuli/stim011_animate_face_3.png","161"
"html-button-response-mod","169","549649","0.0-169.0","74012","","","","","","triplet","1702.6000000089407","","","","0","stimuli/stim002_animate_fish_2.png","stimuli/boats_lowercase.png","stimuli/stim024_inanimate_tools_4.png","162"
"html-button-response-mod","170","551651","0.0-170.0","74012","","","","","","triplet","1495.5","","","","1","stimuli/stim001_animate_fish_1.png","stimuli/stim015_inanimate_boats_3.png","stimuli/bird_lowercase.png","163"
"html-button-response-mod","171","554850","0.0-171.0","74012","","","","","","triplet","2695.4000000059605","","","","2","stimuli/stim002_animate_fish_2.png","stimuli/fish_lowercase.png","stimuli/bird_uppercase.png","164"
"html-button-response-mod","172","556609","0.0-172.0","74012","","","","","","triplet","1256","","","","1","stimuli/stim007_animate_bird_3.png","stimuli/stim011_animate_face_3.png","stimuli/stim004_animate_fish_4.png","165"
"html-button-response-mod","173","558697","0.0-173.0","74012","","","","","","triplet","1585.7999999970198","","","","0","stimuli/boats_lowercase.png","stimuli/tools_uppercase.png","stimuli/tree_lowercase.png","166"
"html-button-response-mod","174","561276","0.0-174.0","74012","","","","","","triplet","2063","","","","2","stimuli/fish_lowercase.png","stimuli/stim002_animate_fish_2.png","stimuli/stim007_animate_bird_3.png","167"
"html-button-response-mod","175","563443","0.0-175.0","74012","","","","","","triplet","1665.5","","","","1","stimuli/stim009_animate_face_1.png","stimuli/tools_lowercase.png","stimuli/stim010_animate_face_2.png","168"
"html-button-response-mod","176","565365","0.0-176.0","74012","","","","","","triplet","1417.5","","","","1","stimuli/stim016_inanimate_boats_4.png","stimuli/stim017_inanimate_tree_1.png","stimuli/boats_uppercase.png","169"
"html-button-response-mod","177","567104","0.0-177.0","74012","","","","","","triplet","1237.2000000029802","","","","2","stimuli/tree_lowercase.png","stimuli/tree_uppercase.png","stimuli/stim005_animate_bird_1.png","170"
"html-button-response-mod","178","569776","0.0-178.0","74012","","","","","","triplet","2166.2999999970198","","","","2","stimuli/stim001_animate_fish_1.png","stimuli/tree_lowercase.png","stimuli/tools_lowercase.png","171"
"html-button-response-mod","179","571657","0.0-179.0","74012","","","","","","triplet","1373.8999999910593","","","","0","stimuli/tools_uppercase.png","stimuli/stim010_animate_face_2.png","stimuli/face_uppercase.png","172"
"html-button-response-mod","180","573791","0.0-180.0","74012","","","","","","triplet","1633.5","","","","2","stimuli/stim002_animate_fish_2.png","stimuli/fish_lowercase.png","stimuli/stim013_inanimate_boats_1.png","173"
"html-button-response-mod","181","575315","0.0-181.0","74012","","","","","","triplet","1021.9000000059605","","","","0","stimuli/stim023_inanimate_tools_3.png","stimuli/stim005_animate_bird_1.png","stimuli/stim020_inanimate_tree_4.png","174"
"html-button-response-mod","182","577313","0.0-182.0","74012","","","","","","triplet","1496.4000000059605","","","","2","stimuli/fish_uppercase.png","stimuli/stim002_animate_fish_2.png","stimuli/stim007_animate_bird_3.png","175"
"html-button-response-mod","183","579105","0.0-183.0","74012","","","","","","triplet","1290.2000000029802","","","","1","stimuli/tree_lowercase.png","stimuli/stim011_animate_face_3.png","stimuli/tree_uppercase.png","176"
"html-button-response-mod","184","581677","0.0-184.0","74012","","","","","","triplet","2070.2000000029802","","","","1","stimuli/bird_uppercase.png","stimuli/stim022_inanimate_tools_2.png","stimuli/stim010_animate_face_2.png","177"
"html-button-response-mod","185","583020","0.0-185.0","74012","","","","","","triplet","839.4000000059605","","","","1","stimuli/stim019_inanimate_tree_3.png","stimuli/bird_lowercase.png","stimuli/stim020_inanimate_tree_4.png","178"
"html-button-response-mod","186","584864","0.0-186.0","74012","","","","","","triplet","1327.0999999940395","","","","0","stimuli/stim008_animate_bird_4.png","stimuli/stim024_inanimate_tools_4.png","stimuli/tools_uppercase.png","179"
"html-button-response-mod","187","587589","0.0-187.0","74012","","","","","","triplet","2224","","","","0","stimuli/stim016_inanimate_boats_4.png","stimuli/fish_uppercase.png","stimuli/stim012_animate_face_4.png","180"
"html-button-response-mod","188","589959","0.0-188.0","74012","","","","","","triplet","1868.2000000029802","","","","1","stimuli/stim017_inanimate_tree_1.png","stimuli/boats_lowercase.png","stimuli/bird_uppercase.png","181"
"html-button-response-mod","189","591899","0.0-189.0","74012","","","","","","triplet","1438.800000011921","","","","1","stimuli/face_lowercase.png","stimuli/stim023_inanimate_tools_3.png","stimuli/stim004_animate_fish_4.png","182"
"html-button-response-mod","190","593525","0.0-190.0","74012","","","","","","triplet","1125.699999988079","","","","0","stimuli/stim013_inanimate_boats_1.png","stimuli/stim011_animate_face_3.png","stimuli/stim002_animate_fish_2.png","183"
"html-button-response-mod","191","595539","0.0-191.0","74012","","","","","","triplet","1512.7999999970198","","","","0","stimuli/boats_lowercase.png","stimuli/tree_lowercase.png","stimuli/stim009_animate_face_1.png","184"
"html-button-response-mod","192","597423","0.0-192.0","74012","","","","","","triplet","1382.5","","","","2","stimuli/stim012_animate_face_4.png","stimuli/stim003_animate_fish_3.png","stimuli/stim013_inanimate_boats_1.png","185"
"html-button-response-mod","193","599256","0.0-193.0","74012","","","","","","triplet","1331.9000000059605","","","","1","stimuli/stim013_inanimate_boats_1.png","stimuli/fish_uppercase.png","stimuli/stim015_inanimate_boats_3.png","186"
"html-button-response-mod","194","602365","0.0-194.0","74012","","","","","","triplet","2607.3999999910593","","","","2","stimuli/fish_uppercase.png","stimuli/fish_lowercase.png","stimuli/stim006_animate_bird_2.png","187"
"html-button-response-mod","195","606685","0.0-195.0","74012","","","","","","triplet","3809","","","","0","stimuli/tree_uppercase.png","stimuli/bird_lowercase.png","stimuli/face_lowercase.png","188"
"html-button-response-mod","196","609381","0.0-196.0","74012","","","","","","triplet","2194.7999999970198","","","","0","stimuli/tree_lowercase.png","stimuli/stim015_inanimate_boats_3.png","stimuli/boats_lowercase.png","189"
"html-button-response-mod","197","611287","0.0-197.0","74012","","","","","","triplet","1402.5999999940395","","","","2","stimuli/stim002_animate_fish_2.png","stimuli/face_lowercase.png","stimuli/boats_lowercase.png","190"
"html-button-response-mod","198","613020","0.0-198.0","74012","","","","","","triplet","1232.0999999940395","","","","0","stimuli/tools_lowercase.png","stimuli/fish_uppercase.png","stimuli/stim004_animate_fish_4.png","191"
"html-button-response-mod","199","617228","0.0-199.0","74012","","","","","","triplet","3707.199999988079","","","","1","stimuli/tree_uppercase.png","stimuli/tools_lowercase.png","stimuli/stim018_inanimate_tree_2.png","192"
"html-button-response-mod","200","619135","0.0-200.0","74012","","","","","","triplet","1405","","","","2","stimuli/stim008_animate_bird_4.png","stimuli/bird_lowercase.png","stimuli/stim009_animate_face_1.png","193"
"html-button-response-mod","201","621464","0.0-201.0","74012","","","","","","triplet","1827.300000011921","","","","0","stimuli/tools_lowercase.png","stimuli/fish_uppercase.png","stimuli/stim017_inanimate_tree_1.png","194"
"html-button-response-mod","202","623809","0.0-202.0","74012","","","","","","triplet","1843.3999999910593","","","","2","stimuli/tools_lowercase.png","stimuli/stim023_inanimate_tools_3.png","stimuli/stim011_animate_face_3.png","195"
"html-button-response-mod","203","625516","0.0-203.0","74012","","","","","","triplet","1205.6000000089407","","","","1","stimuli/stim001_animate_fish_1.png","stimuli/stim014_inanimate_boats_2.png","stimuli/bird_lowercase.png","196"
"html-button-response-mod","204","627540","0.0-204.0","74012","","","","","","triplet","1520.7999999970198","","","","1","stimuli/tools_lowercase.png","stimuli/stim018_inanimate_tree_2.png","stimuli/stim024_inanimate_tools_4.png","197"
"html-button-response-mod","205","630425","0.0-205.0","74012","","","","","","triplet","2384","","","","0","stimuli/face_lowercase.png","stimuli/stim009_animate_face_1.png","stimuli/stim011_animate_face_3.png","198"
"html-button-response-mod","206","632332","0.0-206.0","74012","","","","","","triplet","1404.0999999940395","","","","1","stimuli/face_uppercase.png","stimuli/stim004_animate_fish_4.png","stimuli/face_lowercase.png","199"
"html-button-response","207","633983","0.0-207.0","74012","","","","","","break","1149.9000000059605","<p>BREAK</p><p>Take a break for as long as you need</p><p>Click the button to continue</p>","0","","","","","",""
"html-button-response-mod","208","636069","0.0-208.0","74012","","","","","","triplet","2085.7999999970198","","","","2","stimuli/stim002_animate_fish_2.png","stimuli/face_uppercase.png","stimuli/stim023_inanimate_tools_3.png","200"
"html-button-response-mod","209","638108","0.0-209.0","74012","","","","","","triplet","1537.7000000029802","","","","0","stimuli/stim018_inanimate_tree_2.png","stimuli/fish_lowercase.png","stimuli/stim001_animate_fish_1.png","201"
"html-button-response-mod","210","641553","0.0-210.0","74012","","","","","","triplet","2938.8999999910593","","","","1","stimuli/stim008_animate_bird_4.png","stimuli/face_lowercase.png","stimuli/stim003_animate_fish_3.png","202"
"html-button-response-mod","211","647200","0.0-211.0","74012","","","","","","triplet","5141","","","","0","stimuli/stim019_inanimate_tree_3.png","stimuli/stim006_animate_bird_2.png","stimuli/stim010_animate_face_2.png","203"
"html-button-response-mod","212","649225","0.0-212.0","74012","","","","","","triplet","1523.5999999940395","","","","1","stimuli/fish_lowercase.png","stimuli/stim013_inanimate_boats_1.png","stimuli/stim005_animate_bird_1.png","204"
"html-button-response-mod","213","651705","0.0-213.0","74012","","","","","","triplet","1972.3999999910593","","","","1","stimuli/fish_uppercase.png","stimuli/tree_uppercase.png","stimuli/fish_lowercase.png","205"
"html-button-response-mod","214","653435","0.0-214.0","74012","","","","","","triplet","1228","","","","1","stimuli/stim009_animate_face_1.png","stimuli/stim015_inanimate_boats_3.png","stimuli/fish_lowercase.png","206"
"html-button-response-mod","215","655438","0.0-215.0","74012","","","","","","triplet","1495.800000011921","","","","0","stimuli/stim007_animate_bird_3.png","stimuli/stim017_inanimate_tree_1.png","stimuli/tree_uppercase.png","207"
"html-button-response-mod","216","657425","0.0-216.0","74012","","","","","","triplet","1474","","","","0","stimuli/stim018_inanimate_tree_2.png","stimuli/stim013_inanimate_boats_1.png","stimuli/tools_lowercase.png","208"
"html-button-response-mod","217","659766","0.0-217.0","74012","","","","","","triplet","1825.0999999940395","","","","1","stimuli/tree_lowercase.png","stimuli/boats_uppercase.png","stimuli/tree_uppercase.png","209"
"html-button-response-mod","218","662768","0.0-218.0","74012","","","","","","triplet","2500.2999999970198","","","","1","stimuli/tree_lowercase.png","stimuli/stim022_inanimate_tools_2.png","stimuli/bird_lowercase.png","210"
"html-button-response-mod","219","668895","0.0-219.0","74012","","","","","","triplet","5617.29999999702","","","","2","stimuli/face_uppercase.png","stimuli/stim012_animate_face_4.png","stimuli/bird_lowercase.png","211"
"html-button-response-mod","220","676733","0.0-220.0","74012","","","","","","triplet","7334.70000000298","","","","0","stimuli/boats_lowercase.png","stimuli/stim011_animate_face_3.png","stimuli/stim001_animate_fish_1.png","212"
"html-button-response-mod","221","684326","0.0-221.0","74012","","","","","","triplet","7091.300000011921","","","","0","stimuli/stim019_inanimate_tree_3.png","stimuli/face_lowercase.png","stimuli/stim009_animate_face_1.png","213"
"html-button-response-mod","222","686219","0.0-222.0","74012","","","","","","triplet","1391.4000000059605","","","","0","stimuli/tools_lowercase.png","stimuli/stim010_animate_face_2.png","stimuli/stim003_animate_fish_3.png","214"
"html-button-response-mod","223","688272","0.0-223.0","74012","","","","","","triplet","1550.1000000089407","","","","0","stimuli/stim017_inanimate_tree_1.png","stimuli/stim003_animate_fish_3.png","stimuli/fish_lowercase.png","215"
"html-button-response-mod","224","689739","0.0-224.0","74012","","","","","","triplet","950.2999999970198","","","","2","stimuli/stim020_inanimate_tree_4.png","stimuli/stim018_inanimate_tree_2.png","stimuli/stim021_inanimate_tools_1.png","216"
"html-button-response-mod","225","692075","0.0-225.0","74012","","","","","","triplet","1825.9000000059605","","","","1","stimuli/boats_lowercase.png","stimuli/stim007_animate_bird_3.png","stimuli/stim024_inanimate_tools_4.png","217"
"html-button-response-mod","226","697005","0.0-226.0","74012","","","","","","triplet","4427.4000000059605","","","","0","stimuli/stim013_inanimate_boats_1.png","stimuli/tree_lowercase.png","stimuli/bird_uppercase.png","218"
"html-button-response-mod","227","702877","0.0-227.0","74012","","","","","","triplet","5366.9000000059605","","","","1","stimuli/stim003_animate_fish_3.png","stimuli/stim010_animate_face_2.png","stimuli/fish_uppercase.png","219"
"html-button-response-mod","228","705424","0.0-228.0","74012","","","","","","triplet","2035.4000000059605","","","","2","stimuli/stim015_inanimate_boats_3.png","stimuli/stim016_inanimate_boats_4.png","stimuli/stim008_animate_bird_4.png","220"
"html-button-response-mod","229","709892","0.0-229.0","74012","","","","","","triplet","3960.7000000029802","","","","1","stimuli/stim020_inanimate_tree_4.png","stimuli/stim004_animate_fish_4.png","stimuli/tree_uppercase.png","221"
"html-button-response-mod","230","743704","0.0-230.0","74012","","","","","","triplet","33310.70000000298","","","","2","stimuli/stim008_animate_bird_4.png","stimuli/stim001_animate_fish_1.png","stimuli/face_lowercase.png","222"
"html-button-response-mod","231","778951","0.0-231.0","74012","","","","","","triplet","34745.20000000298","","","","2","stimuli/stim017_inanimate_tree_1.png","stimuli/stim012_animate_face_4.png","stimuli/tools_uppercase.png","223"
"html-button-response-mod","232","782983","0.0-232.0","74012","","","","","","triplet","3518.7000000029802","","","","2","stimuli/stim011_animate_face_3.png","stimuli/face_lowercase.png","stimuli/fish_lowercase.png","224"
"html-button-response-mod","233","785933","0.0-233.0","74012","","","","","","triplet","2448.2999999970198","","","","1","stimuli/stim023_inanimate_tools_3.png","stimuli/stim017_inanimate_tree_1.png","stimuli/tools_lowercase.png","225"
"html-button-response-mod","234","788669","0.0-234.0","74012","","","","","","triplet","2235.699999988079","","","","0","stimuli/stim015_inanimate_boats_3.png","stimuli/bird_uppercase.png","stimuli/stim018_inanimate_tree_2.png","226"
"html-button-response-mod","235","791009","0.0-235.0","74012","","","","","","triplet","1838.300000011921","","","","1","stimuli/stim019_inanimate_tree_3.png","stimuli/stim006_animate_bird_2.png","stimuli/stim017_inanimate_tree_1.png","227"
"html-button-response-mod","236","793414","0.0-236.0","74012","","","","","","triplet","1895.5999999940395","","","","2","stimuli/stim013_inanimate_boats_1.png","stimuli/boats_lowercase.png","stimuli/stim004_animate_fish_4.png","228"
"html-button-response-mod","237","856032","0.0-237.0","74012","","","","","","triplet","62107","","","","0","stimuli/tools_lowercase.png","stimuli/bird_lowercase.png","stimuli/bird_uppercase.png","229"
"html-button-response-mod","238","859759","0.0-238.0","74012","","","","","","triplet","3220.9000000059605","","","","2","stimuli/stim004_animate_fish_4.png","stimuli/stim001_animate_fish_1.png","stimuli/tree_lowercase.png","230"
"html-button-response-mod","239","864643","0.0-239.0","74012","","","","","","triplet","4382.600000008941","","","","1","stimuli/bird_uppercase.png","stimuli/stim017_inanimate_tree_1.png","stimuli/fish_lowercase.png","231"
"html-button-response-mod","240","889669","0.0-240.0","74012","","","","","","triplet","24524.20000000298","","","","1","stimuli/stim006_animate_bird_2.png","stimuli/face_lowercase.png","stimuli/bird_lowercase.png","232"
"html-button-response-mod","241","892651","0.0-241.0","74012","","","","","","triplet","2480.300000011921","","","","1","stimuli/stim007_animate_bird_3.png","stimuli/tools_uppercase.png","stimuli/bird_uppercase.png","233"
"html-button-response-mod","242","917152","0.0-242.0","74012","","","","","","triplet","23993.70000000298","","","","0","stimuli/stim018_inanimate_tree_2.png","stimuli/stim010_animate_face_2.png","stimuli/stim012_animate_face_4.png","234"
"html-button-response-mod","243","919851","0.0-243.0","74012","","","","","","triplet","2198","","","","0","stimuli/stim014_inanimate_boats_2.png","stimuli/stim007_animate_bird_3.png","stimuli/stim018_inanimate_tree_2.png","235"
"html-button-response-mod","244","923091","0.0-244.0","74012","","","","","","triplet","2732","","","","2","stimuli/fish_uppercase.png","stimuli/stim008_animate_bird_4.png","stimuli/face_lowercase.png","236"
"html-button-response-mod","245","925726","0.0-245.0","74012","","","","","","triplet","2133.3999999910593","","","","1","stimuli/bird_lowercase.png","stimuli/boats_uppercase.png","stimuli/stim017_inanimate_tree_1.png","237"
"html-button-response-mod","246","927630","0.0-246.0","74012","","","","","","triplet","1403.7000000029802","","","","1","stimuli/stim024_inanimate_tools_4.png","stimuli/fish_uppercase.png","stimuli/stim023_inanimate_tools_3.png","238"
"html-button-response-mod","247","928986","0.0-247.0","74012","","","","","","triplet","854.3999999910593","","","","1","stimuli/stim006_animate_bird_2.png","stimuli/stim017_inanimate_tree_1.png","stimuli/stim005_animate_bird_1.png","239"
"html-button-response-mod","248","931061","0.0-248.0","74012","","","","","","triplet","1573.5","","","","1","stimuli/tree_uppercase.png","stimuli/stim022_inanimate_tools_2.png","stimuli/stim020_inanimate_tree_4.png","240"
"html-button-response-mod","249","933100","0.0-249.0","74012","","","","","","triplet","1537.5","","","","2","stimuli/stim020_inanimate_tree_4.png","stimuli/stim011_animate_face_3.png","stimuli/stim024_inanimate_tools_4.png","241"
"html-button-response-mod","250","935046","0.0-250.0","74012","","","","","","triplet","1443.9000000059605","","","","2","stimuli/stim006_animate_bird_2.png","stimuli/face_lowercase.png","stimuli/stim014_inanimate_boats_2.png","242"
"html-button-response-mod","251","937435","0.0-251.0","74012","","","","","","triplet","1887.4000000059605","","","","0","stimuli/tools_lowercase.png","stimuli/fish_lowercase.png","stimuli/bird_lowercase.png","243"
"html-button-response-mod","252","939108","0.0-252.0","74012","","","","","","triplet","1171.8999999910593","","","","2","stimuli/face_lowercase.png","stimuli/stim006_animate_bird_2.png","stimuli/stim016_inanimate_boats_4.png","244"
"html-button-response-mod","253","963309","0.0-253.0","74012","","","","","","triplet","23690.70000000298","","","","1","stimuli/stim012_animate_face_4.png","stimuli/tools_lowercase.png","stimuli/stim006_animate_bird_2.png","245"
"html-button-response-mod","254","965630","0.0-254.0","74012","","","","","","triplet","1810.9000000059605","","","","1","stimuli/tree_uppercase.png","stimuli/stim012_animate_face_4.png","stimuli/bird_uppercase.png","246"
"html-button-response-mod","255","983396","0.0-255.0","74012","","","","","","triplet","17264.90000000596","","","","1","stimuli/stim005_animate_bird_1.png","stimuli/tree_uppercase.png","stimuli/bird_uppercase.png","247"
"html-button-response-mod","256","984899","0.0-256.0","74012","","","","","","triplet","1000.2999999970198","","","","1","stimuli/stim008_animate_bird_4.png","stimuli/stim019_inanimate_tree_3.png","stimuli/stim005_animate_bird_1.png","248"
"html-button-response-mod","257","987247","0.0-257.0","74012","","","","","","triplet","1846.7000000029802","","","","1","stimuli/stim016_inanimate_boats_4.png","stimuli/stim018_inanimate_tree_2.png","stimuli/stim014_inanimate_boats_2.png","249"
"html-button-response","258","988679","0.0-258.0","74012","","","","","","break","915.5999999940395","<p>BREAK</p><p>Take a break for as long as you need</p><p>Click the button to continue</p>","0","","","","","",""
"html-button-response-mod","259","990549","0.0-259.0","74012","","","","","","triplet","1869.5","","","","1","stimuli/stim019_inanimate_tree_3.png","stimuli/stim002_animate_fish_2.png","stimuli/tree_uppercase.png","250"
"html-button-response-mod","260","993317","0.0-260.0","74012","","","","","","triplet","2266.5","","","","1","stimuli/stim002_animate_fish_2.png","stimuli/tree_uppercase.png","stimuli/stim009_animate_face_1.png","251"
"html-button-response-mod","261","995900","0.0-261.0","74012","","","","","","triplet","2072.5","","","","0","stimuli/tree_uppercase.png","stimuli/stim007_animate_bird_3.png","stimuli/stim004_animate_fish_4.png","252"
"html-button-response-mod","262","998245","0.0-262.0","74012","","","","","","triplet","1835.7999999970198","","","","2","stimuli/face_uppercase.png","stimuli/stim010_animate_face_2.png","stimuli/bird_uppercase.png","253"
"html-button-response-mod","263","1000046","0.0-263.0","74012","","","","","","triplet","1298.7000000029802","","","","0","stimuli/stim005_animate_bird_1.png","stimuli/stim017_inanimate_tree_1.png","stimuli/stim018_inanimate_tree_2.png","254"
"html-button-response-mod","264","1003174","0.0-264.0","74012","","","","","","triplet","2617.7999999970198","","","","1","stimuli/tree_uppercase.png","stimuli/stim014_inanimate_boats_2.png","stimuli/stim003_animate_fish_3.png","255"
"html-button-response-mod","265","1006262","0.0-265.0","74012","","","","","","triplet","2573.2000000029802","","","","2","stimuli/bird_lowercase.png","stimuli/stim001_animate_fish_1.png","stimuli/stim019_inanimate_tree_3.png","256"
"html-button-response-mod","266","1013454","0.0-266.0","74012","","","","","","triplet","6690.600000008941","","","","1","stimuli/stim009_animate_face_1.png","stimuli/tools_uppercase.png","stimuli/stim017_inanimate_tree_1.png","257"
"html-button-response-mod","267","1015235","0.0-267.0","74012","","","","","","triplet","1279.5999999940395","","","","1","stimuli/boats_lowercase.png","stimuli/stim006_animate_bird_2.png","stimuli/stim013_inanimate_boats_1.png","258"
"html-button-response-mod","268","1016532","0.0-268.0","74012","","","","","","triplet","796","","","","2","stimuli/stim006_animate_bird_2.png","stimuli/stim005_animate_bird_1.png","stimuli/tree_lowercase.png","259"
"html-button-response-mod","269","1018077","0.0-269.0","74012","","","","","","triplet","1042.2999999970198","","","","0","stimuli/stim022_inanimate_tools_2.png","stimuli/stim017_inanimate_tree_1.png","stimuli/tree_uppercase.png","260"
"html-button-response-mod","270","1022031","0.0-270.0","74012","","","","","","triplet","3453.5","","","","0","stimuli/boats_lowercase.png","stimuli/stim010_animate_face_2.png","stimuli/stim003_animate_fish_3.png","261"
"html-button-response-mod","271","1024323","0.0-271.0","74012","","","","","","triplet","1790.7999999970198","","","","2","stimuli/stim013_inanimate_boats_1.png","stimuli/stim021_inanimate_tools_1.png","stimuli/bird_uppercase.png","262"
"html-button-response-mod","272","1026678","0.0-272.0","74012","","","","","","triplet","1854.1000000089407","","","","1","stimuli/tools_lowercase.png","stimuli/stim009_animate_face_1.png","stimuli/stim022_inanimate_tools_2.png","263"
"html-button-response-mod","273","1029150","0.0-273.0","74012","","","","","","triplet","1970.0999999940395","","","","2","stimuli/stim006_animate_bird_2.png","stimuli/fish_uppercase.png","stimuli/tree_uppercase.png","264"
"html-button-response-mod","274","1031295","0.0-274.0","74012","","","","","","triplet","1643.7000000029802","","","","0","stimuli/tools_lowercase.png","stimuli/stim007_animate_bird_3.png","stimuli/stim010_animate_face_2.png","265"
"html-button-response-mod","275","1033088","0.0-275.0","74012","","","","","","triplet","1290.7000000029802","","","","2","stimuli/fish_lowercase.png","stimuli/stim012_animate_face_4.png","stimuli/stim021_inanimate_tools_1.png","266"
"html-button-response-mod","276","1035716","0.0-276.0","74012","","","","","","triplet","2113.699999988079","","","","1","stimuli/boats_uppercase.png","stimuli/stim013_inanimate_boats_1.png","stimuli/boats_lowercase.png","267"
"html-button-response-mod","277","1047484","0.0-277.0","74012","","","","","","triplet","11267.199999988079","","","","1","stimuli/bird_uppercase.png","stimuli/stim019_inanimate_tree_3.png","stimuli/fish_lowercase.png","268"
"html-button-response-mod","278","1049272","0.0-278.0","74012","","","","","","triplet","1285.9000000059605","","","","2","stimuli/face_uppercase.png","stimuli/stim007_animate_bird_3.png","stimuli/stim021_inanimate_tools_1.png","269"
"html-button-response-mod","279","1053487","0.0-279.0","74012","","","","","","triplet","3713.6000000089407","","","","2","stimuli/bird_uppercase.png","stimuli/stim009_animate_face_1.png","stimuli/tree_uppercase.png","270"
"html-button-response-mod","280","1055792","0.0-280.0","74012","","","","","","triplet","1803.5","","","","2","stimuli/stim012_animate_face_4.png","stimuli/stim020_inanimate_tree_4.png","stimuli/stim023_inanimate_tools_3.png","271"
"html-button-response-mod","281","1057765","0.0-281.0","74012","","","","","","triplet","1461.5","","","","1","stimuli/stim008_animate_bird_4.png","stimuli/stim016_inanimate_boats_4.png","stimuli/tree_uppercase.png","272"
"html-button-response-mod","282","1059755","0.0-282.0","74012","","","","","","triplet","1488.7999999970198","","","","0","stimuli/stim007_animate_bird_3.png","stimuli/stim024_inanimate_tools_4.png","stimuli/stim016_inanimate_boats_4.png","273"
"html-button-response-mod","283","1061495","0.0-283.0","74012","","","","","","triplet","1238.5","","","","1","stimuli/bird_uppercase.png","stimuli/stim020_inanimate_tree_4.png","stimuli/bird_lowercase.png","274"
"html-button-response-mod","284","1064985","0.0-284.0","74012","","","","","","triplet","2975.8999999910593","","","","1","stimuli/tools_uppercase.png","stimuli/face_lowercase.png","stimuli/boats_lowercase.png","275"
"html-button-response-mod","285","1066760","0.0-285.0","74012","","","","","","triplet","1266.2999999970198","","","","0","stimuli/stim014_inanimate_boats_2.png","stimuli/stim011_animate_face_3.png","stimuli/stim006_animate_bird_2.png","276"
"html-button-response-mod","286","1071171","0.0-286.0","74012","","","","","","triplet","3910.2000000029802","","","","2","stimuli/bird_lowercase.png","stimuli/stim001_animate_fish_1.png","stimuli/tree_uppercase.png","277"
"html-button-response-mod","287","1076669","0.0-287.0","74012","","","","","","triplet","4996.29999999702","","","","2","stimuli/stim003_animate_fish_3.png","stimuli/face_lowercase.png","stimuli/tree_lowercase.png","278"
"html-button-response-mod","288","1081048","0.0-288.0","74012","","","","","","triplet","3877.2999999970198","","","","1","stimuli/stim007_animate_bird_3.png","stimuli/stim024_inanimate_tools_4.png","stimuli/stim003_animate_fish_3.png","279"
"html-button-response-mod","289","1082954","0.0-289.0","74012","","","","","","triplet","1398.2000000029802","","","","0","stimuli/stim005_animate_bird_1.png","stimuli/tools_lowercase.png","stimuli/stim021_inanimate_tools_1.png","280"
"html-button-response-mod","290","1087045","0.0-290.0","74012","","","","","","triplet","3588","","","","1","stimuli/stim015_inanimate_boats_3.png","stimuli/stim017_inanimate_tree_1.png","stimuli/stim023_inanimate_tools_3.png","281"
"html-button-response-mod","291","1090067","0.0-291.0","74012","","","","","","triplet","2520.2999999970198","","","","0","stimuli/stim024_inanimate_tools_4.png","stimuli/stim006_animate_bird_2.png","stimuli/stim009_animate_face_1.png","282"
"html-button-response-mod","292","1091622","0.0-292.0","74012","","","","","","triplet","1042.5","","","","0","stimuli/tools_uppercase.png","stimuli/stim016_inanimate_boats_4.png","stimuli/stim013_inanimate_boats_1.png","283"
"html-button-response-mod","293","1094537","0.0-293.0","74012","","","","","","triplet","2400.5","","","","2","stimuli/stim006_animate_bird_2.png","stimuli/stim019_inanimate_tree_3.png","stimuli/stim024_inanimate_tools_4.png","284"
"html-button-response-mod","294","1097080","0.0-294.0","74012","","","","","","triplet","2040.9000000059605","","","","2","stimuli/stim012_animate_face_4.png","stimuli/stim003_animate_fish_3.png","stimuli/stim019_inanimate_tree_3.png","285"
"html-button-response-mod","295","1099198","0.0-295.0","74012","","","","","","triplet","1616.5999999940395","","","","1","stimuli/face_lowercase.png","stimuli/stim014_inanimate_boats_2.png","stimuli/stim009_animate_face_1.png","286"
"html-button-response-mod","296","1101736","0.0-296.0","74012","","","","","","triplet","2035.199999988079","","","","0","stimuli/stim014_inanimate_boats_2.png","stimuli/stim001_animate_fish_1.png","stimuli/tree_uppercase.png","287"
"html-button-response-mod","297","1103623","0.0-297.0","74012","","","","","","triplet","1384.7000000029802","","","","0","stimuli/stim009_animate_face_1.png","stimuli/stim019_inanimate_tree_3.png","stimuli/tree_lowercase.png","288"
"html-button-response-mod","298","1106186","0.0-298.0","74012","","","","","","triplet","2059.6000000089407","","","","1","stimuli/stim023_inanimate_tools_3.png","stimuli/fish_uppercase.png","stimuli/boats_lowercase.png","289"
"html-button-response-mod","299","1109494","0.0-299.0","74012","","","","","","triplet","2806","","","","0","stimuli/stim014_inanimate_boats_2.png","stimuli/bird_uppercase.png","stimuli/stim002_animate_fish_2.png","290"
"html-button-response-mod","300","1110969","0.0-300.0","74012","","","","","","triplet","973.8999999910593","","","","2","stimuli/fish_lowercase.png","stimuli/stim002_animate_fish_2.png","stimuli/stim010_animate_face_2.png","291"
"html-button-response-mod","301","1113047","0.0-301.0","74012","","","","","","triplet","1576.4000000059605","","","","1","stimuli/stim020_inanimate_tree_4.png","stimuli/stim021_inanimate_tools_1.png","stimuli/stim003_animate_fish_3.png","292"
"html-button-response-mod","302","1115097","0.0-302.0","74012","","","","","","triplet","1547.2000000029802","","","","0","stimuli/boats_lowercase.png","stimuli/stim019_inanimate_tree_3.png","stimuli/bird_lowercase.png","293"
"html-button-response-mod","303","1116870","0.0-303.0","74012","","","","","","triplet","1271.699999988079","","","","0","stimuli/stim019_inanimate_tree_3.png","stimuli/stim003_animate_fish_3.png","stimuli/bird_lowercase.png","294"
"html-button-response-mod","304","1118587","0.0-304.0","74012","","","","","","triplet","1216.1000000089407","","","","2","stimuli/stim007_animate_bird_3.png","stimuli/stim019_inanimate_tree_3.png","stimuli/stim023_inanimate_tools_3.png","295"
"html-button-response-mod","305","1121255","0.0-305.0","74012","","","","","","triplet","2152.5","","","","2","stimuli/tools_uppercase.png","stimuli/stim016_inanimate_boats_4.png","stimuli/stim003_animate_fish_3.png","296"
"html-button-response-mod","306","1123153","0.0-306.0","74012","","","","","","triplet","1396.5999999940395","","","","1","stimuli/stim011_animate_face_3.png","stimuli/stim014_inanimate_boats_2.png","stimuli/tree_uppercase.png","297"
"html-button-response-mod","307","1125712","0.0-307.0","74012","","","","","","triplet","2057.2000000029802","","","","1","stimuli/boats_lowercase.png","stimuli/bird_uppercase.png","stimuli/tools_uppercase.png","298"
"html-button-response-mod","308","1128438","0.0-308.0","74012","","","","","","triplet","2223.7999999970198","","","","2","stimuli/face_uppercase.png","stimuli/fish_lowercase.png","stimuli/stim023_inanimate_tools_3.png","299"
"html-button-response","309","1232399","0.0-309.0","74012","","","","","","break","103460.09999999404","<p>BREAK</p><p>Take a break for as long as you need</p><p>Click the button to continue</p>","0","","","","","",""
"html-button-response-mod","310","1233659","0.0-310.0","74012","","","","","","triplet","1258.7999999970198","","","","0","stimuli/stim007_animate_bird_3.png","stimuli/stim023_inanimate_tools_3.png","stimuli/stim021_inanimate_tools_1.png","300"
"html-button-response-mod","311","1237700","0.0-311.0","74012","","","","","","triplet","3539.1000000089407","","","","2","stimuli/stim015_inanimate_boats_3.png","stimuli/boats_uppercase.png","stimuli/fish_uppercase.png","301"
"html-button-response-mod","312","1239505","0.0-312.0","74012","","","","","","triplet","1302.9000000059605","","","","0","stimuli/stim018_inanimate_tree_2.png","stimuli/stim006_animate_bird_2.png","stimuli/stim004_animate_fish_4.png","302"
"html-button-response-mod","313","1244331","0.0-313.0","74012","","","","","","triplet","4325.5","","","","0","stimuli/stim024_inanimate_tools_4.png","stimuli/face_uppercase.png","stimuli/stim003_animate_fish_3.png","303"
"html-button-response-mod","314","1259333","0.0-314.0","74012","","","","","","triplet","14498.79999999702","","","","1","stimuli/fish_uppercase.png","stimuli/stim013_inanimate_boats_1.png","stimuli/stim017_inanimate_tree_1.png","304"
"html-button-response-mod","315","1261729","0.0-315.0","74012","","","","","","triplet","1895.7000000029802","","","","1","stimuli/stim005_animate_bird_1.png","stimuli/stim018_inanimate_tree_2.png","stimuli/stim004_animate_fish_4.png","305"
"html-button-response-mod","316","1264119","0.0-316.0","74012","","","","","","triplet","1888.7000000029802","","","","0","stimuli/tools_uppercase.png","stimuli/stim018_inanimate_tree_2.png","stimuli/stim012_animate_face_4.png","306"
"html-button-response-mod","317","1267206","0.0-317.0","74012","","","","","","triplet","2583.2999999970198","","","","1","stimuli/face_uppercase.png","stimuli/boats_lowercase.png","stimuli/bird_lowercase.png","307"
"html-button-response-mod","318","1270928","0.0-318.0","74012","","","","","","triplet","3219.2000000029802","","","","2","stimuli/stim006_animate_bird_2.png","stimuli/stim010_animate_face_2.png","stimuli/stim020_inanimate_tree_4.png","308"
"html-button-response-mod","319","1275199","0.0-319.0","74012","","","","","","triplet","3769.5999999940395","","","","1","stimuli/tools_uppercase.png","stimuli/stim004_animate_fish_4.png","stimuli/stim014_inanimate_boats_2.png","309"
"html-button-response-mod","320","1277268","0.0-320.0","74012","","","","","","triplet","1563.9000000059605","","","","0","stimuli/stim016_inanimate_boats_4.png","stimuli/stim007_animate_bird_3.png","stimuli/stim018_inanimate_tree_2.png","310"
"html-button-response-mod","321","1280159","0.0-321.0","74012","","","","","","triplet","2388.2000000029802","","","","0","stimuli/stim005_animate_bird_1.png","stimuli/stim019_inanimate_tree_3.png","stimuli/tree_lowercase.png","311"
"html-button-response-mod","322","1283003","0.0-322.0","74012","","","","","","triplet","2337","","","","0","stimuli/stim016_inanimate_boats_4.png","stimuli/stim011_animate_face_3.png","stimuli/bird_uppercase.png","312"
"html-button-response-mod","323","1292551","0.0-323.0","74012","","","","","","triplet","9043.40000000596","","","","1","stimuli/stim001_animate_fish_1.png","stimuli/stim023_inanimate_tools_3.png","stimuli/face_lowercase.png","313"
"html-button-response-mod","324","1323412","0.0-324.0","74012","","","","","","triplet","30360.40000000596","","","","1","stimuli/stim002_animate_fish_2.png","stimuli/stim023_inanimate_tools_3.png","stimuli/stim009_animate_face_1.png","314"
"html-button-response-mod","325","1326475","0.0-325.0","74012","","","","","","triplet","2561.1000000089407","","","","2","stimuli/stim011_animate_face_3.png","stimuli/bird_uppercase.png","stimuli/tools_lowercase.png","315"
"html-button-response-mod","326","1651938","0.0-326.0","74012","","","","","","triplet","324961.39999999106","","","","1","stimuli/stim015_inanimate_boats_3.png","stimuli/stim010_animate_face_2.png","stimuli/stim024_inanimate_tools_4.png","316"
"html-button-response-mod","327","1653763","0.0-327.0","74012","","","","","","triplet","1322.2999999970198","","","","0","stimuli/stim020_inanimate_tree_4.png","stimuli/boats_uppercase.png","stimuli/stim016_inanimate_boats_4.png","317"
"html-button-response-mod","328","1655656","0.0-328.0","74012","","","","","","triplet","1386.2000000029802","","","","0","stimuli/stim015_inanimate_boats_3.png","stimuli/fish_lowercase.png","stimuli/fish_uppercase.png","318"
"html-button-response-mod","329","1658514","0.0-329.0","74012","","","","","","triplet","2348.2000000029802","","","","1","stimuli/stim023_inanimate_tools_3.png","stimuli/bird_uppercase.png","stimuli/boats_uppercase.png","319"
"html-button-response-mod","330","1661164","0.0-330.0","74012","","","","","","triplet","2148.800000011921","","","","2","stimuli/tools_uppercase.png","stimuli/stim022_inanimate_tools_2.png","stimuli/stim016_inanimate_boats_4.png","320"
"html-button-response-mod","331","1665141","0.0-331.0","74012","","","","","","triplet","3473.2000000029802","","","","0","stimuli/stim022_inanimate_tools_2.png","stimuli/stim001_animate_fish_1.png","stimuli/stim018_inanimate_tree_2.png","321"
"html-button-response-mod","332","1666898","0.0-332.0","74012","","","","","","triplet","1243.5999999940395","","","","0","stimuli/stim021_inanimate_tools_1.png","stimuli/face_lowercase.png","stimuli/stim008_animate_bird_4.png","322"
"html-button-response-mod","333","1668650","0.0-333.0","74012","","","","","","triplet","1238.0999999940395","","","","2","stimuli/stim019_inanimate_tree_3.png","stimuli/stim002_animate_fish_2.png","stimuli/stim021_inanimate_tools_1.png","323"
"html-button-response-mod","334","1671103","0.0-334.0","74012","","","","","","triplet","1950.800000011921","","","","1","stimuli/stim003_animate_fish_3.png","stimuli/stim020_inanimate_tree_4.png","stimuli/stim012_animate_face_4.png","324"
"html-button-response-mod","335","1673110","0.0-335.0","74012","","","","","","triplet","1505.5999999940395","","","","0","stimuli/face_lowercase.png","stimuli/stim005_animate_bird_1.png","stimuli/bird_uppercase.png","325"
"html-button-response-mod","336","1678233","0.0-336.0","74012","","","","","","triplet","4621.100000008941","","","","0","stimuli/stim011_animate_face_3.png","stimuli/stim022_inanimate_tools_2.png","stimuli/stim016_inanimate_boats_4.png","326"
"html-button-response-mod","337","1702914","0.0-337.0","74012","","","","","","triplet","24178.10000000894","","","","1","stimuli/fish_uppercase.png","stimuli/stim016_inanimate_boats_4.png","stimuli/stim001_animate_fish_1.png","327"
"html-button-response-mod","338","1706158","0.0-338.0","74012","","","","","","triplet","2742.4000000059605","","","","0","stimuli/tree_lowercase.png","stimuli/fish_lowercase.png","stimuli/stim003_animate_fish_3.png","328"
"html-button-response-mod","339","1707788","0.0-339.0","74012","","","","","","triplet","1120.7999999970198","","","","1","stimuli/stim008_animate_bird_4.png","stimuli/tools_lowercase.png","stimuli/stim003_animate_fish_3.png","329"
"html-button-response-mod","340","1719982","0.0-340.0","74012","","","","","","triplet","11691.79999999702","","","","1","stimuli/stim007_animate_bird_3.png","stimuli/tools_lowercase.png","stimuli/stim004_animate_fish_4.png","330"
"html-button-response-mod","341","1721585","0.0-341.0","74012","","","","","","triplet","1101","","","","2","stimuli/stim007_animate_bird_3.png","stimuli/stim005_animate_bird_1.png","stimuli/boats_uppercase.png","331"
"html-button-response-mod","342","1728893","0.0-342.0","74012","","","","","","triplet","6799.600000008941","","","","0","stimuli/stim005_animate_bird_1.png","stimuli/tree_uppercase.png","stimuli/stim018_inanimate_tree_2.png","332"
"html-button-response-mod","343","1731225","0.0-343.0","74012","","","","","","triplet","1830.2000000029802","","","","0","stimuli/stim012_animate_face_4.png","stimuli/stim013_inanimate_boats_1.png","stimuli/stim014_inanimate_boats_2.png","333"
"html-button-response-mod","344","1739784","0.0-344.0","74012","","","","","","triplet","8046.300000011921","","","","0","stimuli/boats_lowercase.png","stimuli/tree_lowercase.png","stimuli/stim003_animate_fish_3.png","334"
"html-button-response-mod","345","1744092","0.0-345.0","74012","","","","","","triplet","3792.8999999910593","","","","1","stimuli/fish_lowercase.png","stimuli/tree_lowercase.png","stimuli/stim009_animate_face_1.png","335"
"html-button-response-mod","346","1745993","0.0-346.0","74012","","","","","","triplet","1386.0999999940395","","","","1","stimuli/stim020_inanimate_tree_4.png","stimuli/face_lowercase.png","stimuli/stim019_inanimate_tree_3.png","336"
"html-button-response-mod","347","1751728","0.0-347.0","74012","","","","","","triplet","5233.70000000298","","","","2","stimuli/stim021_inanimate_tools_1.png","stimuli/stim024_inanimate_tools_4.png","stimuli/stim009_animate_face_1.png","337"
"html-button-response-mod","348","1762620","0.0-348.0","74012","","","","","","triplet","10389.09999999404","","","","1","stimuli/stim006_animate_bird_2.png","stimuli/stim021_inanimate_tools_1.png","stimuli/fish_lowercase.png","338"
"html-button-response-mod","349","1772106","0.0-349.0","74012","","","","","","triplet","8979.10000000894","","","","2","stimuli/boats_lowercase.png","stimuli/tools_lowercase.png","stimuli/stim003_animate_fish_3.png","339"
"html-button-response-mod","350","1775415","0.0-350.0","74012","","","","","","triplet","2800.5999999940395","","","","2","stimuli/boats_uppercase.png","stimuli/stim013_inanimate_boats_1.png","stimuli/bird_uppercase.png","340"
"html-button-response-mod","351","1783466","0.0-351.0","74012","","","","","","triplet","7549.20000000298","","","","2","stimuli/boats_lowercase.png","stimuli/stim022_inanimate_tools_2.png","stimuli/fish_uppercase.png","341"
"html-button-response-mod","352","1805183","0.0-352.0","74012","","","","","","triplet","21215.90000000596","","","","0","stimuli/boats_lowercase.png","stimuli/stim003_animate_fish_3.png","stimuli/fish_uppercase.png","342"
"html-button-response-mod","353","1821294","0.0-353.0","74012","","","","","","triplet","15601","","","","2","stimuli/stim011_animate_face_3.png","stimuli/face_lowercase.png","stimuli/stim016_inanimate_boats_4.png","343"
"html-button-response-mod","354","1824433","0.0-354.0","74012","","","","","","triplet","2638.0999999940395","","","","2","stimuli/stim008_animate_bird_4.png","stimuli/fish_uppercase.png","stimuli/stim015_inanimate_boats_3.png","344"
"html-button-response-mod","355","1826898","0.0-355.0","74012","","","","","","triplet","1948.1000000089407","","","","1","stimuli/stim014_inanimate_boats_2.png","stimuli/face_uppercase.png","stimuli/stim023_inanimate_tools_3.png","345"
"html-button-response-mod","356","1828855","0.0-356.0","74012","","","","","","triplet","1454.5","","","","1","stimuli/tree_uppercase.png","stimuli/face_uppercase.png","stimuli/tree_lowercase.png","346"
"html-button-response-mod","357","1830854","0.0-357.0","74012","","","","","","triplet","1498.699999988079","","","","0","stimuli/boats_uppercase.png","stimuli/face_lowercase.png","stimuli/stim004_animate_fish_4.png","347"
"html-button-response-mod","358","1836005","0.0-358.0","74012","","","","","","triplet","4649.9000000059605","","","","1","stimuli/stim014_inanimate_boats_2.png","stimuli/bird_lowercase.png","stimuli/stim023_inanimate_tools_3.png","348"
"html-button-response-mod","359","1837679","0.0-359.0","74012","","","","","","triplet","1172.0999999940395","","","","2","stimuli/stim010_animate_face_2.png","stimuli/face_lowercase.png","stimuli/stim024_inanimate_tools_4.png","349"
"html-button-response","360","1838954","0.0-360.0","74012","","","","","","break","773.8999999910593","<p>BREAK</p><p>Take a break for as long as you need</p><p>Click the button to continue</p>","0","","","","","",""
"html-button-response-mod","361","1842588","0.0-361.0","74012","","","","","","triplet","3633.5999999940395","","","","0","stimuli/tree_lowercase.png","stimuli/face_lowercase.png","stimuli/stim002_animate_fish_2.png","350"
"html-button-response-mod","362","1844783","0.0-362.0","74012","","","","","","triplet","1685.7999999970198","","","","2","stimuli/stim021_inanimate_tools_1.png","stimuli/stim022_inanimate_tools_2.png","stimuli/stim003_animate_fish_3.png","351"
"html-button-response-mod","363","1851698","0.0-363.0","74012","","","","","","triplet","6413.4000000059605","","","","0","stimuli/stim007_animate_bird_3.png","stimuli/stim012_animate_face_4.png","stimuli/face_uppercase.png","352"
"html-button-response-mod","364","1883232","0.0-364.0","74012","","","","","","triplet","31029","","","","1","stimuli/stim010_animate_face_2.png","stimuli/tools_uppercase.png","stimuli/stim018_inanimate_tree_2.png","353"
"html-button-response-mod","365","1885819","0.0-365.0","74012","","","","","","triplet","2086.7000000029802","","","","1","stimuli/stim013_inanimate_boats_1.png","stimuli/stim022_inanimate_tools_2.png","stimuli/stim016_inanimate_boats_4.png","354"
"html-button-response-mod","366","1901957","0.0-366.0","74012","","","","","","triplet","15636.199999988079","","","","1","stimuli/tree_lowercase.png","stimuli/fish_uppercase.png","stimuli/stim018_inanimate_tree_2.png","355"
"html-button-response-mod","367","1934788","0.0-367.0","74012","","","","","","triplet","32327","","","","1","stimuli/stim002_animate_fish_2.png","stimuli/stim015_inanimate_boats_3.png","stimuli/stim012_animate_face_4.png","356"
"html-button-response-mod","368","1936643","0.0-368.0","74012","","","","","","triplet","1353.1000000089407","","","","1","stimuli/tree_lowercase.png","stimuli/stim023_inanimate_tools_3.png","stimuli/stim018_inanimate_tree_2.png","357"
"html-button-response-mod","369","1938450","0.0-369.0","74012","","","","","","triplet","1297.6000000089407","","","","2","stimuli/stim010_animate_face_2.png","stimuli/stim007_animate_bird_3.png","stimuli/stim019_inanimate_tree_3.png","358"
"html-button-response-mod","370","1940528","0.0-370.0","74012","","","","","","triplet","1571.7999999970198","","","","1","stimuli/tools_lowercase.png","stimuli/stim021_inanimate_tools_1.png","stimuli/bird_lowercase.png","359"
"html-button-response-mod","371","1942450","0.0-371.0","74012","","","","","","triplet","1417.800000011921","","","","1","stimuli/tools_lowercase.png","stimuli/stim005_animate_bird_1.png","stimuli/stim013_inanimate_boats_1.png","360"
"html-button-response-mod","372","1945761","0.0-372.0","74012","","","","","","triplet","2810.2000000029802","","","","1","stimuli/stim016_inanimate_boats_4.png","stimuli/tree_uppercase.png","stimuli/stim024_inanimate_tools_4.png","361"
"html-button-response-mod","373","1950055","0.0-373.0","74012","","","","","","triplet","3789","","","","2","stimuli/stim017_inanimate_tree_1.png","stimuli/bird_lowercase.png","stimuli/boats_lowercase.png","362"
"html-button-response-mod","374","1973201","0.0-374.0","74012","","","","","","triplet","22631.60000000894","","","","1","stimuli/stim017_inanimate_tree_1.png","stimuli/tools_uppercase.png","stimuli/stim003_animate_fish_3.png","363"
"html-button-response-mod","375","1975776","0.0-375.0","74012","","","","","","triplet","2072.7000000029802","","","","1","stimuli/stim001_animate_fish_1.png","stimuli/stim018_inanimate_tree_2.png","stimuli/stim002_animate_fish_2.png","364"
"html-button-response-mod","376","1978233","0.0-376.0","74012","","","","","","triplet","1945.7000000029802","","","","2","stimuli/stim016_inanimate_boats_4.png","stimuli/boats_uppercase.png","stimuli/tools_lowercase.png","365"
"html-button-response-mod","377","1979712","0.0-377.0","74012","","","","","","triplet","977.4000000059605","","","","1","stimuli/stim005_animate_bird_1.png","stimuli/tools_lowercase.png","stimuli/stim008_animate_bird_4.png","366"
"html-button-response-mod","378","1982297","0.0-378.0","74012","","","","","","triplet","2081.7999999970198","","","","0","stimuli/boats_uppercase.png","stimuli/face_uppercase.png","stimuli/stim001_animate_fish_1.png","367"
"html-button-response-mod","379","1984595","0.0-379.0","74012","","","","","","triplet","1796.3999999910593","","","","1","stimuli/stim017_inanimate_tree_1.png","stimuli/stim023_inanimate_tools_3.png","stimuli/stim012_animate_face_4.png","368"
"html-button-response-mod","380","1995848","0.0-380.0","74012","","","","","","triplet","10745.199999988079","","","","0","stimuli/stim001_animate_fish_1.png","stimuli/stim016_inanimate_boats_4.png","stimuli/stim023_inanimate_tools_3.png","369"
"html-button-response-mod","381","2018056","0.0-381.0","74012","","","","","","triplet","21706.60000000894","","","","1","stimuli/stim023_inanimate_tools_3.png","stimuli/stim018_inanimate_tree_2.png","stimuli/boats_lowercase.png","370"
"html-button-response-mod","382","2020088","0.0-382.0","74012","","","","","","triplet","1529.9000000059605","","","","0","stimuli/stim024_inanimate_tools_4.png","stimuli/stim008_animate_bird_4.png","stimuli/stim001_animate_fish_1.png","371"
"html-button-response-mod","383","2022821","0.0-383.0","74012","","","","","","triplet","2230.5999999940395","","","","0","stimuli/tree_lowercase.png","stimuli/stim006_animate_bird_2.png","stimuli/bird_uppercase.png","372"
"html-button-response-mod","384","2025349","0.0-384.0","74012","","","","","","triplet","2026.699999988079","","","","0","stimuli/fish_uppercase.png","stimuli/stim021_inanimate_tools_1.png","stimuli/tools_lowercase.png","373"
"html-button-response-mod","385","2028302","0.0-385.0","74012","","","","","","triplet","2448","","","","2","stimuli/fish_lowercase.png","stimuli/stim007_animate_bird_3.png","stimuli/boats_uppercase.png","374"
"html-button-response-mod","386","2036691","0.0-386.0","74012","","","","","","triplet","7888.5","","","","2","stimuli/stim010_animate_face_2.png","stimuli/stim005_animate_bird_1.png","stimuli/boats_lowercase.png","375"
"html-button-response-mod","387","2040357","0.0-387.0","74012","","","","","","triplet","3164.4000000059605","","","","2","stimuli/bird_lowercase.png","stimuli/face_uppercase.png","stimuli/stim014_inanimate_boats_2.png","376"
"html-button-response-mod","388","2043388","0.0-388.0","74012","","","","","","triplet","2529.5","","","","0","stimuli/stim003_animate_fish_3.png","stimuli/tools_uppercase.png","stimuli/stim014_inanimate_boats_2.png","377"
"html-button-response-mod","389","2047651","0.0-389.0","74012","","","","","","triplet","3757.4000000059605","","","","2","stimuli/stim009_animate_face_1.png","stimuli/face_uppercase.png","stimuli/tree_uppercase.png","378"
"html-button-response-mod","390","2050847","0.0-390.0","74012","","","","","","triplet","2689.7000000029802","","","","2","stimuli/stim015_inanimate_boats_3.png","stimuli/tools_lowercase.png","stimuli/face_lowercase.png","379"
"html-button-response-mod","391","2053533","0.0-391.0","74012","","","","","","triplet","2171.8999999910593","","","","2","stimuli/stim007_animate_bird_3.png","stimuli/fish_lowercase.png","stimuli/stim009_animate_face_1.png","380"
"html-button-response-mod","392","2055371","0.0-392.0","74012","","","","","","triplet","1335.2000000029802","","","","0","stimuli/stim001_animate_fish_1.png","stimuli/stim015_inanimate_boats_3.png","stimuli/stim022_inanimate_tools_2.png","381"
"html-button-response-mod","393","2061367","0.0-393.0","74012","","","","","","triplet","5493.9000000059605","","","","0","stimuli/stim007_animate_bird_3.png","stimuli/boats_lowercase.png","stimuli/boats_uppercase.png","382"
"html-button-response-mod","394","2063024","0.0-394.0","74012","","","","","","triplet","1155","","","","0","stimuli/stim015_inanimate_boats_3.png","stimuli/stim005_animate_bird_1.png","stimuli/face_lowercase.png","383"
"html-button-response-mod","395","2064805","0.0-395.0","74012","","","","","","triplet","1279","","","","0","stimuli/stim019_inanimate_tree_3.png","stimuli/stim007_animate_bird_3.png","stimuli/stim006_animate_bird_2.png","384"
"html-button-response-mod","396","2067080","0.0-396.0","74012","","","","","","triplet","1764","","","","0","stimuli/bird_lowercase.png","stimuli/boats_lowercase.png","stimuli/tools_lowercase.png","385"
"html-button-response-mod","397","2072596","0.0-397.0","74012","","","","","","triplet","5007.600000008941","","","","0","stimuli/stim005_animate_bird_1.png","stimuli/stim020_inanimate_tree_4.png","stimuli/tree_uppercase.png","386"
"html-button-response-mod","398","2074953","0.0-398.0","74012","","","","","","triplet","1855.5","","","","1","stimuli/tree_uppercase.png","stimuli/stim023_inanimate_tools_3.png","stimuli/stim018_inanimate_tree_2.png","387"
"html-button-response-mod","399","2268186","0.0-399.0","74012","","","","","","triplet","192732.59999999404","","","","1","stimuli/stim023_inanimate_tools_3.png","stimuli/stim017_inanimate_tree_1.png","stimuli/stim024_inanimate_tools_4.png","388"
"html-button-response-mod","400","2269627","0.0-400.0","74012","","","","","","triplet","939.2000000029802","","","","2","stimuli/stim020_inanimate_tree_4.png","stimuli/stim018_inanimate_tree_2.png","stimuli/stim002_animate_fish_2.png","389"
"html-button-response-mod","401","2271067","0.0-401.0","74012","","","","","","triplet","929.5","","","","0","stimuli/stim024_inanimate_tools_4.png","stimuli/stim019_inanimate_tree_3.png","stimuli/face_uppercase.png","390"
"html-button-response-mod","402","2272715","0.0-402.0","74012","","","","","","triplet","1133.7999999970198","","","","0","stimuli/tools_uppercase.png","stimuli/stim007_animate_bird_3.png","stimuli/stim011_animate_face_3.png","391"
"html-button-response-mod","403","2296271","0.0-403.0","74012","","","","","","triplet","23040","","","","2","stimuli/stim021_inanimate_tools_1.png","stimuli/stim024_inanimate_tools_4.png","stimuli/stim003_animate_fish_3.png","392"
"html-button-response-mod","404","2297907","0.0-404.0","74012","","","","","","triplet","1133.0999999940395","","","","2","stimuli/stim010_animate_face_2.png","stimuli/stim001_animate_fish_1.png","stimuli/stim021_inanimate_tools_1.png","393"
"html-button-response-mod","405","2299990","0.0-405.0","74012","","","","","","triplet","1580.9000000059605","","","","0","stimuli/stim022_inanimate_tools_2.png","stimuli/face_lowercase.png","stimuli/stim008_animate_bird_4.png","394"
"html-button-response-mod","406","2304332","0.0-406.0","74012","","","","","","triplet","3831.2000000029802","","","","0","stimuli/fish_lowercase.png","stimuli/bird_lowercase.png","stimuli/stim006_animate_bird_2.png","395"
"html-button-response-mod","407","2306045","0.0-407.0","74012","","","","","","triplet","1197.9000000059605","","","","2","stimuli/stim023_inanimate_tools_3.png","stimuli/stim024_inanimate_tools_4.png","stimuli/bird_lowercase.png","396"
"html-button-response-mod","408","2308780","0.0-408.0","74012","","","","","","triplet","2232.2000000029802","","","","0","stimuli/boats_uppercase.png","stimuli/stim002_animate_fish_2.png","stimuli/stim005_animate_bird_1.png","397"
"html-button-response-mod","409","2311253","0.0-409.0","74012","","","","","","triplet","1963.2000000029802","","","","1","stimuli/stim001_animate_fish_1.png","stimuli/stim019_inanimate_tree_3.png","stimuli/face_lowercase.png","398"
"html-button-response-mod","410","2355225","0.0-410.0","74012","","","","","","triplet","43470.70000000298","","","","2","stimuli/stim007_animate_bird_3.png","stimuli/stim002_animate_fish_2.png","stimuli/stim024_inanimate_tools_4.png","399"
"html-button-response","411","2356633","0.0-411.0","74012","","","","","","break","906.7000000029802","<p>BREAK</p><p>Take a break for as long as you need</p><p>Click the button to continue</p>","0","","","","","",""
"survey-text","412","2444705","0.0-412.0","74012","","","","","","data_patterns","88065.10000000894","","{""Q0"":""grouping items by living / sentient vs inatimate and then into animals/plants""}","","","","","",""
"survey-text","413","2447565","0.0-413.0","74012","","","","","","age_question","2859.5","","{""Age"":""18""}","","","","","",""
"html-button-response","414","2448729","0.0-414.0","74012","","","","","","gender_question","1162.9000000059605","How would you like your gender to be recorded?","1","","","","","",""
"html-button-response","415","2449751","0.0-415.0","74012","","","","","","debrief","1021","<p> Thank you for participating in this experiment! </p><p> We are investigating the dimensions along which you perceive the world </p><p>The images were all sorted according to whether they are animate or not, and </p><p> whether they are text or images. We are comparing this to some neuroimaging data to see </p> how your conscious classification relates to how your brain classifies the objects automatically. </p>","0","2453077.5","","","","",""
