"trial_type","trial_index","time_elapsed","internal_node_id","subject","success","timeout","failed_images","failed_audio","failed_video","test_part","rt","stimulus","response","end_time","button_pressed","stim0","stim1","stim2","trialnr"
"pavlovia","0","21","0.0-0.0","76059","","","","","","","","","","","","","","",""
"preload","1","1989","0.0-1.0","76059","true","false","[]","[]","[]","preload","","","","","","","","",""
"html-button-response","2","12663","0.0-2.0","76059","","","","","","","10670.300000011921","<p>Welcome to the experiment. To begin, please read the following and press the button at the bottom of the screen.</p><p></p><p><strong>Project Name: A study on cognitive processes involved in visual perception</p></strong><p></p><p><strong>PARTICIPANT INFORMATION STATEMENT</strong></p><p></p><strong>(1) What is the study about?</strong><br>You are invited to participate in a study that investigates the cognitive processes involved in perceiving and recognizing visual stimuli.If you decide to participate, you will be asked to complete a task in which you will view pictures, letters, numbers, or words presented on a computer screen.<br><strong>(2) Who can participate?</strong><br>Anyone aged 18 years or over with access to a computer (not a phone/tablet)<br><strong>(3) Where is the study located?</strong><br>The study will be conducted in your browser<br><strong>(4) Who is carrying out the study?</strong><br>The study is being conducted by Sophia Shatek from the Computational Cognitive Neuroscience laboratory at the University of Sydney.<br><strong>(5) What does the study involve?</strong><br>In this study, you will be asked to perform tasks where you will see different stimuli appear on the computer screen.You will respond by pressing a key or using a computer mouse.<br><strong>(6) How much time will the study take?</strong><br>The study takes about 30 minutes<br><strong>(7)	Can I withdraw from the study?</strong><br>Being in this study is completely voluntary - you are not under any obligation to consent. You can withdraw at any time without having to give a reason and without penalty.<br><strong>(8) Will anyone else know the results?</strong><br>All aspects of the study, including results, will be strictly confidential and only the researchers will have access to information on participants.The results and data from the study may be submitted for publication or shared with other research labs, but individual participants will not be identifiable.<br><strong>(9) Will the study benefit me?</strong><br>You will be awarded 0.5 credits for your participation.<br><strong>(10) Can I tell other people about the study?</strong><br>Yes, please tell them to contact Dr Thomas Carlson by email at thomas.carlson@sydney.edu.au.<br><strong>(11) What if I require further information about the study or my involvement in it?</strong><br>When you have read this information, the investigator will discuss it with you further and answer any questions you may have.If you would like to know more at any stage, please feel free to contact Dr Thomas Carlson directly by email at thomas.carlson@sydney.edu.au.If you would like to be informed about the outcomes of the study, contact Dr Thomas Carlson directly by email at thomas.carlson@sydney.edu.au.<br><strong>(12) What if I have a complaint or any concerns?</strong><br>Any person with concerns or complaints about the conduct of a research study can contact The Manager,Human Ethics Administration, University of Sydney on +61 2 8627 8176 (Telephone); +61 2 8627 8177 (Facsimile) or ro.humanethics@sydney.edu.au (Email).</p><p></p><strong>By participating in this experiment, you consent to participate in this study and acknowledge that:</strong><br>1. The procedures required for the project and the times involved have been explained to me, and any questions I have about the project have been answered to my satisfaction.<br>2.	I have read the Above Information Statement and have been given the opportunity to discuss the information and my involvement in the project with the researcher/s.<br>3. I understand that allowing my data to be used in research reports is completely voluntary - I am not under any obligation to consent.<br>4. I understand that my involvement is strictly confidential. I understand that any research data gathered from the results of the study may be publishedhowever no information about me will be used in any way that is identifiable.</p><p></p>","0","","","","","",""
"html-button-response","3","17983","0.0-3.0","76059","","","","","","opening_instructions","5317.300000011921","<p>In this experiment, you will see three images appear on the screen.</p><p>You need to click the 'odd one out', or the image </p><p>that LOOKS MOST DIFFERENT to the other two. </p><p>Just go with your intuition, don't spend too long thinking about each one.</p>","0","22442.80000001192","","","","",""
"html-button-response-mod","4","22357","0.0-4.0","76059","","","","","","triplet","4370.800000011921","","","","2","stimuli/stim014_inanimate_boats_2.png","stimuli/fish_lowercase.png","stimuli/stim017_inanimate_tree_1.png","0"
"html-button-response-mod","5","24474","0.0-5.0","76059","","","","","","triplet","1614.8999999761581","","","","0","stimuli/stim012_animate_face_4.png","stimuli/stim001_animate_fish_1.png","stimuli/fish_lowercase.png","1"
"html-button-response-mod","6","28743","0.0-6.0","76059","","","","","","triplet","3765.899999976158","","","","2","stimuli/stim023_inanimate_tools_3.png","stimuli/tree_uppercase.png","stimuli/bird_lowercase.png","2"
"html-button-response-mod","7","31578","0.0-7.0","76059","","","","","","triplet","2332.099999964237","","","","2","stimuli/stim022_inanimate_tools_2.png","stimuli/stim023_inanimate_tools_3.png","stimuli/stim005_animate_bird_1.png","3"
"html-button-response-mod","8","36458","0.0-8.0","76059","","","","","","triplet","4377.300000011921","","","","2","stimuli/tree_uppercase.png","stimuli/bird_uppercase.png","stimuli/stim024_inanimate_tools_4.png","4"
"html-button-response-mod","9","39268","0.0-9.0","76059","","","","","","triplet","2307.300000011921","","","","2","stimuli/tree_lowercase.png","stimuli/face_lowercase.png","stimuli/stim008_animate_bird_4.png","5"
"html-button-response-mod","10","42487","0.0-10.0","76059","","","","","","triplet","2715.199999988079","","","","0","stimuli/stim001_animate_fish_1.png","stimuli/stim019_inanimate_tree_3.png","stimuli/stim005_animate_bird_1.png","6"
"html-button-response-mod","11","44727","0.0-11.0","76059","","","","","","triplet","1734.300000011921","","","","2","stimuli/fish_lowercase.png","stimuli/boats_lowercase.png","stimuli/stim012_animate_face_4.png","7"
"html-button-response-mod","12","46641","0.0-12.0","76059","","","","","","triplet","1411.4000000357628","","","","2","stimuli/stim001_animate_fish_1.png","stimuli/stim002_animate_fish_2.png","stimuli/stim019_inanimate_tree_3.png","8"
"html-button-response-mod","13","48654","0.0-13.0","76059","","","","","","triplet","1510.300000011921","","","","2","stimuli/stim010_animate_face_2.png","stimuli/stim009_animate_face_1.png","stimuli/stim004_animate_fish_4.png","9"
"html-button-response-mod","14","51212","0.0-14.0","76059","","","","","","triplet","2053.599999964237","","","","2","stimuli/bird_lowercase.png","stimuli/stim007_animate_bird_3.png","stimuli/tools_uppercase.png","10"
"html-button-response-mod","15","54674","0.0-15.0","76059","","","","","","triplet","2958.600000023842","","","","2","stimuli/stim010_animate_face_2.png","stimuli/stim006_animate_bird_2.png","stimuli/tools_lowercase.png","11"
"html-button-response-mod","16","57882","0.0-16.0","76059","","","","","","triplet","2705.600000023842","","","","1","stimuli/stim016_inanimate_boats_4.png","stimuli/stim009_animate_face_1.png","stimuli/stim021_inanimate_tools_1.png","12"
"html-button-response-mod","17","59909","0.0-17.0","76059","","","","","","triplet","1518.800000011921","","","","1","stimuli/stim008_animate_bird_4.png","stimuli/stim010_animate_face_2.png","stimuli/stim004_animate_fish_4.png","13"
"html-button-response-mod","18","61860","0.0-18.0","76059","","","","","","triplet","1447.699999988079","","","","1","stimuli/stim015_inanimate_boats_3.png","stimuli/tree_lowercase.png","stimuli/stim014_inanimate_boats_2.png","14"
"html-button-response-mod","19","65509","0.0-19.0","76059","","","","","","triplet","3144.399999976158","","","","0","stimuli/face_uppercase.png","stimuli/stim017_inanimate_tree_1.png","stimuli/stim004_animate_fish_4.png","15"
"html-button-response-mod","20","67269","0.0-20.0","76059","","","","","","triplet","1256.699999988079","","","","0","stimuli/boats_uppercase.png","stimuli/stim007_animate_bird_3.png","stimuli/stim005_animate_bird_1.png","16"
"html-button-response-mod","21","70421","0.0-21.0","76059","","","","","","triplet","2648.399999976158","","","","0","stimuli/bird_uppercase.png","stimuli/stim002_animate_fish_2.png","stimuli/stim010_animate_face_2.png","17"
"html-button-response-mod","22","72645","0.0-22.0","76059","","","","","","triplet","1719.800000011921","","","","1","stimuli/boats_lowercase.png","stimuli/stim020_inanimate_tree_4.png","stimuli/stim016_inanimate_boats_4.png","18"
"html-button-response-mod","23","76230","0.0-23.0","76059","","","","","","triplet","3081.699999988079","","","","1","stimuli/stim024_inanimate_tools_4.png","stimuli/stim011_animate_face_3.png","stimuli/tools_uppercase.png","19"
"html-button-response-mod","24","80083","0.0-24.0","76059","","","","","","triplet","3350.399999976158","","","","1","stimuli/stim014_inanimate_boats_2.png","stimuli/tools_uppercase.png","stimuli/stim011_animate_face_3.png","20"
"html-button-response-mod","25","84360","0.0-25.0","76059","","","","","","triplet","3772","","","","0","stimuli/stim014_inanimate_boats_2.png","stimuli/stim023_inanimate_tools_3.png","stimuli/stim018_inanimate_tree_2.png","21"
"html-button-response-mod","26","86600","0.0-26.0","76059","","","","","","triplet","1734.3999999761581","","","","2","stimuli/tools_lowercase.png","stimuli/stim021_inanimate_tools_1.png","stimuli/stim008_animate_bird_4.png","22"
"html-button-response-mod","27","90547","0.0-27.0","76059","","","","","","triplet","3443.800000011921","","","","1","stimuli/fish_lowercase.png","stimuli/stim010_animate_face_2.png","stimuli/boats_uppercase.png","23"
"html-button-response-mod","28","94112","0.0-28.0","76059","","","","","","triplet","3060.5","","","","1","stimuli/stim007_animate_bird_3.png","stimuli/stim022_inanimate_tools_2.png","stimuli/stim018_inanimate_tree_2.png","24"
"html-button-response-mod","29","95971","0.0-29.0","76059","","","","","","triplet","1355.3999999761581","","","","0","stimuli/stim011_animate_face_3.png","stimuli/stim023_inanimate_tools_3.png","stimuli/stim021_inanimate_tools_1.png","25"
"html-button-response-mod","30","99945","0.0-30.0","76059","","","","","","triplet","3472.300000011921","","","","2","stimuli/stim001_animate_fish_1.png","stimuli/stim022_inanimate_tools_2.png","stimuli/face_lowercase.png","26"
"html-button-response-mod","31","101583","0.0-31.0","76059","","","","","","triplet","1135.199999988079","","","","1","stimuli/bird_lowercase.png","stimuli/stim021_inanimate_tools_1.png","stimuli/tree_lowercase.png","27"
"html-button-response-mod","32","103433","0.0-32.0","76059","","","","","","triplet","1342.800000011921","","","","0","stimuli/fish_uppercase.png","stimuli/face_lowercase.png","stimuli/boats_lowercase.png","28"
"html-button-response-mod","33","106349","0.0-33.0","76059","","","","","","triplet","2413","","","","1","stimuli/stim022_inanimate_tools_2.png","stimuli/boats_lowercase.png","stimuli/stim004_animate_fish_4.png","29"
"html-button-response-mod","34","107757","0.0-34.0","76059","","","","","","triplet","906.7000000476837","","","","2","stimuli/stim004_animate_fish_4.png","stimuli/stim002_animate_fish_2.png","stimuli/stim018_inanimate_tree_2.png","30"
"html-button-response-mod","35","109282","0.0-35.0","76059","","","","","","triplet","1022.3999999761581","","","","0","stimuli/stim018_inanimate_tree_2.png","stimuli/fish_lowercase.png","stimuli/boats_lowercase.png","31"
"html-button-response-mod","36","112159","0.0-36.0","76059","","","","","","triplet","2374.5","","","","2","stimuli/stim002_animate_fish_2.png","stimuli/stim018_inanimate_tree_2.png","stimuli/boats_lowercase.png","32"
"html-button-response-mod","37","116899","0.0-37.0","76059","","","","","","triplet","4236","","","","1","stimuli/stim024_inanimate_tools_4.png","stimuli/stim002_animate_fish_2.png","stimuli/stim015_inanimate_boats_3.png","33"
"html-button-response-mod","38","119823","0.0-38.0","76059","","","","","","triplet","2421.199999988079","","","","1","stimuli/tree_uppercase.png","stimuli/stim015_inanimate_boats_3.png","stimuli/stim019_inanimate_tree_3.png","34"
"html-button-response-mod","39","121877","0.0-39.0","76059","","","","","","triplet","1550.8999999761581","","","","0","stimuli/stim014_inanimate_boats_2.png","stimuli/stim008_animate_bird_4.png","stimuli/bird_uppercase.png","35"
"html-button-response-mod","40","125421","0.0-40.0","76059","","","","","","triplet","3041.400000035763","","","","2","stimuli/stim007_animate_bird_3.png","stimuli/stim020_inanimate_tree_4.png","stimuli/stim015_inanimate_boats_3.png","36"
"html-button-response-mod","41","128579","0.0-41.0","76059","","","","","","triplet","2656.2000000476837","","","","0","stimuli/stim010_animate_face_2.png","stimuli/stim019_inanimate_tree_3.png","stimuli/stim003_animate_fish_3.png","37"
"html-button-response-mod","42","130079","0.0-42.0","76059","","","","","","triplet","997.8000000119209","","","","0","stimuli/stim012_animate_face_4.png","stimuli/stim001_animate_fish_1.png","stimuli/stim004_animate_fish_4.png","38"
"html-button-response-mod","43","131723","0.0-43.0","76059","","","","","","triplet","1142.5","","","","0","stimuli/stim009_animate_face_1.png","stimuli/stim013_inanimate_boats_1.png","stimuli/stim014_inanimate_boats_2.png","39"
"html-button-response-mod","44","133836","0.0-44.0","76059","","","","","","triplet","1610.5999999642372","","","","2","stimuli/boats_lowercase.png","stimuli/stim016_inanimate_boats_4.png","stimuli/stim003_animate_fish_3.png","40"
"html-button-response-mod","45","136093","0.0-45.0","76059","","","","","","triplet","1753.0999999642372","","","","1","stimuli/stim013_inanimate_boats_1.png","stimuli/stim002_animate_fish_2.png","stimuli/stim015_inanimate_boats_3.png","41"
"html-button-response-mod","46","143269","0.0-46.0","76059","","","","","","triplet","6674.300000011921","","","","1","stimuli/stim018_inanimate_tree_2.png","stimuli/fish_uppercase.png","stimuli/stim016_inanimate_boats_4.png","42"
"html-button-response-mod","47","147504","0.0-47.0","76059","","","","","","triplet","3730.599999964237","","","","2","stimuli/stim011_animate_face_3.png","stimuli/stim015_inanimate_boats_3.png","stimuli/tools_uppercase.png","43"
"html-button-response-mod","48","152337","0.0-48.0","76059","","","","","","triplet","4331.199999988079","","","","1","stimuli/stim010_animate_face_2.png","stimuli/bird_lowercase.png","stimuli/stim018_inanimate_tree_2.png","44"
"html-button-response-mod","49","156662","0.0-49.0","76059","","","","","","triplet","3819.5","","","","0","stimuli/stim024_inanimate_tools_4.png","stimuli/face_lowercase.png","stimuli/stim011_animate_face_3.png","45"
"html-button-response-mod","50","158941","0.0-50.0","76059","","","","","","triplet","1776.199999988079","","","","2","stimuli/stim002_animate_fish_2.png","stimuli/stim001_animate_fish_1.png","stimuli/stim024_inanimate_tools_4.png","46"
"html-button-response-mod","51","161054","0.0-51.0","76059","","","","","","triplet","1610.800000011921","","","","1","stimuli/stim015_inanimate_boats_3.png","stimuli/stim024_inanimate_tools_4.png","stimuli/face_lowercase.png","47"
"html-button-response-mod","52","163131","0.0-52.0","76059","","","","","","triplet","1571.699999988079","","","","0","stimuli/stim009_animate_face_1.png","stimuli/stim014_inanimate_boats_2.png","stimuli/stim016_inanimate_boats_4.png","48"
"html-button-response-mod","53","168524","0.0-53.0","76059","","","","","","triplet","4886.299999952316","","","","1","stimuli/stim022_inanimate_tools_2.png","stimuli/stim004_animate_fish_4.png","stimuli/stim017_inanimate_tree_1.png","49"
"html-button-response","54","644738","0.0-54.0","76059","","","","","","break","475792.39999997616","<p>BREAK</p><p>Take a break for as long as you need</p><p>Click the button to continue</p>","0","","","","","",""
"html-button-response-mod","55","645954","0.0-55.0","76059","","","","","","triplet","1214.0999999642372","","","","1","stimuli/stim014_inanimate_boats_2.png","stimuli/stim010_animate_face_2.png","stimuli/stim013_inanimate_boats_1.png","50"
"html-button-response-mod","56","647556","0.0-56.0","76059","","","","","","triplet","1099.199999988079","","","","0","stimuli/stim004_animate_fish_4.png","stimuli/tree_lowercase.png","stimuli/bird_uppercase.png","51"
"html-button-response-mod","57","649315","0.0-57.0","76059","","","","","","triplet","1256.6000000238419","","","","1","stimuli/stim013_inanimate_boats_1.png","stimuli/tree_uppercase.png","stimuli/stim011_animate_face_3.png","52"
"html-button-response-mod","58","651734","0.0-58.0","76059","","","","","","triplet","1916.5","","","","1","stimuli/tree_lowercase.png","stimuli/stim014_inanimate_boats_2.png","stimuli/stim019_inanimate_tree_3.png","53"
"html-button-response-mod","59","653078","0.0-59.0","76059","","","","","","triplet","842.8000000119209","","","","1","stimuli/stim020_inanimate_tree_4.png","stimuli/face_uppercase.png","stimuli/stim019_inanimate_tree_3.png","54"
"html-button-response-mod","60","654625","0.0-60.0","76059","","","","","","triplet","1042.6000000238419","","","","1","stimuli/stim010_animate_face_2.png","stimuli/stim021_inanimate_tools_1.png","stimuli/stim009_animate_face_1.png","55"
"html-button-response-mod","61","656897","0.0-61.0","76059","","","","","","triplet","1768.5","","","","2","stimuli/stim018_inanimate_tree_2.png","stimuli/stim022_inanimate_tools_2.png","stimuli/bird_uppercase.png","56"
"html-button-response-mod","62","658774","0.0-62.0","76059","","","","","","triplet","1372","","","","2","stimuli/stim007_animate_bird_3.png","stimuli/stim019_inanimate_tree_3.png","stimuli/tools_lowercase.png","57"
"html-button-response-mod","63","661022","0.0-63.0","76059","","","","","","triplet","1745.4000000357628","","","","1","stimuli/stim024_inanimate_tools_4.png","stimuli/bird_uppercase.png","stimuli/tools_lowercase.png","58"
"html-button-response-mod","64","663131","0.0-64.0","76059","","","","","","triplet","1606.699999988079","","","","2","stimuli/stim008_animate_bird_4.png","stimuli/stim011_animate_face_3.png","stimuli/tools_uppercase.png","59"
"html-button-response-mod","65","664677","0.0-65.0","76059","","","","","","triplet","1040.1000000238419","","","","2","stimuli/stim011_animate_face_3.png","stimuli/stim006_animate_bird_2.png","stimuli/fish_lowercase.png","60"
"html-button-response-mod","66","667099","0.0-66.0","76059","","","","","","triplet","1918.300000011921","","","","2","stimuli/stim005_animate_bird_1.png","stimuli/stim018_inanimate_tree_2.png","stimuli/stim015_inanimate_boats_3.png","61"
"html-button-response-mod","67","668997","0.0-67.0","76059","","","","","","triplet","1394","","","","1","stimuli/stim001_animate_fish_1.png","stimuli/stim008_animate_bird_4.png","stimuli/stim003_animate_fish_3.png","62"
"html-button-response-mod","68","671041","0.0-68.0","76059","","","","","","triplet","1539.6000000238419","","","","0","stimuli/tree_uppercase.png","stimuli/stim023_inanimate_tools_3.png","stimuli/stim001_animate_fish_1.png","63"
"html-button-response-mod","69","674821","0.0-69.0","76059","","","","","","triplet","3276.600000023842","","","","0","stimuli/tree_lowercase.png","stimuli/fish_uppercase.png","stimuli/bird_uppercase.png","64"
"html-button-response-mod","70","676262","0.0-70.0","76059","","","","","","triplet","937.3000000119209","","","","1","stimuli/stim002_animate_fish_2.png","stimuli/stim016_inanimate_boats_4.png","stimuli/stim004_animate_fish_4.png","65"
"html-button-response-mod","71","677647","0.0-71.0","76059","","","","","","triplet","881.9000000357628","","","","0","stimuli/stim023_inanimate_tools_3.png","stimuli/fish_uppercase.png","stimuli/tree_uppercase.png","66"
"html-button-response-mod","72","678837","0.0-72.0","76059","","","","","","triplet","687.3000000119209","","","","1","stimuli/boats_lowercase.png","stimuli/stim014_inanimate_boats_2.png","stimuli/fish_lowercase.png","67"
"html-button-response-mod","73","682135","0.0-73.0","76059","","","","","","triplet","2794.699999988079","","","","2","stimuli/stim001_animate_fish_1.png","stimuli/stim020_inanimate_tree_4.png","stimuli/bird_uppercase.png","68"
"html-button-response-mod","74","684589","0.0-74.0","76059","","","","","","triplet","1951.199999988079","","","","2","stimuli/stim009_animate_face_1.png","stimuli/face_uppercase.png","stimuli/stim005_animate_bird_1.png","69"
"html-button-response-mod","75","685842","0.0-75.0","76059","","","","","","triplet","748.6000000238419","","","","0","stimuli/boats_uppercase.png","stimuli/stim001_animate_fish_1.png","stimuli/stim002_animate_fish_2.png","70"
"html-button-response-mod","76","687274","0.0-76.0","76059","","","","","","triplet","930.3999999761581","","","","2","stimuli/stim024_inanimate_tools_4.png","stimuli/stim022_inanimate_tools_2.png","stimuli/stim003_animate_fish_3.png","71"
"html-button-response-mod","77","688831","0.0-77.0","76059","","","","","","triplet","1055.300000011921","","","","2","stimuli/stim020_inanimate_tree_4.png","stimuli/stim014_inanimate_boats_2.png","stimuli/fish_lowercase.png","72"
"html-button-response-mod","78","690704","0.0-78.0","76059","","","","","","triplet","1366.800000011921","","","","2","stimuli/stim012_animate_face_4.png","stimuli/stim011_animate_face_3.png","stimuli/stim006_animate_bird_2.png","73"
"html-button-response-mod","79","692351","0.0-79.0","76059","","","","","","triplet","1144.0999999642372","","","","0","stimuli/stim023_inanimate_tools_3.png","stimuli/stim015_inanimate_boats_3.png","stimuli/stim012_animate_face_4.png","74"
"html-button-response-mod","80","693483","0.0-80.0","76059","","","","","","triplet","628.5999999642372","","","","1","stimuli/stim016_inanimate_boats_4.png","stimuli/face_lowercase.png","stimuli/stim005_animate_bird_1.png","75"
"html-button-response-mod","81","694607","0.0-81.0","76059","","","","","","triplet","621","","","","2","stimuli/stim010_animate_face_2.png","stimuli/stim007_animate_bird_3.png","stimuli/boats_uppercase.png","76"
"html-button-response-mod","82","695658","0.0-82.0","76059","","","","","","triplet","549.1999999880791","","","","1","stimuli/stim022_inanimate_tools_2.png","stimuli/bird_uppercase.png","stimuli/stim021_inanimate_tools_1.png","77"
"html-button-response-mod","83","697280","0.0-83.0","76059","","","","","","triplet","1120.1000000238419","","","","0","stimuli/stim020_inanimate_tree_4.png","stimuli/bird_lowercase.png","stimuli/tree_uppercase.png","78"
"html-button-response-mod","84","698998","0.0-84.0","76059","","","","","","triplet","1213.300000011921","","","","2","stimuli/stim013_inanimate_boats_1.png","stimuli/stim018_inanimate_tree_2.png","stimuli/bird_lowercase.png","79"
"html-button-response-mod","85","700406","0.0-85.0","76059","","","","","","triplet","906.2999999523163","","","","0","stimuli/stim018_inanimate_tree_2.png","stimuli/bird_uppercase.png","stimuli/tree_lowercase.png","80"
"html-button-response-mod","86","702169","0.0-86.0","76059","","","","","","triplet","1259","","","","0","stimuli/tree_uppercase.png","stimuli/stim007_animate_bird_3.png","stimuli/stim002_animate_fish_2.png","81"
"html-button-response-mod","87","704373","0.0-87.0","76059","","","","","","triplet","1701.5","","","","0","stimuli/stim024_inanimate_tools_4.png","stimuli/face_uppercase.png","stimuli/tree_lowercase.png","82"
"html-button-response-mod","88","705627","0.0-88.0","76059","","","","","","triplet","751.3000000119209","","","","0","stimuli/stim024_inanimate_tools_4.png","stimuli/fish_uppercase.png","stimuli/tools_lowercase.png","83"
"html-button-response-mod","89","707090","0.0-89.0","76059","","","","","","triplet","959.6000000238419","","","","2","stimuli/fish_lowercase.png","stimuli/fish_uppercase.png","stimuli/stim020_inanimate_tree_4.png","84"
"html-button-response-mod","90","708325","0.0-90.0","76059","","","","","","triplet","730.7999999523163","","","","2","stimuli/boats_lowercase.png","stimuli/face_uppercase.png","stimuli/stim015_inanimate_boats_3.png","85"
"html-button-response-mod","91","709341","0.0-91.0","76059","","","","","","triplet","512.8000000119209","","","","0","stimuli/stim015_inanimate_boats_3.png","stimuli/face_uppercase.png","stimuli/stim014_inanimate_boats_2.png","86"
"html-button-response-mod","92","710278","0.0-92.0","76059","","","","","","triplet","433.5","","","","0","stimuli/stim012_animate_face_4.png","stimuli/face_uppercase.png","stimuli/face_lowercase.png","87"
"html-button-response-mod","93","711133","0.0-93.0","76059","","","","","","triplet","353.80000001192093","","","","0","stimuli/stim003_animate_fish_3.png","stimuli/bird_uppercase.png","stimuli/fish_uppercase.png","88"
"html-button-response-mod","94","711989","0.0-94.0","76059","","","","","","triplet","353.5999999642372","","","","0","stimuli/stim006_animate_bird_2.png","stimuli/stim009_animate_face_1.png","stimuli/stim017_inanimate_tree_1.png","89"
"html-button-response-mod","95","713203","0.0-95.0","76059","","","","","","triplet","712.3999999761581","","","","0","stimuli/stim017_inanimate_tree_1.png","stimuli/stim007_animate_bird_3.png","stimuli/stim015_inanimate_boats_3.png","90"
"html-button-response-mod","96","714515","0.0-96.0","76059","","","","","","triplet","809.1999999880791","","","","1","stimuli/stim019_inanimate_tree_3.png","stimuli/stim018_inanimate_tree_2.png","stimuli/stim012_animate_face_4.png","91"
"html-button-response-mod","97","715330","0.0-97.0","76059","","","","","","triplet","311.89999997615814","","","","2","stimuli/stim009_animate_face_1.png","stimuli/stim024_inanimate_tools_4.png","stimuli/stim002_animate_fish_2.png","92"
"html-button-response-mod","98","716214","0.0-98.0","76059","","","","","","triplet","380.4000000357628","","","","1","stimuli/tree_uppercase.png","stimuli/stim021_inanimate_tools_1.png","stimuli/stim001_animate_fish_1.png","93"
"html-button-response-mod","99","717046","0.0-99.0","76059","","","","","","triplet","328.30000001192093","","","","0","stimuli/stim007_animate_bird_3.png","stimuli/tools_uppercase.png","stimuli/face_uppercase.png","94"
"html-button-response-mod","100","717893","0.0-100.0","76059","","","","","","triplet","345.10000002384186","","","","1","stimuli/stim005_animate_bird_1.png","stimuli/stim008_animate_bird_4.png","stimuli/tree_uppercase.png","95"
"html-button-response-mod","101","718749","0.0-101.0","76059","","","","","","triplet","355.10000002384186","","","","0","stimuli/face_lowercase.png","stimuli/stim001_animate_fish_1.png","stimuli/stim021_inanimate_tools_1.png","96"
"html-button-response-mod","102","719637","0.0-102.0","76059","","","","","","triplet","386.0999999642372","","","","2","stimuli/fish_uppercase.png","stimuli/stim012_animate_face_4.png","stimuli/stim010_animate_face_2.png","97"
"html-button-response-mod","103","720556","0.0-103.0","76059","","","","","","triplet","417.69999998807907","","","","0","stimuli/fish_uppercase.png","stimuli/stim020_inanimate_tree_4.png","stimuli/stim007_animate_bird_3.png","98"
"html-button-response-mod","104","721428","0.0-104.0","76059","","","","","","triplet","370.80000001192093","","","","1","stimuli/stim014_inanimate_boats_2.png","stimuli/boats_lowercase.png","stimuli/stim007_animate_bird_3.png","99"
"html-button-response","105","723718","0.0-105.0","76059","","","","","","break","1788","<p>BREAK</p><p>Take a break for as long as you need</p><p>Click the button to continue</p>","0","","","","","",""
"html-button-response-mod","106","724410","0.0-106.0","76059","","","","","","triplet","691.3999999761581","","","","1","stimuli/stim021_inanimate_tools_1.png","stimuli/bird_lowercase.png","stimuli/stim014_inanimate_boats_2.png","100"
"html-button-response-mod","107","725256","0.0-107.0","76059","","","","","","triplet","344.89999997615814","","","","2","stimuli/stim019_inanimate_tree_3.png","stimuli/stim003_animate_fish_3.png","stimuli/stim012_animate_face_4.png","101"
"html-button-response-mod","108","726063","0.0-108.0","76059","","","","","","triplet","305.10000002384186","","","","2","stimuli/stim020_inanimate_tree_4.png","stimuli/stim012_animate_face_4.png","stimuli/bird_lowercase.png","102"
"html-button-response-mod","109","726909","0.0-109.0","76059","","","","","","triplet","345.19999998807907","","","","1","stimuli/stim009_animate_face_1.png","stimuli/tree_uppercase.png","stimuli/stim018_inanimate_tree_2.png","103"
"html-button-response-mod","110","727748","0.0-110.0","76059","","","","","","triplet","336.80000001192093","","","","1","stimuli/stim010_animate_face_2.png","stimuli/tree_lowercase.png","stimuli/stim020_inanimate_tree_4.png","104"
"html-button-response-mod","111","728580","0.0-111.0","76059","","","","","","triplet","329.69999998807907","","","","1","stimuli/stim002_animate_fish_2.png","stimuli/stim021_inanimate_tools_1.png","stimuli/stim010_animate_face_2.png","105"
"html-button-response-mod","112","729421","0.0-112.0","76059","","","","","","triplet","337.7999999523163","","","","0","stimuli/stim009_animate_face_1.png","stimuli/stim004_animate_fish_4.png","stimuli/fish_uppercase.png","106"
"html-button-response-mod","113","730250","0.0-113.0","76059","","","","","","triplet","327.80000001192093","","","","0","stimuli/stim024_inanimate_tools_4.png","stimuli/stim019_inanimate_tree_3.png","stimuli/boats_uppercase.png","107"
"html-button-response-mod","114","731091","0.0-114.0","76059","","","","","","triplet","338.69999998807907","","","","1","stimuli/stim019_inanimate_tree_3.png","stimuli/bird_lowercase.png","stimuli/stim001_animate_fish_1.png","108"
"html-button-response-mod","115","731839","0.0-115.0","76059","","","","","","triplet","245.4000000357628","","","","1","stimuli/tools_uppercase.png","stimuli/fish_lowercase.png","stimuli/stim022_inanimate_tools_2.png","109"
"html-button-response-mod","116","732661","0.0-116.0","76059","","","","","","triplet","320","","","","2","stimuli/stim002_animate_fish_2.png","stimuli/stim006_animate_bird_2.png","stimuli/stim022_inanimate_tools_2.png","110"
"html-button-response-mod","117","733491","0.0-117.0","76059","","","","","","triplet","329.19999998807907","","","","1","stimuli/fish_uppercase.png","stimuli/boats_uppercase.png","stimuli/stim009_animate_face_1.png","111"
"html-button-response-mod","118","734324","0.0-118.0","76059","","","","","","triplet","330.69999998807907","","","","0","stimuli/stim007_animate_bird_3.png","stimuli/stim015_inanimate_boats_3.png","stimuli/tools_lowercase.png","112"
"html-button-response-mod","119","735674","0.0-119.0","76059","","","","","","triplet","845.5999999642372","","","","0","stimuli/stim004_animate_fish_4.png","stimuli/stim010_animate_face_2.png","stimuli/fish_lowercase.png","113"
"html-button-response-mod","120","736409","0.0-120.0","76059","","","","","","triplet","233","","","","0","stimuli/stim017_inanimate_tree_1.png","stimuli/stim015_inanimate_boats_3.png","stimuli/stim011_animate_face_3.png","114"
"html-button-response-mod","121","737523","0.0-121.0","76059","","","","","","triplet","610.5999999642372","","","","1","stimuli/stim013_inanimate_boats_1.png","stimuli/tools_lowercase.png","stimuli/stim016_inanimate_boats_4.png","115"
"html-button-response-mod","122","738356","0.0-122.0","76059","","","","","","triplet","329.89999997615814","","","","1","stimuli/stim018_inanimate_tree_2.png","stimuli/bird_lowercase.png","stimuli/tree_lowercase.png","116"
"html-button-response-mod","123","739000","0.0-123.0","76059","","","","","","triplet","142.4000000357628","","","","2","stimuli/stim023_inanimate_tools_3.png","stimuli/stim015_inanimate_boats_3.png","stimuli/stim007_animate_bird_3.png","117"
"html-button-response-mod","124","740107","0.0-124.0","76059","","","","","","triplet","605.1999999880791","","","","1","stimuli/stim022_inanimate_tools_2.png","stimuli/stim002_animate_fish_2.png","stimuli/stim003_animate_fish_3.png","118"
"html-button-response-mod","125","741475","0.0-125.0","76059","","","","","","triplet","863.6000000238419","","","","1","stimuli/stim024_inanimate_tools_4.png","stimuli/stim004_animate_fish_4.png","stimuli/face_lowercase.png","119"
"html-button-response-mod","126","742219","0.0-126.0","76059","","","","","","triplet","240.89999997615814","","","","2","stimuli/stim011_animate_face_3.png","stimuli/boats_uppercase.png","stimuli/stim015_inanimate_boats_3.png","120"
"html-button-response-mod","127","743088","0.0-127.0","76059","","","","","","triplet","364.0999999642372","","","","2","stimuli/face_lowercase.png","stimuli/stim014_inanimate_boats_2.png","stimuli/stim007_animate_bird_3.png","121"
"html-button-response-mod","128","743871","0.0-128.0","76059","","","","","","triplet","281.10000002384186","","","","1","stimuli/stim023_inanimate_tools_3.png","stimuli/fish_uppercase.png","stimuli/stim011_animate_face_3.png","122"
"html-button-response-mod","129","745392","0.0-129.0","76059","","","","","","triplet","1018.7000000476837","","","","1","stimuli/stim012_animate_face_4.png","stimuli/stim009_animate_face_1.png","stimuli/stim023_inanimate_tools_3.png","123"
"html-button-response-mod","130","746194","0.0-130.0","76059","","","","","","triplet","298.60000002384186","","","","0","stimuli/stim019_inanimate_tree_3.png","stimuli/stim004_animate_fish_4.png","stimuli/stim002_animate_fish_2.png","124"
"html-button-response-mod","131","746934","0.0-131.0","76059","","","","","","triplet","237.39999997615814","","","","0","stimuli/stim005_animate_bird_1.png","stimuli/stim014_inanimate_boats_2.png","stimuli/bird_lowercase.png","125"
"html-button-response-mod","132","747642","0.0-132.0","76059","","","","","","triplet","204.5","","","","1","stimuli/stim022_inanimate_tools_2.png","stimuli/fish_lowercase.png","stimuli/fish_uppercase.png","126"
"html-button-response-mod","133","748408","0.0-133.0","76059","","","","","","triplet","264.30000001192093","","","","0","stimuli/tools_uppercase.png","stimuli/stim006_animate_bird_2.png","stimuli/stim013_inanimate_boats_1.png","127"
"html-button-response-mod","134","749196","0.0-134.0","76059","","","","","","triplet","284.80000001192093","","","","1","stimuli/stim002_animate_fish_2.png","stimuli/tree_uppercase.png","stimuli/stim022_inanimate_tools_2.png","128"
"html-button-response-mod","135","749995","0.0-135.0","76059","","","","","","triplet","296","","","","2","stimuli/stim024_inanimate_tools_4.png","stimuli/boats_uppercase.png","stimuli/stim007_animate_bird_3.png","129"
"html-button-response-mod","136","751168","0.0-136.0","76059","","","","","","triplet","670.5","","","","2","stimuli/stim012_animate_face_4.png","stimuli/stim001_animate_fish_1.png","stimuli/stim024_inanimate_tools_4.png","130"
"html-button-response-mod","137","751944","0.0-137.0","76059","","","","","","triplet","274.5","","","","1","stimuli/fish_lowercase.png","stimuli/stim018_inanimate_tree_2.png","stimuli/tree_uppercase.png","131"
"html-button-response-mod","138","752804","0.0-138.0","76059","","","","","","triplet","357.5","","","","1","stimuli/stim009_animate_face_1.png","stimuli/fish_uppercase.png","stimuli/face_lowercase.png","132"
"html-button-response-mod","139","754175","0.0-139.0","76059","","","","","","triplet","867.7999999523163","","","","0","stimuli/tools_uppercase.png","stimuli/tools_lowercase.png","stimuli/boats_lowercase.png","133"
"html-button-response-mod","140","755062","0.0-140.0","76059","","","","","","triplet","385.80000001192093","","","","0","stimuli/stim007_animate_bird_3.png","stimuli/tools_uppercase.png","stimuli/stim022_inanimate_tools_2.png","134"
"html-button-response-mod","141","755869","0.0-141.0","76059","","","","","","triplet","304","","","","1","stimuli/stim015_inanimate_boats_3.png","stimuli/stim020_inanimate_tree_4.png","stimuli/stim011_animate_face_3.png","135"
"html-button-response-mod","142","756674","0.0-142.0","76059","","","","","","triplet","303.2000000476837","","","","1","stimuli/stim008_animate_bird_4.png","stimuli/face_lowercase.png","stimuli/tools_uppercase.png","136"
"html-button-response-mod","143","757409","0.0-143.0","76059","","","","","","triplet","233.5","","","","2","stimuli/stim001_animate_fish_1.png","stimuli/stim006_animate_bird_2.png","stimuli/boats_uppercase.png","137"
"html-button-response-mod","144","758175","0.0-144.0","76059","","","","","","triplet","259.60000002384186","","","","2","stimuli/stim003_animate_fish_3.png","stimuli/stim008_animate_bird_4.png","stimuli/stim020_inanimate_tree_4.png","138"
"html-button-response-mod","145","759356","0.0-145.0","76059","","","","","","triplet","676.8999999761581","","","","0","stimuli/boats_lowercase.png","stimuli/tree_uppercase.png","stimuli/stim016_inanimate_boats_4.png","139"
"html-button-response-mod","146","760082","0.0-146.0","76059","","","","","","triplet","222.39999997615814","","","","0","stimuli/stim015_inanimate_boats_3.png","stimuli/stim002_animate_fish_2.png","stimuli/bird_lowercase.png","140"
"html-button-response-mod","147","760846","0.0-147.0","76059","","","","","","triplet","261","","","","1","stimuli/tree_uppercase.png","stimuli/stim004_animate_fish_4.png","stimuli/stim019_inanimate_tree_3.png","141"
"html-button-response-mod","148","761629","0.0-148.0","76059","","","","","","triplet","281.0999999642372","","","","2","stimuli/boats_uppercase.png","stimuli/bird_uppercase.png","stimuli/stim014_inanimate_boats_2.png","142"
"html-button-response-mod","149","762351","0.0-149.0","76059","","","","","","triplet","216.5999999642372","","","","2","stimuli/stim019_inanimate_tree_3.png","stimuli/stim009_animate_face_1.png","stimuli/stim012_animate_face_4.png","143"
"html-button-response-mod","150","763104","0.0-150.0","76059","","","","","","triplet","250.79999995231628","","","","1","stimuli/stim008_animate_bird_4.png","stimuli/bird_lowercase.png","stimuli/tree_uppercase.png","144"
"html-button-response-mod","151","763803","0.0-151.0","76059","","","","","","triplet","196.0999999642372","","","","0","stimuli/stim016_inanimate_boats_4.png","stimuli/fish_uppercase.png","stimuli/stim012_animate_face_4.png","145"
"html-button-response-mod","152","764658","0.0-152.0","76059","","","","","","triplet","352.7999999523163","","","","1","stimuli/fish_lowercase.png","stimuli/fish_uppercase.png","stimuli/tools_lowercase.png","146"
"html-button-response-mod","153","765970","0.0-153.0","76059","","","","","","triplet","810.6000000238419","","","","0","stimuli/stim019_inanimate_tree_3.png","stimuli/stim011_animate_face_3.png","stimuli/stim014_inanimate_boats_2.png","147"
"html-button-response-mod","154","766671","0.0-154.0","76059","","","","","","triplet","199.5","","","","1","stimuli/stim016_inanimate_boats_4.png","stimuli/stim018_inanimate_tree_2.png","stimuli/stim003_animate_fish_3.png","148"
"html-button-response-mod","155","767558","0.0-155.0","76059","","","","","","triplet","383.9000000357628","","","","1","stimuli/stim011_animate_face_3.png","stimuli/stim022_inanimate_tools_2.png","stimuli/fish_uppercase.png","149"
"html-button-response","156","769097","0.0-156.0","76059","","","","","","break","1035.2000000476837","<p>BREAK</p><p>Take a break for as long as you need</p><p>Click the button to continue</p>","0","","","","","",""
"html-button-response-mod","157","769617","0.0-157.0","76059","","","","","","triplet","518.1000000238419","","","","1","stimuli/stim008_animate_bird_4.png","stimuli/fish_lowercase.png","stimuli/stim004_animate_fish_4.png","150"
"html-button-response-mod","158","770327","0.0-158.0","76059","","","","","","triplet","207.80000001192093","","","","1","stimuli/boats_uppercase.png","stimuli/stim022_inanimate_tools_2.png","stimuli/stim023_inanimate_tools_3.png","151"
"html-button-response-mod","159","771085","0.0-159.0","76059","","","","","","triplet","255.70000004768372","","","","1","stimuli/stim007_animate_bird_3.png","stimuli/stim016_inanimate_boats_4.png","stimuli/stim002_animate_fish_2.png","152"
"html-button-response-mod","160","771842","0.0-160.0","76059","","","","","","triplet","253.19999998807907","","","","2","stimuli/stim012_animate_face_4.png","stimuli/tree_lowercase.png","stimuli/tools_uppercase.png","153"
"html-button-response-mod","161","773130","0.0-161.0","76059","","","","","","triplet","786.3999999761581","","","","2","stimuli/stim021_inanimate_tools_1.png","stimuli/stim022_inanimate_tools_2.png","stimuli/face_lowercase.png","154"
"html-button-response-mod","162","773757","0.0-162.0","76059","","","","","","triplet","123.90000003576279","","","","0","stimuli/stim009_animate_face_1.png","stimuli/boats_lowercase.png","stimuli/stim011_animate_face_3.png","155"
"html-button-response-mod","163","774530","0.0-163.0","76059","","","","","","triplet","270.9000000357628","","","","2","stimuli/stim012_animate_face_4.png","stimuli/stim022_inanimate_tools_2.png","stimuli/fish_lowercase.png","156"
"html-button-response-mod","164","775320","0.0-164.0","76059","","","","","","triplet","286.39999997615814","","","","2","stimuli/stim008_animate_bird_4.png","stimuli/boats_uppercase.png","stimuli/tools_uppercase.png","157"
"html-button-response-mod","165","776509","0.0-165.0","76059","","","","","","triplet","687.1999999880791","","","","2","stimuli/stim023_inanimate_tools_3.png","stimuli/stim007_animate_bird_3.png","stimuli/bird_uppercase.png","158"
"html-button-response-mod","166","777211","0.0-166.0","76059","","","","","","triplet","198.20000004768372","","","","2","stimuli/stim010_animate_face_2.png","stimuli/stim007_animate_bird_3.png","stimuli/tree_uppercase.png","159"
"html-button-response-mod","167","778001","0.0-167.0","76059","","","","","","triplet","285","","","","2","stimuli/tools_uppercase.png","stimuli/stim021_inanimate_tools_1.png","stimuli/stim003_animate_fish_3.png","160"
"html-button-response-mod","168","778743","0.0-168.0","76059","","","","","","triplet","238.80000001192093","","","","2","stimuli/fish_lowercase.png","stimuli/boats_lowercase.png","stimuli/stim003_animate_fish_3.png","161"
"html-button-response-mod","169","779491","0.0-169.0","76059","","","","","","triplet","243","","","","2","stimuli/stim007_animate_bird_3.png","stimuli/stim018_inanimate_tree_2.png","stimuli/stim023_inanimate_tools_3.png","162"
"html-button-response-mod","170","780273","0.0-170.0","76059","","","","","","triplet","279.39999997615814","","","","1","stimuli/stim013_inanimate_boats_1.png","stimuli/boats_uppercase.png","stimuli/stim023_inanimate_tools_3.png","163"
"html-button-response-mod","171","781616","0.0-171.0","76059","","","","","","triplet","839.0999999642372","","","","1","stimuli/stim022_inanimate_tools_2.png","stimuli/bird_lowercase.png","stimuli/stim010_animate_face_2.png","164"
"html-button-response-mod","172","782611","0.0-172.0","76059","","","","","","triplet","492.10000002384186","","","","2","stimuli/stim022_inanimate_tools_2.png","stimuli/tree_lowercase.png","stimuli/tools_uppercase.png","165"
"html-button-response-mod","173","783319","0.0-173.0","76059","","","","","","triplet","204.5","","","","1","stimuli/stim002_animate_fish_2.png","stimuli/stim008_animate_bird_4.png","stimuli/face_uppercase.png","166"
"html-button-response-mod","174","783994","0.0-174.0","76059","","","","","","triplet","171.9000000357628","","","","1","stimuli/face_lowercase.png","stimuli/stim022_inanimate_tools_2.png","stimuli/bird_lowercase.png","167"
"html-button-response-mod","175","785444","0.0-175.0","76059","","","","","","triplet","947.9000000357628","","","","0","stimuli/boats_uppercase.png","stimuli/stim021_inanimate_tools_1.png","stimuli/stim023_inanimate_tools_3.png","168"
"html-button-response-mod","176","786105","0.0-176.0","76059","","","","","","triplet","157.69999998807907","","","","1","stimuli/tree_lowercase.png","stimuli/tree_uppercase.png","stimuli/face_lowercase.png","169"
"html-button-response-mod","177","786847","0.0-177.0","76059","","","","","","triplet","239.89999997615814","","","","2","stimuli/stim007_animate_bird_3.png","stimuli/stim004_animate_fish_4.png","stimuli/stim011_animate_face_3.png","170"
"html-button-response-mod","178","787538","0.0-178.0","76059","","","","","","triplet","187.70000004768372","","","","2","stimuli/stim011_animate_face_3.png","stimuli/stim007_animate_bird_3.png","stimuli/stim023_inanimate_tools_3.png","171"
"html-button-response-mod","179","788816","0.0-179.0","76059","","","","","","triplet","773.8000000119209","","","","0","stimuli/stim024_inanimate_tools_4.png","stimuli/stim002_animate_fish_2.png","stimuli/stim007_animate_bird_3.png","172"
"html-button-response-mod","180","790047","0.0-180.0","76059","","","","","","triplet","727.8999999761581","","","","1","stimuli/stim021_inanimate_tools_1.png","stimuli/boats_uppercase.png","stimuli/tools_uppercase.png","173"
"html-button-response-mod","181","790779","0.0-181.0","76059","","","","","","triplet","229.0999999642372","","","","1","stimuli/stim019_inanimate_tree_3.png","stimuli/stim016_inanimate_boats_4.png","stimuli/stim020_inanimate_tree_4.png","174"
"html-button-response-mod","182","791562","0.0-182.0","76059","","","","","","triplet","280.10000002384186","","","","2","stimuli/face_uppercase.png","stimuli/stim019_inanimate_tree_3.png","stimuli/bird_uppercase.png","175"
"html-button-response-mod","183","792263","0.0-183.0","76059","","","","","","triplet","198.30000001192093","","","","0","stimuli/boats_lowercase.png","stimuli/bird_lowercase.png","stimuli/bird_uppercase.png","176"
"html-button-response-mod","184","793029","0.0-184.0","76059","","","","","","triplet","262.10000002384186","","","","1","stimuli/stim018_inanimate_tree_2.png","stimuli/stim004_animate_fish_4.png","stimuli/stim024_inanimate_tools_4.png","177"
"html-button-response-mod","185","793803","0.0-185.0","76059","","","","","","triplet","272.19999998807907","","","","1","stimuli/stim019_inanimate_tree_3.png","stimuli/fish_uppercase.png","stimuli/stim005_animate_bird_1.png","178"
"html-button-response-mod","186","794453","0.0-186.0","76059","","","","","","triplet","147.60000002384186","","","","0","stimuli/tools_uppercase.png","stimuli/stim019_inanimate_tree_3.png","stimuli/tree_lowercase.png","179"
"html-button-response-mod","187","795006","0.0-187.0","76059","","","","","","triplet","50.5","","","","2","stimuli/stim024_inanimate_tools_4.png","stimuli/stim018_inanimate_tree_2.png","stimuli/tools_uppercase.png","180"
"html-button-response-mod","188","795831","0.0-188.0","76059","","","","","","triplet","317.60000002384186","","","","0","stimuli/stim024_inanimate_tools_4.png","stimuli/stim007_animate_bird_3.png","stimuli/tree_lowercase.png","181"
"html-button-response-mod","189","796540","0.0-189.0","76059","","","","","","triplet","207.19999998807907","","","","1","stimuli/stim018_inanimate_tree_2.png","stimuli/stim002_animate_fish_2.png","stimuli/stim020_inanimate_tree_4.png","182"
"html-button-response-mod","190","797084","0.0-190.0","76059","","","","","","triplet","38.40000003576279","","","","0","stimuli/stim010_animate_face_2.png","stimuli/stim019_inanimate_tree_3.png","stimuli/stim022_inanimate_tools_2.png","183"
"html-button-response-mod","191","798510","0.0-191.0","76059","","","","","","triplet","919.8000000119209","","","","2","stimuli/tree_lowercase.png","stimuli/stim004_animate_fish_4.png","stimuli/stim017_inanimate_tree_1.png","184"
"html-button-response-mod","192","799690","0.0-192.0","76059","","","","","","triplet","676.8000000119209","","","","0","stimuli/stim008_animate_bird_4.png","stimuli/tools_lowercase.png","stimuli/stim009_animate_face_1.png","185"
"html-button-response-mod","193","800438","0.0-193.0","76059","","","","","","triplet","245.39999997615814","","","","1","stimuli/bird_uppercase.png","stimuli/tree_uppercase.png","stimuli/boats_lowercase.png","186"
"html-button-response-mod","194","801167","0.0-194.0","76059","","","","","","triplet","225.79999995231628","","","","1","stimuli/stim017_inanimate_tree_1.png","stimuli/stim005_animate_bird_1.png","stimuli/stim007_animate_bird_3.png","187"
"html-button-response-mod","195","801899","0.0-195.0","76059","","","","","","triplet","231.19999998807907","","","","2","stimuli/stim011_animate_face_3.png","stimuli/fish_lowercase.png","stimuli/stim013_inanimate_boats_1.png","188"
"html-button-response-mod","196","802632","0.0-196.0","76059","","","","","","triplet","230.60000002384186","","","","2","stimuli/stim016_inanimate_boats_4.png","stimuli/stim010_animate_face_2.png","stimuli/boats_lowercase.png","189"
"html-button-response-mod","197","803348","0.0-197.0","76059","","","","","","triplet","212.89999997615814","","","","1","stimuli/face_lowercase.png","stimuli/stim009_animate_face_1.png","stimuli/stim011_animate_face_3.png","190"
"html-button-response-mod","198","804081","0.0-198.0","76059","","","","","","triplet","230.19999998807907","","","","2","stimuli/stim022_inanimate_tools_2.png","stimuli/tools_uppercase.png","stimuli/stim011_animate_face_3.png","191"
"html-button-response-mod","199","804807","0.0-199.0","76059","","","","","","triplet","224.19999998807907","","","","1","stimuli/stim011_animate_face_3.png","stimuli/stim017_inanimate_tree_1.png","stimuli/stim006_animate_bird_2.png","192"
"html-button-response-mod","200","805468","0.0-200.0","76059","","","","","","triplet","159","","","","1","stimuli/tree_lowercase.png","stimuli/stim003_animate_fish_3.png","stimuli/boats_lowercase.png","193"
"html-button-response-mod","201","806306","0.0-201.0","76059","","","","","","triplet","333.30000001192093","","","","2","stimuli/tree_uppercase.png","stimuli/stim010_animate_face_2.png","stimuli/stim016_inanimate_boats_4.png","194"
"html-button-response-mod","202","807488","0.0-202.0","76059","","","","","","triplet","680.1000000238419","","","","1","stimuli/stim014_inanimate_boats_2.png","stimuli/stim010_animate_face_2.png","stimuli/stim006_animate_bird_2.png","195"
"html-button-response-mod","203","808123","0.0-203.0","76059","","","","","","triplet","129.69999998807907","","","","2","stimuli/stim016_inanimate_boats_4.png","stimuli/stim021_inanimate_tools_1.png","stimuli/stim001_animate_fish_1.png","196"
"html-button-response-mod","204","809434","0.0-204.0","76059","","","","","","triplet","807","","","","0","stimuli/tools_uppercase.png","stimuli/stim003_animate_fish_3.png","stimuli/stim005_animate_bird_1.png","197"
"html-button-response-mod","205","810486","0.0-205.0","76059","","","","","","triplet","548.7000000476837","","","","1","stimuli/stim021_inanimate_tools_1.png","stimuli/stim006_animate_bird_2.png","stimuli/stim013_inanimate_boats_1.png","198"
"html-button-response-mod","206","811755","0.0-206.0","76059","","","","","","triplet","765.5","","","","0","stimuli/tools_lowercase.png","stimuli/stim020_inanimate_tree_4.png","stimuli/stim015_inanimate_boats_3.png","199"
"html-button-response","207","813418","0.0-207.0","76059","","","","","","break","1160.300000011921","<p>BREAK</p><p>Take a break for as long as you need</p><p>Click the button to continue</p>","0","","","","","",""
"html-button-response-mod","208","814477","0.0-208.0","76059","","","","","","triplet","1057.3999999761581","","","","0","stimuli/tools_uppercase.png","stimuli/fish_uppercase.png","stimuli/stim005_animate_bird_1.png","200"
"html-button-response-mod","209","815104","0.0-209.0","76059","","","","","","triplet","124.39999997615814","","","","2","stimuli/stim020_inanimate_tree_4.png","stimuli/tree_uppercase.png","stimuli/stim021_inanimate_tools_1.png","201"
"html-button-response-mod","210","816399","0.0-210.0","76059","","","","","","triplet","792.0999999642372","","","","0","stimuli/bird_lowercase.png","stimuli/stim006_animate_bird_2.png","stimuli/stim010_animate_face_2.png","202"
"html-button-response-mod","211","817116","0.0-211.0","76059","","","","","","triplet","213.10000002384186","","","","2","stimuli/stim013_inanimate_boats_1.png","stimuli/tree_lowercase.png","stimuli/stim023_inanimate_tools_3.png","203"
"html-button-response-mod","212","818499","0.0-212.0","76059","","","","","","triplet","879.5999999642372","","","","2","stimuli/stim010_animate_face_2.png","stimuli/stim006_animate_bird_2.png","stimuli/face_uppercase.png","204"
"html-button-response-mod","213","819519","0.0-213.0","76059","","","","","","triplet","516.5","","","","2","stimuli/stim015_inanimate_boats_3.png","stimuli/stim006_animate_bird_2.png","stimuli/stim013_inanimate_boats_1.png","205"
"html-button-response-mod","214","820764","0.0-214.0","76059","","","","","","triplet","743.1000000238419","","","","0","stimuli/stim024_inanimate_tools_4.png","stimuli/stim018_inanimate_tree_2.png","stimuli/stim007_animate_bird_3.png","206"
"html-button-response-mod","215","821985","0.0-215.0","76059","","","","","","triplet","716.6999999880791","","","","0","stimuli/tree_uppercase.png","stimuli/bird_lowercase.png","stimuli/boats_lowercase.png","207"
"html-button-response-mod","216","822768","0.0-216.0","76059","","","","","","triplet","280.0999999642372","","","","2","stimuli/stim001_animate_fish_1.png","stimuli/stim006_animate_bird_2.png","stimuli/stim004_animate_fish_4.png","208"
"html-button-response-mod","217","823955","0.0-217.0","76059","","","","","","triplet","684.8000000119209","","","","1","stimuli/tools_uppercase.png","stimuli/stim013_inanimate_boats_1.png","stimuli/stim021_inanimate_tools_1.png","209"
"html-button-response-mod","218","824829","0.0-218.0","76059","","","","","","triplet","371.9000000357628","","","","0","stimuli/stim022_inanimate_tools_2.png","stimuli/stim021_inanimate_tools_1.png","stimuli/stim014_inanimate_boats_2.png","210"
"html-button-response-mod","219","826024","0.0-219.0","76059","","","","","","triplet","693.8000000119209","","","","1","stimuli/fish_lowercase.png","stimuli/stim014_inanimate_boats_2.png","stimuli/tree_lowercase.png","211"
"html-button-response-mod","220","826962","0.0-220.0","76059","","","","","","triplet","436.19999998807907","","","","2","stimuli/tools_uppercase.png","stimuli/stim018_inanimate_tree_2.png","stimuli/stim003_animate_fish_3.png","212"
"html-button-response-mod","221","827835","0.0-221.0","76059","","","","","","triplet","371.2000000476837","","","","1","stimuli/stim007_animate_bird_3.png","stimuli/stim006_animate_bird_2.png","stimuli/face_uppercase.png","213"
"html-button-response-mod","222","828673","0.0-222.0","76059","","","","","","triplet","334.2999999523163","","","","0","stimuli/tree_lowercase.png","stimuli/stim024_inanimate_tools_4.png","stimuli/stim022_inanimate_tools_2.png","214"
"html-button-response-mod","223","829447","0.0-223.0","76059","","","","","","triplet","271.19999998807907","","","","2","stimuli/stim024_inanimate_tools_4.png","stimuli/stim018_inanimate_tree_2.png","stimuli/face_uppercase.png","215"
"html-button-response-mod","224","830197","0.0-224.0","76059","","","","","","triplet","247","","","","2","stimuli/stim003_animate_fish_3.png","stimuli/stim024_inanimate_tools_4.png","stimuli/tree_uppercase.png","216"
"html-button-response-mod","225","830955","0.0-225.0","76059","","","","","","triplet","252.39999997615814","","","","2","stimuli/stim014_inanimate_boats_2.png","stimuli/bird_lowercase.png","stimuli/stim007_animate_bird_3.png","217"
"html-button-response-mod","226","831703","0.0-226.0","76059","","","","","","triplet","246.89999997615814","","","","0","stimuli/stim006_animate_bird_2.png","stimuli/stim005_animate_bird_1.png","stimuli/stim014_inanimate_boats_2.png","218"
"html-button-response-mod","227","832502","0.0-227.0","76059","","","","","","triplet","297.0999999642372","","","","1","stimuli/stim017_inanimate_tree_1.png","stimuli/stim018_inanimate_tree_2.png","stimuli/stim016_inanimate_boats_4.png","219"
"html-button-response-mod","228","833280","0.0-228.0","76059","","","","","","triplet","272.60000002384186","","","","2","stimuli/stim020_inanimate_tree_4.png","stimuli/bird_uppercase.png","stimuli/stim013_inanimate_boats_1.png","220"
"html-button-response-mod","229","833999","0.0-229.0","76059","","","","","","triplet","217.60000002384186","","","","2","stimuli/tools_uppercase.png","stimuli/stim014_inanimate_boats_2.png","stimuli/stim005_animate_bird_1.png","221"
"html-button-response-mod","230","834767","0.0-230.0","76059","","","","","","triplet","265.9000000357628","","","","2","stimuli/stim004_animate_fish_4.png","stimuli/stim007_animate_bird_3.png","stimuli/tools_lowercase.png","222"
"html-button-response-mod","231","835947","0.0-231.0","76059","","","","","","triplet","676.1999999880791","","","","1","stimuli/tree_lowercase.png","stimuli/fish_lowercase.png","stimuli/stim020_inanimate_tree_4.png","223"
"html-button-response-mod","232","837128","0.0-232.0","76059","","","","","","triplet","677.3000000119209","","","","0","stimuli/stim014_inanimate_boats_2.png","stimuli/stim006_animate_bird_2.png","stimuli/stim004_animate_fish_4.png","224"
"html-button-response-mod","233","837949","0.0-233.0","76059","","","","","","triplet","318.9000000357628","","","","2","stimuli/stim017_inanimate_tree_1.png","stimuli/stim016_inanimate_boats_4.png","stimuli/bird_lowercase.png","225"
"html-button-response-mod","234","838724","0.0-234.0","76059","","","","","","triplet","273.19999998807907","","","","1","stimuli/stim017_inanimate_tree_1.png","stimuli/stim023_inanimate_tools_3.png","stimuli/stim018_inanimate_tree_2.png","226"
"html-button-response-mod","235","839468","0.0-235.0","76059","","","","","","triplet","241.69999998807907","","","","2","stimuli/stim017_inanimate_tree_1.png","stimuli/stim024_inanimate_tools_4.png","stimuli/stim004_animate_fish_4.png","227"
"html-button-response-mod","236","840238","0.0-236.0","76059","","","","","","triplet","265.60000002384186","","","","2","stimuli/stim016_inanimate_boats_4.png","stimuli/stim019_inanimate_tree_3.png","stimuli/boats_uppercase.png","228"
"html-button-response-mod","237","841053","0.0-237.0","76059","","","","","","triplet","311.80000001192093","","","","2","stimuli/face_uppercase.png","stimuli/stim011_animate_face_3.png","stimuli/stim018_inanimate_tree_2.png","229"
"html-button-response-mod","238","842489","0.0-238.0","76059","","","","","","triplet","933.6999999880791","","","","0","stimuli/face_uppercase.png","stimuli/boats_lowercase.png","stimuli/stim004_animate_fish_4.png","230"
"html-button-response-mod","239","843203","0.0-239.0","76059","","","","","","triplet","211.89999997615814","","","","1","stimuli/stim021_inanimate_tools_1.png","stimuli/bird_lowercase.png","stimuli/stim008_animate_bird_4.png","231"
"html-button-response-mod","240","844028","0.0-240.0","76059","","","","","","triplet","323.5","","","","1","stimuli/stim009_animate_face_1.png","stimuli/stim001_animate_fish_1.png","stimuli/stim015_inanimate_boats_3.png","232"
"html-button-response-mod","241","844826","0.0-241.0","76059","","","","","","triplet","295.2000000476837","","","","2","stimuli/stim006_animate_bird_2.png","stimuli/fish_lowercase.png","stimuli/stim019_inanimate_tree_3.png","233"
"html-button-response-mod","242","845544","0.0-242.0","76059","","","","","","triplet","215.80000001192093","","","","2","stimuli/fish_lowercase.png","stimuli/stim007_animate_bird_3.png","stimuli/boats_lowercase.png","234"
"html-button-response-mod","243","846310","0.0-243.0","76059","","","","","","triplet","260.60000002384186","","","","2","stimuli/stim014_inanimate_boats_2.png","stimuli/stim010_animate_face_2.png","stimuli/stim004_animate_fish_4.png","235"
"html-button-response-mod","244","847507","0.0-244.0","76059","","","","","","triplet","692.5999999642372","","","","2","stimuli/tree_lowercase.png","stimuli/fish_lowercase.png","stimuli/stim009_animate_face_1.png","236"
"html-button-response-mod","245","848492","0.0-245.0","76059","","","","","","triplet","482.5","","","","0","stimuli/stim015_inanimate_boats_3.png","stimuli/bird_uppercase.png","stimuli/stim008_animate_bird_4.png","237"
"html-button-response-mod","246","849371","0.0-246.0","76059","","","","","","triplet","375.19999998807907","","","","0","stimuli/tools_uppercase.png","stimuli/stim009_animate_face_1.png","stimuli/face_uppercase.png","238"
"html-button-response-mod","247","850284","0.0-247.0","76059","","","","","","triplet","409.89999997615814","","","","2","stimuli/fish_uppercase.png","stimuli/stim003_animate_fish_3.png","stimuli/stim016_inanimate_boats_4.png","239"
"html-button-response-mod","248","851276","0.0-248.0","76059","","","","","","triplet","490.10000002384186","","","","0","stimuli/stim020_inanimate_tree_4.png","stimuli/stim018_inanimate_tree_2.png","stimuli/stim011_animate_face_3.png","240"
"html-button-response-mod","249","852075","0.0-249.0","76059","","","","","","triplet","296.5999999642372","","","","2","stimuli/stim019_inanimate_tree_3.png","stimuli/boats_uppercase.png","stimuli/stim023_inanimate_tools_3.png","241"
"html-button-response-mod","250","853084","0.0-250.0","76059","","","","","","triplet","506.5","","","","0","stimuli/stim021_inanimate_tools_1.png","stimuli/stim017_inanimate_tree_1.png","stimuli/stim022_inanimate_tools_2.png","242"
"html-button-response-mod","251","853875","0.0-251.0","76059","","","","","","triplet","288","","","","0","stimuli/stim013_inanimate_boats_1.png","stimuli/stim019_inanimate_tree_3.png","stimuli/tools_uppercase.png","243"
"html-button-response-mod","252","854771","0.0-252.0","76059","","","","","","triplet","392.69999998807907","","","","2","stimuli/stim018_inanimate_tree_2.png","stimuli/fish_lowercase.png","stimuli/stim006_animate_bird_2.png","244"
"html-button-response-mod","253","855724","0.0-253.0","76059","","","","","","triplet","450.89999997615814","","","","0","stimuli/stim001_animate_fish_1.png","stimuli/fish_uppercase.png","stimuli/tree_lowercase.png","245"
"html-button-response-mod","254","857010","0.0-254.0","76059","","","","","","triplet","783.3000000119209","","","","1","stimuli/tree_lowercase.png","stimuli/stim015_inanimate_boats_3.png","stimuli/boats_uppercase.png","246"
"html-button-response-mod","255","857833","0.0-255.0","76059","","","","","","triplet","320.19999998807907","","","","2","stimuli/tools_lowercase.png","stimuli/fish_uppercase.png","stimuli/tools_uppercase.png","247"
"html-button-response-mod","256","858673","0.0-256.0","76059","","","","","","triplet","338.30000001192093","","","","2","stimuli/stim024_inanimate_tools_4.png","stimuli/stim022_inanimate_tools_2.png","stimuli/stim017_inanimate_tree_1.png","248"
"html-button-response-mod","257","859511","0.0-257.0","76059","","","","","","triplet","336.80000001192093","","","","2","stimuli/tree_lowercase.png","stimuli/stim003_animate_fish_3.png","stimuli/stim017_inanimate_tree_1.png","249"
"html-button-response","258","860252","0.0-258.0","76059","","","","","","break","238.5","<p>BREAK</p><p>Take a break for as long as you need</p><p>Click the button to continue</p>","0","","","","","",""
"html-button-response-mod","259","861001","0.0-259.0","76059","","","","","","triplet","747.1999999880791","","","","0","stimuli/stim001_animate_fish_1.png","stimuli/boats_lowercase.png","stimuli/stim011_animate_face_3.png","250"
"html-button-response-mod","260","862141","0.0-260.0","76059","","","","","","triplet","638.5999999642372","","","","0","stimuli/stim021_inanimate_tools_1.png","stimuli/tree_lowercase.png","stimuli/fish_lowercase.png","251"
"html-button-response-mod","261","863503","0.0-261.0","76059","","","","","","triplet","860.3000000119209","","","","1","stimuli/stim021_inanimate_tools_1.png","stimuli/stim023_inanimate_tools_3.png","stimuli/stim017_inanimate_tree_1.png","252"
"html-button-response-mod","262","864301","0.0-262.0","76059","","","","","","triplet","296.60000002384186","","","","2","stimuli/stim004_animate_fish_4.png","stimuli/bird_uppercase.png","stimuli/stim024_inanimate_tools_4.png","253"
"html-button-response-mod","263","865752","0.0-263.0","76059","","","","","","triplet","948.8000000119209","","","","0","stimuli/stim021_inanimate_tools_1.png","stimuli/fish_lowercase.png","stimuli/tools_lowercase.png","254"
"html-button-response-mod","264","866600","0.0-264.0","76059","","","","","","triplet","342.2000000476837","","","","1","stimuli/tools_uppercase.png","stimuli/stim020_inanimate_tree_4.png","stimuli/stim016_inanimate_boats_4.png","255"
"html-button-response-mod","265","867396","0.0-265.0","76059","","","","","","triplet","294.39999997615814","","","","2","stimuli/stim011_animate_face_3.png","stimuli/stim003_animate_fish_3.png","stimuli/fish_uppercase.png","256"
"html-button-response-mod","266","868244","0.0-266.0","76059","","","","","","triplet","345.69999998807907","","","","2","stimuli/tree_uppercase.png","stimuli/tools_lowercase.png","stimuli/stim023_inanimate_tools_3.png","257"
"html-button-response-mod","267","869089","0.0-267.0","76059","","","","","","triplet","343.10000002384186","","","","1","stimuli/stim009_animate_face_1.png","stimuli/stim010_animate_face_2.png","stimuli/bird_uppercase.png","258"
"html-button-response-mod","268","869962","0.0-268.0","76059","","","","","","triplet","370.19999998807907","","","","1","stimuli/face_uppercase.png","stimuli/stim010_animate_face_2.png","stimuli/bird_uppercase.png","259"
"html-button-response-mod","269","870860","0.0-269.0","76059","","","","","","triplet","395.0999999642372","","","","0","stimuli/stim009_animate_face_1.png","stimuli/bird_uppercase.png","stimuli/stim013_inanimate_boats_1.png","260"
"html-button-response-mod","270","872602","0.0-270.0","76059","","","","","","triplet","1237.699999988079","","","","1","stimuli/stim010_animate_face_2.png","stimuli/stim008_animate_bird_4.png","stimuli/stim016_inanimate_boats_4.png","261"
"html-button-response-mod","271","873482","0.0-271.0","76059","","","","","","triplet","377.60000002384186","","","","1","stimuli/stim005_animate_bird_1.png","stimuli/boats_uppercase.png","stimuli/bird_uppercase.png","262"
"html-button-response-mod","272","874954","0.0-272.0","76059","","","","","","triplet","968.5","","","","0","stimuli/bird_uppercase.png","stimuli/stim008_animate_bird_4.png","stimuli/stim020_inanimate_tree_4.png","263"
"html-button-response-mod","273","875827","0.0-273.0","76059","","","","","","triplet","370.7000000476837","","","","2","stimuli/stim002_animate_fish_2.png","stimuli/stim008_animate_bird_4.png","stimuli/stim005_animate_bird_1.png","264"
"html-button-response-mod","274","876887","0.0-274.0","76059","","","","","","triplet","557.8000000119209","","","","2","stimuli/stim001_animate_fish_1.png","stimuli/stim014_inanimate_boats_2.png","stimuli/stim024_inanimate_tools_4.png","265"
"html-button-response-mod","275","877765","0.0-275.0","76059","","","","","","triplet","373.39999997615814","","","","0","stimuli/stim015_inanimate_boats_3.png","stimuli/stim014_inanimate_boats_2.png","stimuli/stim021_inanimate_tools_1.png","266"
"html-button-response-mod","276","878523","0.0-276.0","76059","","","","","","triplet","256.10000002384186","","","","0","stimuli/stim011_animate_face_3.png","stimuli/boats_uppercase.png","stimuli/stim005_animate_bird_1.png","267"
"html-button-response-mod","277","879329","0.0-277.0","76059","","","","","","triplet","304.4000000357628","","","","2","stimuli/stim021_inanimate_tools_1.png","stimuli/stim007_animate_bird_3.png","stimuli/stim011_animate_face_3.png","268"
"html-button-response-mod","278","880754","0.0-278.0","76059","","","","","","triplet","920.8000000119209","","","","1","stimuli/stim017_inanimate_tree_1.png","stimuli/stim023_inanimate_tools_3.png","stimuli/stim010_animate_face_2.png","269"
"html-button-response-mod","279","881553","0.0-279.0","76059","","","","","","triplet","296.80000001192093","","","","0","stimuli/fish_lowercase.png","stimuli/tree_lowercase.png","stimuli/tree_uppercase.png","270"
"html-button-response-mod","280","882441","0.0-280.0","76059","","","","","","triplet","384.10000002384186","","","","1","stimuli/stim005_animate_bird_1.png","stimuli/stim008_animate_bird_4.png","stimuli/stim016_inanimate_boats_4.png","271"
"html-button-response-mod","281","883433","0.0-281.0","76059","","","","","","triplet","490.10000002384186","","","","0","stimuli/stim004_animate_fish_4.png","stimuli/stim014_inanimate_boats_2.png","stimuli/stim020_inanimate_tree_4.png","272"
"html-button-response-mod","282","884298","0.0-282.0","76059","","","","","","triplet","362.30000001192093","","","","0","stimuli/fish_uppercase.png","stimuli/stim001_animate_fish_1.png","stimuli/tools_uppercase.png","273"
"html-button-response-mod","283","885413","0.0-283.0","76059","","","","","","triplet","611.3000000119209","","","","0","stimuli/stim007_animate_bird_3.png","stimuli/tools_uppercase.png","stimuli/tree_uppercase.png","274"
"html-button-response-mod","284","886227","0.0-284.0","76059","","","","","","triplet","311","","","","2","stimuli/stim004_animate_fish_4.png","stimuli/stim018_inanimate_tree_2.png","stimuli/tree_lowercase.png","275"
"html-button-response-mod","285","887092","0.0-285.0","76059","","","","","","triplet","362.80000001192093","","","","1","stimuli/stim021_inanimate_tools_1.png","stimuli/stim003_animate_fish_3.png","stimuli/tree_lowercase.png","276"
"html-button-response-mod","286","887962","0.0-286.0","76059","","","","","","triplet","366.2000000476837","","","","0","stimuli/stim008_animate_bird_4.png","stimuli/stim001_animate_fish_1.png","stimuli/stim017_inanimate_tree_1.png","277"
"html-button-response-mod","287","888868","0.0-287.0","76059","","","","","","triplet","403.60000002384186","","","","2","stimuli/fish_lowercase.png","stimuli/face_uppercase.png","stimuli/stim006_animate_bird_2.png","278"
"html-button-response-mod","288","889650","0.0-288.0","76059","","","","","","triplet","278","","","","0","stimuli/stim003_animate_fish_3.png","stimuli/stim002_animate_fish_2.png","stimuli/stim015_inanimate_boats_3.png","279"
"html-button-response-mod","289","890920","0.0-289.0","76059","","","","","","triplet","767.3000000119209","","","","0","stimuli/bird_lowercase.png","stimuli/fish_lowercase.png","stimuli/boats_lowercase.png","280"
"html-button-response-mod","290","891651","0.0-290.0","76059","","","","","","triplet","229.4000000357628","","","","2","stimuli/tree_uppercase.png","stimuli/face_lowercase.png","stimuli/stim017_inanimate_tree_1.png","281"
"html-button-response-mod","291","892420","0.0-291.0","76059","","","","","","triplet","266.5","","","","2","stimuli/stim021_inanimate_tools_1.png","stimuli/stim020_inanimate_tree_4.png","stimuli/stim004_animate_fish_4.png","282"
"html-button-response-mod","292","893209","0.0-292.0","76059","","","","","","triplet","284.80000001192093","","","","2","stimuli/tree_lowercase.png","stimuli/stim012_animate_face_4.png","stimuli/fish_uppercase.png","283"
"html-button-response-mod","293","893974","0.0-293.0","76059","","","","","","triplet","263.60000002384186","","","","2","stimuli/stim019_inanimate_tree_3.png","stimuli/stim020_inanimate_tree_4.png","stimuli/stim015_inanimate_boats_3.png","284"
"html-button-response-mod","294","894863","0.0-294.0","76059","","","","","","triplet","386.4000000357628","","","","0","stimuli/stim021_inanimate_tools_1.png","stimuli/boats_uppercase.png","stimuli/face_lowercase.png","285"
"html-button-response-mod","295","895676","0.0-295.0","76059","","","","","","triplet","309.80000001192093","","","","2","stimuli/bird_lowercase.png","stimuli/stim002_animate_fish_2.png","stimuli/stim003_animate_fish_3.png","286"
"html-button-response-mod","296","896636","0.0-296.0","76059","","","","","","triplet","457.89999997615814","","","","0","stimuli/stim023_inanimate_tools_3.png","stimuli/stim020_inanimate_tree_4.png","stimuli/stim007_animate_bird_3.png","287"
"html-button-response-mod","297","898031","0.0-297.0","76059","","","","","","triplet","892.1000000238419","","","","1","stimuli/stim020_inanimate_tree_4.png","stimuli/boats_uppercase.png","stimuli/stim010_animate_face_2.png","288"
"html-button-response-mod","298","898829","0.0-298.0","76059","","","","","","triplet","294.30000001192093","","","","2","stimuli/stim006_animate_bird_2.png","stimuli/stim019_inanimate_tree_3.png","stimuli/stim020_inanimate_tree_4.png","289"
"html-button-response-mod","299","900188","0.0-299.0","76059","","","","","","triplet","857","","","","1","stimuli/stim008_animate_bird_4.png","stimuli/stim013_inanimate_boats_1.png","stimuli/stim017_inanimate_tree_1.png","290"
"html-button-response-mod","300","901150","0.0-300.0","76059","","","","","","triplet","458.60000002384186","","","","1","stimuli/tools_lowercase.png","stimuli/stim015_inanimate_boats_3.png","stimuli/stim017_inanimate_tree_1.png","291"
"html-button-response-mod","301","902022","0.0-301.0","76059","","","","","","triplet","370.39999997615814","","","","2","stimuli/face_lowercase.png","stimuli/face_uppercase.png","stimuli/stim002_animate_fish_2.png","292"
"html-button-response-mod","302","903439","0.0-302.0","76059","","","","","","triplet","914.9000000357628","","","","1","stimuli/stim020_inanimate_tree_4.png","stimuli/stim011_animate_face_3.png","stimuli/tree_lowercase.png","293"
"html-button-response-mod","303","904441","0.0-303.0","76059","","","","","","triplet","500","","","","0","stimuli/boats_lowercase.png","stimuli/stim006_animate_bird_2.png","stimuli/stim020_inanimate_tree_4.png","294"
"html-button-response-mod","304","905289","0.0-304.0","76059","","","","","","triplet","345.7000000476837","","","","0","stimuli/stim015_inanimate_boats_3.png","stimuli/stim020_inanimate_tree_4.png","stimuli/boats_lowercase.png","295"
"html-button-response-mod","305","906151","0.0-305.0","76059","","","","","","triplet","359.60000002384186","","","","1","stimuli/tree_lowercase.png","stimuli/stim001_animate_fish_1.png","stimuli/stim017_inanimate_tree_1.png","296"
"html-button-response-mod","306","906983","0.0-306.0","76059","","","","","","triplet","329.60000002384186","","","","1","stimuli/stim022_inanimate_tools_2.png","stimuli/fish_uppercase.png","stimuli/stim007_animate_bird_3.png","297"
"html-button-response-mod","307","907773","0.0-307.0","76059","","","","","","triplet","287.89999997615814","","","","2","stimuli/bird_lowercase.png","stimuli/stim005_animate_bird_1.png","stimuli/stim007_animate_bird_3.png","298"
"html-button-response-mod","308","908579","0.0-308.0","76059","","","","","","triplet","303.5","","","","2","stimuli/stim003_animate_fish_3.png","stimuli/stim004_animate_fish_4.png","stimuli/fish_uppercase.png","299"
"html-button-response","309","910126","0.0-309.0","76059","","","","","","break","1045.199999988079","<p>BREAK</p><p>Take a break for as long as you need</p><p>Click the button to continue</p>","0","","","","","",""
"html-button-response-mod","310","911283","0.0-310.0","76059","","","","","","triplet","1156.199999988079","","","","1","stimuli/stim020_inanimate_tree_4.png","stimuli/tools_lowercase.png","stimuli/face_uppercase.png","300"
"html-button-response-mod","311","911968","0.0-311.0","76059","","","","","","triplet","181.60000002384186","","","","2","stimuli/stim024_inanimate_tools_4.png","stimuli/tree_lowercase.png","stimuli/boats_uppercase.png","301"
"html-button-response-mod","312","912594","0.0-312.0","76059","","","","","","triplet","122.69999998807907","","","","0","stimuli/stim012_animate_face_4.png","stimuli/face_uppercase.png","stimuli/bird_lowercase.png","302"
"html-button-response-mod","313","913238","0.0-313.0","76059","","","","","","triplet","141","","","","1","stimuli/fish_lowercase.png","stimuli/tools_lowercase.png","stimuli/stim010_animate_face_2.png","303"
"html-button-response-mod","314","913786","0.0-314.0","76059","","","","","","triplet","45.39999997615814","","","","2","stimuli/bird_uppercase.png","stimuli/stim003_animate_fish_3.png","stimuli/stim021_inanimate_tools_1.png","304"
"html-button-response-mod","315","914476","0.0-315.0","76059","","","","","","triplet","185.60000002384186","","","","0","stimuli/stim018_inanimate_tree_2.png","stimuli/stim019_inanimate_tree_3.png","stimuli/fish_uppercase.png","305"
"html-button-response-mod","316","915071","0.0-316.0","76059","","","","","","triplet","88.80000001192093","","","","1","stimuli/stim010_animate_face_2.png","stimuli/boats_uppercase.png","stimuli/tools_uppercase.png","306"
"html-button-response-mod","317","915692","0.0-317.0","76059","","","","","","triplet","116.40000003576279","","","","1","stimuli/stim014_inanimate_boats_2.png","stimuli/stim015_inanimate_boats_3.png","stimuli/stim002_animate_fish_2.png","307"
"html-button-response-mod","318","916659","0.0-318.0","76059","","","","","","triplet","464.69999998807907","","","","1","stimuli/stim012_animate_face_4.png","stimuli/stim009_animate_face_1.png","stimuli/stim015_inanimate_boats_3.png","308"
"html-button-response-mod","319","917475","0.0-319.0","76059","","","","","","triplet","313","","","","1","stimuli/stim021_inanimate_tools_1.png","stimuli/stim007_animate_bird_3.png","stimuli/stim018_inanimate_tree_2.png","309"
"html-button-response-mod","320","918729","0.0-320.0","76059","","","","","","triplet","751.3000000119209","","","","1","stimuli/boats_lowercase.png","stimuli/fish_uppercase.png","stimuli/stim005_animate_bird_1.png","310"
"html-button-response-mod","321","919429","0.0-321.0","76059","","","","","","triplet","198.5","","","","2","stimuli/fish_uppercase.png","stimuli/stim016_inanimate_boats_4.png","stimuli/stim002_animate_fish_2.png","311"
"html-button-response-mod","322","920171","0.0-322.0","76059","","","","","","triplet","237.9000000357628","","","","2","stimuli/stim011_animate_face_3.png","stimuli/stim024_inanimate_tools_4.png","stimuli/boats_uppercase.png","312"
"html-button-response-mod","323","920887","0.0-323.0","76059","","","","","","triplet","211.80000001192093","","","","2","stimuli/stim006_animate_bird_2.png","stimuli/stim004_animate_fish_4.png","stimuli/stim013_inanimate_boats_1.png","313"
"html-button-response-mod","324","921733","0.0-324.0","76059","","","","","","triplet","341.19999998807907","","","","2","stimuli/bird_uppercase.png","stimuli/boats_uppercase.png","stimuli/face_lowercase.png","314"
"html-button-response-mod","325","922451","0.0-325.0","76059","","","","","","triplet","215.19999998807907","","","","2","stimuli/tools_uppercase.png","stimuli/stim023_inanimate_tools_3.png","stimuli/stim014_inanimate_boats_2.png","315"
"html-button-response-mod","326","923836","0.0-326.0","76059","","","","","","triplet","882.9000000357628","","","","0","stimuli/stim014_inanimate_boats_2.png","stimuli/stim002_animate_fish_2.png","stimuli/tools_lowercase.png","316"
"html-button-response-mod","327","924537","0.0-327.0","76059","","","","","","triplet","196.80000001192093","","","","1","stimuli/stim015_inanimate_boats_3.png","stimuli/stim014_inanimate_boats_2.png","stimuli/boats_uppercase.png","317"
"html-button-response-mod","328","925847","0.0-328.0","76059","","","","","","triplet","805.9000000357628","","","","1","stimuli/stim009_animate_face_1.png","stimuli/boats_lowercase.png","stimuli/stim017_inanimate_tree_1.png","318"
"html-button-response-mod","329","926598","0.0-329.0","76059","","","","","","triplet","248.80000001192093","","","","2","stimuli/boats_uppercase.png","stimuli/stim017_inanimate_tree_1.png","stimuli/stim024_inanimate_tools_4.png","319"
"html-button-response-mod","330","927485","0.0-330.0","76059","","","","","","triplet","381.5","","","","1","stimuli/fish_uppercase.png","stimuli/face_uppercase.png","stimuli/stim019_inanimate_tree_3.png","320"
"html-button-response-mod","331","928365","0.0-331.0","76059","","","","","","triplet","378.30000001192093","","","","0","stimuli/stim004_animate_fish_4.png","stimuli/stim003_animate_fish_3.png","stimuli/stim014_inanimate_boats_2.png","321"
"html-button-response-mod","332","929181","0.0-332.0","76059","","","","","","triplet","312.80000001192093","","","","0","stimuli/stim023_inanimate_tools_3.png","stimuli/bird_lowercase.png","stimuli/stim015_inanimate_boats_3.png","322"
"html-button-response-mod","333","929995","0.0-333.0","76059","","","","","","triplet","308.60000002384186","","","","2","stimuli/stim009_animate_face_1.png","stimuli/stim012_animate_face_4.png","stimuli/face_lowercase.png","323"
"html-button-response-mod","334","930758","0.0-334.0","76059","","","","","","triplet","261.5999999642372","","","","1","stimuli/tree_uppercase.png","stimuli/tools_uppercase.png","stimuli/stim021_inanimate_tools_1.png","324"
"html-button-response-mod","335","931517","0.0-335.0","76059","","","","","","triplet","257.19999998807907","","","","2","stimuli/stim006_animate_bird_2.png","stimuli/stim014_inanimate_boats_2.png","stimuli/bird_uppercase.png","325"
"html-button-response-mod","336","932333","0.0-336.0","76059","","","","","","triplet","313","","","","2","stimuli/face_uppercase.png","stimuli/stim018_inanimate_tree_2.png","stimuli/stim016_inanimate_boats_4.png","326"
"html-button-response-mod","337","933154","0.0-337.0","76059","","","","","","triplet","320","","","","1","stimuli/bird_uppercase.png","stimuli/stim023_inanimate_tools_3.png","stimuli/stim006_animate_bird_2.png","327"
"html-button-response-mod","338","934108","0.0-338.0","76059","","","","","","triplet","449.60000002384186","","","","0","stimuli/boats_lowercase.png","stimuli/tools_lowercase.png","stimuli/stim016_inanimate_boats_4.png","328"
"html-button-response-mod","339","934980","0.0-339.0","76059","","","","","","triplet","371","","","","2","stimuli/stim022_inanimate_tools_2.png","stimuli/tree_lowercase.png","stimuli/bird_uppercase.png","329"
"html-button-response-mod","340","935843","0.0-340.0","76059","","","","","","triplet","358.7000000476837","","","","2","stimuli/stim001_animate_fish_1.png","stimuli/stim023_inanimate_tools_3.png","stimuli/stim011_animate_face_3.png","330"
"html-button-response-mod","341","936739","0.0-341.0","76059","","","","","","triplet","394.10000002384186","","","","0","stimuli/stim012_animate_face_4.png","stimuli/stim008_animate_bird_4.png","stimuli/tools_uppercase.png","331"
"html-button-response-mod","342","937521","0.0-342.0","76059","","","","","","triplet","280.89999997615814","","","","2","stimuli/stim009_animate_face_1.png","stimuli/stim006_animate_bird_2.png","stimuli/stim003_animate_fish_3.png","332"
"html-button-response-mod","343","938384","0.0-343.0","76059","","","","","","triplet","360.60000002384186","","","","2","stimuli/stim018_inanimate_tree_2.png","stimuli/tree_lowercase.png","stimuli/stim001_animate_fish_1.png","333"
"html-button-response-mod","344","939972","0.0-344.0","76059","","","","","","triplet","1083.800000011921","","","","1","stimuli/stim017_inanimate_tree_1.png","stimuli/stim002_animate_fish_2.png","stimuli/stim019_inanimate_tree_3.png","334"
"html-button-response-mod","345","940892","0.0-345.0","76059","","","","","","triplet","417","","","","0","stimuli/stim008_animate_bird_4.png","stimuli/stim022_inanimate_tools_2.png","stimuli/stim020_inanimate_tree_4.png","335"
"html-button-response-mod","346","941723","0.0-346.0","76059","","","","","","triplet","329.80000001192093","","","","2","stimuli/stim020_inanimate_tree_4.png","stimuli/stim017_inanimate_tree_1.png","stimuli/stim011_animate_face_3.png","336"
"html-button-response-mod","347","942668","0.0-347.0","76059","","","","","","triplet","442.89999997615814","","","","1","stimuli/tools_lowercase.png","stimuli/stim015_inanimate_boats_3.png","stimuli/stim002_animate_fish_2.png","337"
"html-button-response-mod","348","943574","0.0-348.0","76059","","","","","","triplet","404","","","","0","stimuli/stim003_animate_fish_3.png","stimuli/stim020_inanimate_tree_4.png","stimuli/stim018_inanimate_tree_2.png","338"
"html-button-response-mod","349","944453","0.0-349.0","76059","","","","","","triplet","377.19999998807907","","","","1","stimuli/stim002_animate_fish_2.png","stimuli/stim014_inanimate_boats_2.png","stimuli/tools_uppercase.png","339"
"html-button-response-mod","350","945528","0.0-350.0","76059","","","","","","triplet","574","","","","1","stimuli/stim024_inanimate_tools_4.png","stimuli/stim014_inanimate_boats_2.png","stimuli/tree_uppercase.png","340"
"html-button-response-mod","351","946668","0.0-351.0","76059","","","","","","triplet","636","","","","0","stimuli/tools_lowercase.png","stimuli/stim017_inanimate_tree_1.png","stimuli/stim004_animate_fish_4.png","341"
"html-button-response-mod","352","948111","0.0-352.0","76059","","","","","","triplet","939.6999999880791","","","","0","stimuli/stim006_animate_bird_2.png","stimuli/stim009_animate_face_1.png","stimuli/stim023_inanimate_tools_3.png","342"
"html-button-response-mod","353","948761","0.0-353.0","76059","","","","","","triplet","145.70000004768372","","","","1","stimuli/stim002_animate_fish_2.png","stimuli/tools_uppercase.png","stimuli/stim020_inanimate_tree_4.png","343"
"html-button-response-mod","354","949454","0.0-354.0","76059","","","","","","triplet","190.19999998807907","","","","2","stimuli/stim012_animate_face_4.png","stimuli/boats_uppercase.png","stimuli/bird_lowercase.png","344"
"html-button-response-mod","355","950140","0.0-355.0","76059","","","","","","triplet","181.5","","","","0","stimuli/stim004_animate_fish_4.png","stimuli/stim001_animate_fish_1.png","stimuli/boats_lowercase.png","345"
"html-button-response-mod","356","950807","0.0-356.0","76059","","","","","","triplet","164.39999997615814","","","","1","stimuli/stim005_animate_bird_1.png","stimuli/stim023_inanimate_tools_3.png","stimuli/stim017_inanimate_tree_1.png","346"
"html-button-response-mod","357","951596","0.0-357.0","76059","","","","","","triplet","287.5","","","","0","stimuli/stim018_inanimate_tree_2.png","stimuli/tools_lowercase.png","stimuli/stim006_animate_bird_2.png","347"
"html-button-response-mod","358","952907","0.0-358.0","76059","","","","","","triplet","808.8000000119209","","","","0","stimuli/stim018_inanimate_tree_2.png","stimuli/stim015_inanimate_boats_3.png","stimuli/face_uppercase.png","348"
"html-button-response-mod","359","953493","0.0-359.0","76059","","","","","","triplet","84.09999996423721","","","","0","stimuli/stim012_animate_face_4.png","stimuli/stim022_inanimate_tools_2.png","stimuli/stim003_animate_fish_3.png","349"
"html-button-response","360","954896","0.0-360.0","76059","","","","","","break","900.6999999880791","<p>BREAK</p><p>Take a break for as long as you need</p><p>Click the button to continue</p>","0","","","","","",""
"html-button-response-mod","361","955402","0.0-361.0","76059","","","","","","triplet","504.19999998807907","","","","1","stimuli/tools_uppercase.png","stimuli/stim021_inanimate_tools_1.png","stimuli/face_lowercase.png","350"
"html-button-response-mod","362","955953","0.0-362.0","76059","","","","","","triplet","47","","","","0","stimuli/stim005_animate_bird_1.png","stimuli/stim002_animate_fish_2.png","stimuli/fish_lowercase.png","351"
"html-button-response-mod","363","956678","0.0-363.0","76059","","","","","","triplet","223.89999997615814","","","","0","stimuli/stim023_inanimate_tools_3.png","stimuli/tree_lowercase.png","stimuli/tree_uppercase.png","352"
"html-button-response-mod","364","957494","0.0-364.0","76059","","","","","","triplet","313.30000001192093","","","","2","stimuli/stim011_animate_face_3.png","stimuli/stim015_inanimate_boats_3.png","stimuli/stim002_animate_fish_2.png","353"
"html-button-response-mod","365","958880","0.0-365.0","76059","","","","","","triplet","881.1000000238419","","","","0","stimuli/stim009_animate_face_1.png","stimuli/stim004_animate_fish_4.png","stimuli/stim022_inanimate_tools_2.png","354"
"html-button-response-mod","366","959839","0.0-366.0","76059","","","","","","triplet","455","","","","1","stimuli/stim018_inanimate_tree_2.png","stimuli/stim021_inanimate_tools_1.png","stimuli/stim003_animate_fish_3.png","355"
"html-button-response-mod","367","960395","0.0-367.0","76059","","","","","","triplet","52.700000047683716","","","","1","stimuli/stim001_animate_fish_1.png","stimuli/stim021_inanimate_tools_1.png","stimuli/stim019_inanimate_tree_3.png","356"
"html-button-response-mod","368","961721","0.0-368.0","76059","","","","","","triplet","821.9000000357628","","","","0","stimuli/stim022_inanimate_tools_2.png","stimuli/stim006_animate_bird_2.png","stimuli/stim014_inanimate_boats_2.png","357"
"html-button-response-mod","369","962282","0.0-369.0","76059","","","","","","triplet","57.80000001192093","","","","1","stimuli/face_lowercase.png","stimuli/stim024_inanimate_tools_4.png","stimuli/stim014_inanimate_boats_2.png","358"
"html-button-response-mod","370","962984","0.0-370.0","76059","","","","","","triplet","199.79999995231628","","","","2","stimuli/face_uppercase.png","stimuli/face_lowercase.png","stimuli/stim011_animate_face_3.png","359"
"html-button-response-mod","371","963644","0.0-371.0","76059","","","","","","triplet","156","","","","0","stimuli/stim003_animate_fish_3.png","stimuli/stim015_inanimate_boats_3.png","stimuli/bird_uppercase.png","360"
"html-button-response-mod","372","964205","0.0-372.0","76059","","","","","","triplet","57.80000001192093","","","","2","stimuli/stim016_inanimate_boats_4.png","stimuli/stim023_inanimate_tools_3.png","stimuli/face_uppercase.png","361"
"html-button-response-mod","373","965589","0.0-373.0","76059","","","","","","triplet","879.3999999761581","","","","2","stimuli/stim014_inanimate_boats_2.png","stimuli/boats_uppercase.png","stimuli/stim007_animate_bird_3.png","362"
"html-button-response-mod","374","966389","0.0-374.0","76059","","","","","","triplet","296.30000001192093","","","","1","stimuli/stim002_animate_fish_2.png","stimuli/stim019_inanimate_tree_3.png","stimuli/stim013_inanimate_boats_1.png","363"
"html-button-response-mod","375","966957","0.0-375.0","76059","","","","","","triplet","66.40000003576279","","","","2","stimuli/face_lowercase.png","stimuli/stim019_inanimate_tree_3.png","stimuli/stim015_inanimate_boats_3.png","364"
"html-button-response-mod","376","967929","0.0-376.0","76059","","","","","","triplet","468.80000001192093","","","","0","stimuli/bird_lowercase.png","stimuli/face_lowercase.png","stimuli/boats_uppercase.png","365"
"html-button-response-mod","377","968579","0.0-377.0","76059","","","","","","triplet","146.60000002384186","","","","0","stimuli/stim012_animate_face_4.png","stimuli/bird_lowercase.png","stimuli/stim023_inanimate_tools_3.png","366"
"html-button-response-mod","378","969238","0.0-378.0","76059","","","","","","triplet","152.60000002384186","","","","1","stimuli/stim013_inanimate_boats_1.png","stimuli/stim022_inanimate_tools_2.png","stimuli/stim004_animate_fish_4.png","367"
"html-button-response-mod","379","969842","0.0-379.0","76059","","","","","","triplet","101.10000002384186","","","","2","stimuli/stim014_inanimate_boats_2.png","stimuli/tools_lowercase.png","stimuli/stim019_inanimate_tree_3.png","368"
"html-button-response-mod","380","970533","0.0-380.0","76059","","","","","","triplet","188.60000002384186","","","","0","stimuli/stim020_inanimate_tree_4.png","stimuli/stim009_animate_face_1.png","stimuli/stim005_animate_bird_1.png","369"
"html-button-response-mod","381","971217","0.0-381.0","76059","","","","","","triplet","181.5","","","","2","stimuli/fish_lowercase.png","stimuli/stim008_animate_bird_4.png","stimuli/stim019_inanimate_tree_3.png","370"
"html-button-response-mod","382","971829","0.0-382.0","76059","","","","","","triplet","109.10000002384186","","","","1","stimuli/stim024_inanimate_tools_4.png","stimuli/stim017_inanimate_tree_1.png","stimuli/stim002_animate_fish_2.png","371"
"html-button-response-mod","383","972488","0.0-383.0","76059","","","","","","triplet","152.29999995231628","","","","0","stimuli/stim004_animate_fish_4.png","stimuli/fish_lowercase.png","stimuli/stim015_inanimate_boats_3.png","372"
"html-button-response-mod","384","973109","0.0-384.0","76059","","","","","","triplet","118.80000001192093","","","","2","stimuli/stim001_animate_fish_1.png","stimuli/stim007_animate_bird_3.png","stimuli/stim003_animate_fish_3.png","373"
"html-button-response-mod","385","974200","0.0-385.0","76059","","","","","","triplet","587.2000000476837","","","","0","stimuli/stim014_inanimate_boats_2.png","stimuli/stim017_inanimate_tree_1.png","stimuli/stim011_animate_face_3.png","374"
"html-button-response-mod","386","974777","0.0-386.0","76059","","","","","","triplet","72.30000001192093","","","","2","stimuli/stim015_inanimate_boats_3.png","stimuli/stim012_animate_face_4.png","stimuli/stim011_animate_face_3.png","375"
"html-button-response-mod","387","975493","0.0-387.0","76059","","","","","","triplet","214","","","","1","stimuli/stim023_inanimate_tools_3.png","stimuli/stim008_animate_bird_4.png","stimuli/stim012_animate_face_4.png","376"
"html-button-response-mod","388","976040","0.0-388.0","76059","","","","","","triplet","40.80000001192093","","","","1","stimuli/stim001_animate_fish_1.png","stimuli/stim012_animate_face_4.png","stimuli/stim020_inanimate_tree_4.png","377"
"html-button-response-mod","389","976790","0.0-389.0","76059","","","","","","triplet","246.9000000357628","","","","0","stimuli/stim024_inanimate_tools_4.png","stimuli/fish_lowercase.png","stimuli/stim009_animate_face_1.png","378"
"html-button-response-mod","390","977468","0.0-390.0","76059","","","","","","triplet","174.89999997615814","","","","1","stimuli/face_lowercase.png","stimuli/stim004_animate_fish_4.png","stimuli/stim007_animate_bird_3.png","379"
"html-button-response-mod","391","978150","0.0-391.0","76059","","","","","","triplet","180.0999999642372","","","","1","stimuli/stim006_animate_bird_2.png","stimuli/stim023_inanimate_tools_3.png","stimuli/stim011_animate_face_3.png","380"
"html-button-response-mod","392","979501","0.0-392.0","76059","","","","","","triplet","843.8999999761581","","","","1","stimuli/tools_uppercase.png","stimuli/stim008_animate_bird_4.png","stimuli/boats_lowercase.png","381"
"html-button-response-mod","393","980105","0.0-393.0","76059","","","","","","triplet","101.59999996423721","","","","0","stimuli/stim022_inanimate_tools_2.png","stimuli/stim007_animate_bird_3.png","stimuli/stim012_animate_face_4.png","382"
"html-button-response-mod","394","980626","0.0-394.0","76059","","","","","","triplet","18.399999976158142","","","","0","stimuli/fish_uppercase.png","stimuli/stim022_inanimate_tools_2.png","stimuli/tools_uppercase.png","383"
"html-button-response-mod","395","981531","0.0-395.0","76059","","","","","","triplet","400.60000002384186","","","","1","stimuli/stim016_inanimate_boats_4.png","stimuli/fish_uppercase.png","stimuli/stim014_inanimate_boats_2.png","384"
"html-button-response-mod","396","982233","0.0-396.0","76059","","","","","","triplet","199.5999999642372","","","","2","stimuli/stim001_animate_fish_1.png","stimuli/stim005_animate_bird_1.png","stimuli/stim017_inanimate_tree_1.png","385"
"html-button-response-mod","397","983047","0.0-397.0","76059","","","","","","triplet","308.0999999642372","","","","0","stimuli/stim016_inanimate_boats_4.png","stimuli/face_uppercase.png","stimuli/stim017_inanimate_tree_1.png","386"
"html-button-response-mod","398","984006","0.0-398.0","76059","","","","","","triplet","456.30000001192093","","","","2","stimuli/stim024_inanimate_tools_4.png","stimuli/stim003_animate_fish_3.png","stimuli/stim011_animate_face_3.png","387"
"html-button-response-mod","399","984838","0.0-399.0","76059","","","","","","triplet","330.4000000357628","","","","1","stimuli/tools_lowercase.png","stimuli/stim020_inanimate_tree_4.png","stimuli/face_lowercase.png","388"
"html-button-response-mod","400","985653","0.0-400.0","76059","","","","","","triplet","312.9000000357628","","","","0","stimuli/stim023_inanimate_tools_3.png","stimuli/stim015_inanimate_boats_3.png","stimuli/stim006_animate_bird_2.png","389"
"html-button-response-mod","401","987274","0.0-401.0","76059","","","","","","triplet","1118.5999999642372","","","","2","stimuli/fish_lowercase.png","stimuli/tree_lowercase.png","stimuli/stim006_animate_bird_2.png","390"
"html-button-response-mod","402","987826","0.0-402.0","76059","","","","","","triplet","49.89999997615814","","","","2","stimuli/boats_lowercase.png","stimuli/boats_uppercase.png","stimuli/stim016_inanimate_boats_4.png","391"
"html-button-response-mod","403","988398","0.0-403.0","76059","","","","","","triplet","66.09999996423721","","","","0","stimuli/stim015_inanimate_boats_3.png","stimuli/stim002_animate_fish_2.png","stimuli/stim019_inanimate_tree_3.png","392"
"html-button-response-mod","404","989685","0.0-404.0","76059","","","","","","triplet","781","","","","0","stimuli/stim023_inanimate_tools_3.png","stimuli/boats_lowercase.png","stimuli/stim014_inanimate_boats_2.png","393"
"html-button-response-mod","405","990272","0.0-405.0","76059","","","","","","triplet","80.30000001192093","","","","0","stimuli/stim007_animate_bird_3.png","stimuli/stim021_inanimate_tools_1.png","stimuli/stim017_inanimate_tree_1.png","394"
"html-button-response-mod","406","991150","0.0-406.0","76059","","","","","","triplet","376","","","","2","stimuli/stim019_inanimate_tree_3.png","stimuli/fish_uppercase.png","stimuli/stim015_inanimate_boats_3.png","395"
"html-button-response-mod","407","992193","0.0-407.0","76059","","","","","","triplet","540.0999999642372","","","","0","stimuli/stim014_inanimate_boats_2.png","stimuli/stim002_animate_fish_2.png","stimuli/face_uppercase.png","396"
"html-button-response-mod","408","992803","0.0-408.0","76059","","","","","","triplet","103.89999997615814","","","","1","stimuli/stim015_inanimate_boats_3.png","stimuli/tools_uppercase.png","stimuli/stim014_inanimate_boats_2.png","397"
"html-button-response-mod","409","994091","0.0-409.0","76059","","","","","","triplet","783","","","","1","stimuli/stim019_inanimate_tree_3.png","stimuli/stim021_inanimate_tools_1.png","stimuli/stim010_animate_face_2.png","398"
"html-button-response-mod","410","994719","0.0-410.0","76059","","","","","","triplet","123.60000002384186","","","","0","stimuli/stim011_animate_face_3.png","stimuli/stim021_inanimate_tools_1.png","stimuli/stim022_inanimate_tools_2.png","399"
"html-button-response","411","996249","0.0-411.0","76059","","","","","","break","1024.699999988079","<p>BREAK</p><p>Take a break for as long as you need</p><p>Click the button to continue</p>","0","","","","","",""
"survey-text","412","1048962","0.0-412.0","76059","","","","","","data_patterns","52667.30000001192","","{""Q0"":""If there are two pictures, I will choose the word as the odd one. If there is a relation between two options, I will choose the other option as the odd one.""}","","","","","",""
"survey-text","413","1051325","0.0-413.0","76059","","","","","","age_question","2360.399999976158","","{""Age"":""19""}","","","","","",""
"html-button-response","414","1052377","0.0-414.0","76059","","","","","","gender_question","1049.0999999642372","How would you like your gender to be recorded?","1","","","","","",""
