"trial_type","trial_index","time_elapsed","internal_node_id","subject","success","timeout","failed_images","failed_audio","failed_video","test_part","rt","stimulus","response","end_time","button_pressed","stim0","stim1","stim2","trialnr"
"pavlovia","0","12","0.0-0.0","76185","","","","","","","","","","","","","","",""
"preload","1","2244","0.0-1.0","76185","true","false","[]","[]","[]","preload","","","","","","","","",""
"html-button-response","2","13280","0.0-2.0","76185","","","","","","","11034.099999904633","<p>Welcome to the experiment. To begin, please read the following and press the button at the bottom of the screen.</p><p></p><p><strong>Project Name: A study on cognitive processes involved in visual perception</p></strong><p></p><p><strong>PARTICIPANT INFORMATION STATEMENT</strong></p><p></p><strong>(1) What is the study about?</strong><br>You are invited to participate in a study that investigates the cognitive processes involved in perceiving and recognizing visual stimuli.If you decide to participate, you will be asked to complete a task in which you will view pictures, letters, numbers, or words presented on a computer screen.<br><strong>(2) Who can participate?</strong><br>Anyone aged 18 years or over with access to a computer (not a phone/tablet)<br><strong>(3) Where is the study located?</strong><br>The study will be conducted in your browser<br><strong>(4) Who is carrying out the study?</strong><br>The study is being conducted by Sophia Shatek from the Computational Cognitive Neuroscience laboratory at the University of Sydney.<br><strong>(5) What does the study involve?</strong><br>In this study, you will be asked to perform tasks where you will see different stimuli appear on the computer screen.You will respond by pressing a key or using a computer mouse.<br><strong>(6) How much time will the study take?</strong><br>The study takes about 30 minutes<br><strong>(7)	Can I withdraw from the study?</strong><br>Being in this study is completely voluntary - you are not under any obligation to consent. You can withdraw at any time without having to give a reason and without penalty.<br><strong>(8) Will anyone else know the results?</strong><br>All aspects of the study, including results, will be strictly confidential and only the researchers will have access to information on participants.The results and data from the study may be submitted for publication or shared with other research labs, but individual participants will not be identifiable.<br><strong>(9) Will the study benefit me?</strong><br>You will be awarded 0.5 credits for your participation.<br><strong>(10) Can I tell other people about the study?</strong><br>Yes, please tell them to contact Dr Thomas Carlson by email at thomas.carlson@sydney.edu.au.<br><strong>(11) What if I require further information about the study or my involvement in it?</strong><br>When you have read this information, the investigator will discuss it with you further and answer any questions you may have.If you would like to know more at any stage, please feel free to contact Dr Thomas Carlson directly by email at thomas.carlson@sydney.edu.au.If you would like to be informed about the outcomes of the study, contact Dr Thomas Carlson directly by email at thomas.carlson@sydney.edu.au.<br><strong>(12) What if I have a complaint or any concerns?</strong><br>Any person with concerns or complaints about the conduct of a research study can contact The Manager,Human Ethics Administration, University of Sydney on +61 2 8627 8176 (Telephone); +61 2 8627 8177 (Facsimile) or ro.humanethics@sydney.edu.au (Email).</p><p></p><strong>By participating in this experiment, you consent to participate in this study and acknowledge that:</strong><br>1. The procedures required for the project and the times involved have been explained to me, and any questions I have about the project have been answered to my satisfaction.<br>2.	I have read the Above Information Statement and have been given the opportunity to discuss the information and my involvement in the project with the researcher/s.<br>3. I understand that allowing my data to be used in research reports is completely voluntary - I am not under any obligation to consent.<br>4. I understand that my involvement is strictly confidential. I understand that any research data gathered from the results of the study may be publishedhowever no information about me will be used in any way that is identifiable.</p><p></p>","0","","","","","",""
"html-button-response","3","19835","0.0-3.0","76185","","","","","","opening_instructions","6553","<p>In this experiment, you will see three images appear on the screen.</p><p>You need to click the 'odd one out', or the image </p><p>that LOOKS MOST DIFFERENT to the other two. </p><p>Just go with your intuition, don't spend too long thinking about each one.</p>","0","23260.400000095367","","","","",""
"html-button-response-mod","4","21273","0.0-4.0","76185","","","","","","triplet","1435.3000000715256","","","","2","stimuli/stim022_inanimate_tools_2.png","stimuli/stim003_animate_fish_3.png","stimuli/face_lowercase.png","0"
"html-button-response-mod","5","22774","0.0-5.0","76185","","","","","","triplet","998.4000000953674","","","","1","stimuli/stim007_animate_bird_3.png","stimuli/stim020_inanimate_tree_4.png","stimuli/stim015_inanimate_boats_3.png","1"
"html-button-response-mod","6","24562","0.0-6.0","76185","","","","","","triplet","1284.3999999761581","","","","0","stimuli/stim004_animate_fish_4.png","stimuli/stim001_animate_fish_1.png","stimuli/stim007_animate_bird_3.png","2"
"html-button-response-mod","7","26847","0.0-7.0","76185","","","","","","triplet","1781.6000000238419","","","","1","stimuli/fish_uppercase.png","stimuli/stim021_inanimate_tools_1.png","stimuli/stim003_animate_fish_3.png","3"
"html-button-response-mod","8","28593","0.0-8.0","76185","","","","","","triplet","1242.1000000238419","","","","1","stimuli/fish_uppercase.png","stimuli/face_lowercase.png","stimuli/bird_uppercase.png","4"
"html-button-response-mod","9","30138","0.0-9.0","76185","","","","","","triplet","1042","","","","2","stimuli/stim002_animate_fish_2.png","stimuli/stim022_inanimate_tools_2.png","stimuli/tree_lowercase.png","5"
"html-button-response-mod","10","31472","0.0-10.0","76185","","","","","","triplet","831.3999999761581","","","","0","stimuli/tools_lowercase.png","stimuli/stim015_inanimate_boats_3.png","stimuli/stim022_inanimate_tools_2.png","6"
"html-button-response-mod","11","33032","0.0-11.0","76185","","","","","","triplet","1053.8000000715256","","","","2","stimuli/stim012_animate_face_4.png","stimuli/stim004_animate_fish_4.png","stimuli/stim017_inanimate_tree_1.png","7"
"html-button-response-mod","12","34511","0.0-12.0","76185","","","","","","triplet","974","","","","2","stimuli/boats_lowercase.png","stimuli/tree_lowercase.png","stimuli/stim017_inanimate_tree_1.png","8"
"html-button-response-mod","13","36060","0.0-13.0","76185","","","","","","triplet","1043.2999999523163","","","","1","stimuli/tools_uppercase.png","stimuli/face_uppercase.png","stimuli/boats_lowercase.png","9"
"html-button-response-mod","14","37939","0.0-14.0","76185","","","","","","triplet","1376.1999999284744","","","","0","stimuli/stim021_inanimate_tools_1.png","stimuli/tree_lowercase.png","stimuli/boats_lowercase.png","10"
"html-button-response-mod","15","39454","0.0-15.0","76185","","","","","","triplet","1012.1000000238419","","","","0","stimuli/face_lowercase.png","stimuli/stim011_animate_face_3.png","stimuli/stim009_animate_face_1.png","11"
"html-button-response-mod","16","40901","0.0-16.0","76185","","","","","","triplet","944.1000000238419","","","","0","stimuli/boats_lowercase.png","stimuli/stim002_animate_fish_2.png","stimuli/stim003_animate_fish_3.png","12"
"html-button-response-mod","17","42381","0.0-17.0","76185","","","","","","triplet","976.9000000953674","","","","1","stimuli/stim015_inanimate_boats_3.png","stimuli/boats_uppercase.png","stimuli/stim020_inanimate_tree_4.png","13"
"html-button-response-mod","18","43998","0.0-18.0","76185","","","","","","triplet","1111.3999999761581","","","","1","stimuli/stim003_animate_fish_3.png","stimuli/boats_uppercase.png","stimuli/stim007_animate_bird_3.png","14"
"html-button-response-mod","19","45486","0.0-19.0","76185","","","","","","triplet","986.2999999523163","","","","0","stimuli/boats_uppercase.png","stimuli/face_lowercase.png","stimuli/tree_lowercase.png","15"
"html-button-response-mod","20","46869","0.0-20.0","76185","","","","","","triplet","880","","","","0","stimuli/tools_lowercase.png","stimuli/stim022_inanimate_tools_2.png","stimuli/stim019_inanimate_tree_3.png","16"
"html-button-response-mod","21","48217","0.0-21.0","76185","","","","","","triplet","846.2000000476837","","","","0","stimuli/fish_lowercase.png","stimuli/stim009_animate_face_1.png","stimuli/stim010_animate_face_2.png","17"
"html-button-response-mod","22","49546","0.0-22.0","76185","","","","","","triplet","824.7999999523163","","","","2","stimuli/stim019_inanimate_tree_3.png","stimuli/stim024_inanimate_tools_4.png","stimuli/bird_uppercase.png","18"
"html-button-response-mod","23","50803","0.0-23.0","76185","","","","","","triplet","754.8999999761581","","","","0","stimuli/fish_uppercase.png","stimuli/stim003_animate_fish_3.png","stimuli/stim002_animate_fish_2.png","19"
"html-button-response-mod","24","52234","0.0-24.0","76185","","","","","","triplet","928.7999999523163","","","","2","stimuli/stim001_animate_fish_1.png","stimuli/stim010_animate_face_2.png","stimuli/stim020_inanimate_tree_4.png","20"
"html-button-response-mod","25","53709","0.0-25.0","76185","","","","","","triplet","967.3999999761581","","","","1","stimuli/stim001_animate_fish_1.png","stimuli/tree_uppercase.png","stimuli/stim017_inanimate_tree_1.png","21"
"html-button-response-mod","26","55093","0.0-26.0","76185","","","","","","triplet","880.9000000953674","","","","2","stimuli/stim004_animate_fish_4.png","stimuli/stim002_animate_fish_2.png","stimuli/stim006_animate_bird_2.png","22"
"html-button-response-mod","27","58669","0.0-27.0","76185","","","","","","triplet","3072.6999999284744","","","","0","stimuli/stim021_inanimate_tools_1.png","stimuli/stim018_inanimate_tree_2.png","stimuli/stim002_animate_fish_2.png","23"
"html-button-response-mod","28","60154","0.0-28.0","76185","","","","","","triplet","978.3000000715256","","","","2","stimuli/stim004_animate_fish_4.png","stimuli/stim011_animate_face_3.png","stimuli/bird_lowercase.png","24"
"html-button-response-mod","29","61522","0.0-29.0","76185","","","","","","triplet","864.2999999523163","","","","2","stimuli/stim011_animate_face_3.png","stimuli/stim001_animate_fish_1.png","stimuli/bird_uppercase.png","25"
"html-button-response-mod","30","63014","0.0-30.0","76185","","","","","","triplet","989.1000000238419","","","","0","stimuli/stim012_animate_face_4.png","stimuli/bird_uppercase.png","stimuli/tree_lowercase.png","26"
"html-button-response-mod","31","64418","0.0-31.0","76185","","","","","","triplet","898.5","","","","2","stimuli/stim023_inanimate_tools_3.png","stimuli/stim021_inanimate_tools_1.png","stimuli/stim012_animate_face_4.png","27"
"html-button-response-mod","32","66098","0.0-32.0","76185","","","","","","triplet","1175.8999999761581","","","","2","stimuli/stim001_animate_fish_1.png","stimuli/stim008_animate_bird_4.png","stimuli/stim021_inanimate_tools_1.png","28"
"html-button-response-mod","33","67638","0.0-33.0","76185","","","","","","triplet","1036.6999999284744","","","","0","stimuli/tools_lowercase.png","stimuli/stim023_inanimate_tools_3.png","stimuli/stim015_inanimate_boats_3.png","29"
"html-button-response-mod","34","69177","0.0-34.0","76185","","","","","","triplet","1036","","","","1","stimuli/stim021_inanimate_tools_1.png","stimuli/stim012_animate_face_4.png","stimuli/stim024_inanimate_tools_4.png","30"
"html-button-response-mod","35","71040","0.0-35.0","76185","","","","","","triplet","1360.2999999523163","","","","0","stimuli/boats_lowercase.png","stimuli/stim018_inanimate_tree_2.png","stimuli/stim006_animate_bird_2.png","31"
"html-button-response-mod","36","73267","0.0-36.0","76185","","","","","","triplet","1724.7000000476837","","","","2","stimuli/stim003_animate_fish_3.png","stimuli/stim015_inanimate_boats_3.png","stimuli/stim011_animate_face_3.png","32"
"html-button-response-mod","37","75017","0.0-37.0","76185","","","","","","triplet","1245.1000000238419","","","","0","stimuli/stim015_inanimate_boats_3.png","stimuli/stim022_inanimate_tools_2.png","stimuli/stim024_inanimate_tools_4.png","33"
"html-button-response-mod","38","76444","0.0-38.0","76185","","","","","","triplet","924.5","","","","2","stimuli/stim017_inanimate_tree_1.png","stimuli/stim021_inanimate_tools_1.png","stimuli/boats_uppercase.png","34"
"html-button-response-mod","39","77889","0.0-39.0","76185","","","","","","triplet","943.0999999046326","","","","2","stimuli/bird_lowercase.png","stimuli/tools_uppercase.png","stimuli/stim006_animate_bird_2.png","35"
"html-button-response-mod","40","80036","0.0-40.0","76185","","","","","","triplet","1645.1000000238419","","","","1","stimuli/boats_uppercase.png","stimuli/face_uppercase.png","stimuli/tree_uppercase.png","36"
"html-button-response-mod","41","82059","0.0-41.0","76185","","","","","","triplet","1520.3999999761581","","","","2","stimuli/stim008_animate_bird_4.png","stimuli/stim001_animate_fish_1.png","stimuli/boats_lowercase.png","37"
"html-button-response-mod","42","83395","0.0-42.0","76185","","","","","","triplet","833","","","","1","stimuli/stim001_animate_fish_1.png","stimuli/bird_uppercase.png","stimuli/stim010_animate_face_2.png","38"
"html-button-response-mod","43","85957","0.0-43.0","76185","","","","","","triplet","2060.100000023842","","","","2","stimuli/stim012_animate_face_4.png","stimuli/stim007_animate_bird_3.png","stimuli/stim013_inanimate_boats_1.png","39"
"html-button-response-mod","44","87558","0.0-44.0","76185","","","","","","triplet","1095.8999999761581","","","","2","stimuli/stim021_inanimate_tools_1.png","stimuli/stim020_inanimate_tree_4.png","stimuli/face_uppercase.png","40"
"html-button-response-mod","45","89306","0.0-45.0","76185","","","","","","triplet","1246","","","","2","stimuli/stim024_inanimate_tools_4.png","stimuli/stim016_inanimate_boats_4.png","stimuli/stim019_inanimate_tree_3.png","41"
"html-button-response-mod","46","90872","0.0-46.0","76185","","","","","","triplet","1063.8999999761581","","","","2","stimuli/stim019_inanimate_tree_3.png","stimuli/stim004_animate_fish_4.png","stimuli/tools_lowercase.png","42"
"html-button-response-mod","47","92329","0.0-47.0","76185","","","","","","triplet","952.5","","","","0","stimuli/bird_lowercase.png","stimuli/stim020_inanimate_tree_4.png","stimuli/stim016_inanimate_boats_4.png","43"
"html-button-response-mod","48","94562","0.0-48.0","76185","","","","","","triplet","1731.7000000476837","","","","0","stimuli/stim021_inanimate_tools_1.png","stimuli/stim009_animate_face_1.png","stimuli/stim007_animate_bird_3.png","44"
"html-button-response-mod","49","96159","0.0-49.0","76185","","","","","","triplet","1094.7999999523163","","","","1","stimuli/stim022_inanimate_tools_2.png","stimuli/bird_uppercase.png","stimuli/stim009_animate_face_1.png","45"
"html-button-response-mod","50","97475","0.0-50.0","76185","","","","","","triplet","812.1999999284744","","","","1","stimuli/stim014_inanimate_boats_2.png","stimuli/tree_lowercase.png","stimuli/stim010_animate_face_2.png","46"
"html-button-response-mod","51","98774","0.0-51.0","76185","","","","","","triplet","795.8999999761581","","","","0","stimuli/boats_lowercase.png","stimuli/stim019_inanimate_tree_3.png","stimuli/stim017_inanimate_tree_1.png","47"
"html-button-response-mod","52","100058","0.0-52.0","76185","","","","","","triplet","780.2000000476837","","","","0","stimuli/tree_uppercase.png","stimuli/stim007_animate_bird_3.png","stimuli/stim013_inanimate_boats_1.png","48"
"html-button-response-mod","53","102105","0.0-53.0","76185","","","","","","triplet","1543.3999999761581","","","","2","stimuli/stim023_inanimate_tools_3.png","stimuli/stim013_inanimate_boats_1.png","stimuli/stim010_animate_face_2.png","49"
"html-button-response","54","133731","0.0-54.0","76185","","","","","","break","31123.700000047684","<p>BREAK</p><p>Take a break for as long as you need</p><p>Click the button to continue</p>","0","","","","","",""
"html-button-response-mod","55","134747","0.0-55.0","76185","","","","","","triplet","1013.6000000238419","","","","0","stimuli/stim015_inanimate_boats_3.png","stimuli/stim010_animate_face_2.png","stimuli/stim001_animate_fish_1.png","50"
"html-button-response-mod","56","136157","0.0-56.0","76185","","","","","","triplet","907.7999999523163","","","","2","stimuli/stim005_animate_bird_1.png","stimuli/stim006_animate_bird_2.png","stimuli/stim012_animate_face_4.png","51"
"html-button-response-mod","57","138439","0.0-57.0","76185","","","","","","triplet","1779.3999999761581","","","","0","stimuli/stim023_inanimate_tools_3.png","stimuli/stim011_animate_face_3.png","stimuli/stim012_animate_face_4.png","52"
"html-button-response-mod","58","139823","0.0-58.0","76185","","","","","","triplet","882","","","","2","stimuli/fish_uppercase.png","stimuli/tree_uppercase.png","stimuli/stim012_animate_face_4.png","53"
"html-button-response-mod","59","141321","0.0-59.0","76185","","","","","","triplet","995.5","","","","1","stimuli/stim019_inanimate_tree_3.png","stimuli/boats_uppercase.png","stimuli/stim007_animate_bird_3.png","54"
"html-button-response-mod","60","143411","0.0-60.0","76185","","","","","","triplet","1587","","","","1","stimuli/stim016_inanimate_boats_4.png","stimuli/boats_uppercase.png","stimuli/stim001_animate_fish_1.png","55"
"html-button-response-mod","61","145202","0.0-61.0","76185","","","","","","triplet","1288","","","","1","stimuli/stim011_animate_face_3.png","stimuli/stim020_inanimate_tree_4.png","stimuli/stim001_animate_fish_1.png","56"
"html-button-response-mod","62","146665","0.0-62.0","76185","","","","","","triplet","961.1000000238419","","","","2","stimuli/stim002_animate_fish_2.png","stimuli/stim014_inanimate_boats_2.png","stimuli/tools_lowercase.png","57"
"html-button-response-mod","63","148684","0.0-63.0","76185","","","","","","triplet","1516.3999999761581","","","","1","stimuli/stim005_animate_bird_1.png","stimuli/stim022_inanimate_tools_2.png","stimuli/stim018_inanimate_tree_2.png","58"
"html-button-response-mod","64","150243","0.0-64.0","76185","","","","","","triplet","1055.5","","","","2","stimuli/stim014_inanimate_boats_2.png","stimuli/stim002_animate_fish_2.png","stimuli/stim010_animate_face_2.png","59"
"html-button-response-mod","65","151664","0.0-65.0","76185","","","","","","triplet","917.7000000476837","","","","0","stimuli/face_uppercase.png","stimuli/stim017_inanimate_tree_1.png","stimuli/stim010_animate_face_2.png","60"
"html-button-response-mod","66","153097","0.0-66.0","76185","","","","","","triplet","926.3999999761581","","","","1","stimuli/stim002_animate_fish_2.png","stimuli/stim015_inanimate_boats_3.png","stimuli/stim001_animate_fish_1.png","61"
"html-button-response-mod","67","154490","0.0-67.0","76185","","","","","","triplet","889.8000000715256","","","","2","stimuli/stim005_animate_bird_1.png","stimuli/stim008_animate_bird_4.png","stimuli/stim017_inanimate_tree_1.png","62"
"html-button-response-mod","68","155926","0.0-68.0","76185","","","","","","triplet","931.1000000238419","","","","2","stimuli/stim004_animate_fish_4.png","stimuli/stim003_animate_fish_3.png","stimuli/tree_lowercase.png","63"
"html-button-response-mod","69","157447","0.0-69.0","76185","","","","","","triplet","1016.6000000238419","","","","1","stimuli/stim013_inanimate_boats_1.png","stimuli/tree_uppercase.png","stimuli/stim014_inanimate_boats_2.png","64"
"html-button-response-mod","70","158916","0.0-70.0","76185","","","","","","triplet","966","","","","0","stimuli/stim007_animate_bird_3.png","stimuli/tree_lowercase.png","stimuli/tree_uppercase.png","65"
"html-button-response-mod","71","160118","0.0-71.0","76185","","","","","","triplet","698.7999999523163","","","","2","stimuli/stim023_inanimate_tools_3.png","stimuli/stim008_animate_bird_4.png","stimuli/bird_lowercase.png","66"
"html-button-response-mod","72","162874","0.0-72.0","76185","","","","","","triplet","2253.1999999284744","","","","1","stimuli/stim011_animate_face_3.png","stimuli/stim018_inanimate_tree_2.png","stimuli/stim005_animate_bird_1.png","67"
"html-button-response-mod","73","164306","0.0-73.0","76185","","","","","","triplet","927.8999999761581","","","","1","stimuli/tree_lowercase.png","stimuli/stim024_inanimate_tools_4.png","stimuli/boats_uppercase.png","68"
"html-button-response-mod","74","165993","0.0-74.0","76185","","","","","","triplet","1183","","","","2","stimuli/stim023_inanimate_tools_3.png","stimuli/stim007_animate_bird_3.png","stimuli/tools_lowercase.png","69"
"html-button-response-mod","75","167441","0.0-75.0","76185","","","","","","triplet","946","","","","2","stimuli/bird_lowercase.png","stimuli/fish_lowercase.png","stimuli/face_uppercase.png","70"
"html-button-response-mod","76","169027","0.0-76.0","76185","","","","","","triplet","1083.4000000953674","","","","2","stimuli/stim024_inanimate_tools_4.png","stimuli/stim023_inanimate_tools_3.png","stimuli/stim005_animate_bird_1.png","71"
"html-button-response-mod","77","170796","0.0-77.0","76185","","","","","","triplet","1266","","","","1","stimuli/stim001_animate_fish_1.png","stimuli/stim024_inanimate_tools_4.png","stimuli/stim012_animate_face_4.png","72"
"html-button-response-mod","78","172135","0.0-78.0","76185","","","","","","triplet","836.1000000238419","","","","2","stimuli/stim012_animate_face_4.png","stimuli/stim011_animate_face_3.png","stimuli/tree_lowercase.png","73"
"html-button-response-mod","79","173568","0.0-79.0","76185","","","","","","triplet","930","","","","0","stimuli/face_lowercase.png","stimuli/stim016_inanimate_boats_4.png","stimuli/stim005_animate_bird_1.png","74"
"html-button-response-mod","80","174733","0.0-80.0","76185","","","","","","triplet","661.6999999284744","","","","2","stimuli/stim010_animate_face_2.png","stimuli/stim017_inanimate_tree_1.png","stimuli/boats_lowercase.png","75"
"html-button-response-mod","81","176084","0.0-81.0","76185","","","","","","triplet","848.5","","","","0","stimuli/bird_uppercase.png","stimuli/stim020_inanimate_tree_4.png","stimuli/stim005_animate_bird_1.png","76"
"html-button-response-mod","82","177716","0.0-82.0","76185","","","","","","triplet","1129.9000000953674","","","","0","stimuli/stim011_animate_face_3.png","stimuli/stim022_inanimate_tools_2.png","stimuli/stim016_inanimate_boats_4.png","77"
"html-button-response-mod","83","180066","0.0-83.0","76185","","","","","","triplet","1845.6999999284744","","","","1","stimuli/fish_uppercase.png","stimuli/stim002_animate_fish_2.png","stimuli/fish_lowercase.png","78"
"html-button-response-mod","84","182805","0.0-84.0","76185","","","","","","triplet","2236.0999999046326","","","","1","stimuli/stim014_inanimate_boats_2.png","stimuli/stim009_animate_face_1.png","stimuli/stim023_inanimate_tools_3.png","79"
"html-button-response-mod","85","184516","0.0-85.0","76185","","","","","","triplet","1208.3000000715256","","","","2","stimuli/stim012_animate_face_4.png","stimuli/stim008_animate_bird_4.png","stimuli/boats_uppercase.png","80"
"html-button-response-mod","86","185844","0.0-86.0","76185","","","","","","triplet","820.3999999761581","","","","2","stimuli/stim003_animate_fish_3.png","stimuli/stim006_animate_bird_2.png","stimuli/bird_uppercase.png","81"
"html-button-response-mod","87","187203","0.0-87.0","76185","","","","","","triplet","855.7000000476837","","","","2","stimuli/tree_uppercase.png","stimuli/tree_lowercase.png","stimuli/stim001_animate_fish_1.png","82"
"html-button-response-mod","88","190310","0.0-88.0","76185","","","","","","triplet","2598.7999999523163","","","","0","stimuli/stim020_inanimate_tree_4.png","stimuli/stim024_inanimate_tools_4.png","stimuli/stim011_animate_face_3.png","83"
"html-button-response-mod","89","191712","0.0-89.0","76185","","","","","","triplet","897.1000000238419","","","","2","stimuli/stim020_inanimate_tree_4.png","stimuli/stim017_inanimate_tree_1.png","stimuli/stim011_animate_face_3.png","84"
"html-button-response-mod","90","193701","0.0-90.0","76185","","","","","","triplet","1485.3999999761581","","","","0","stimuli/fish_lowercase.png","stimuli/stim016_inanimate_boats_4.png","stimuli/stim002_animate_fish_2.png","85"
"html-button-response-mod","91","195672","0.0-91.0","76185","","","","","","triplet","1468.2000000476837","","","","0","stimuli/stim002_animate_fish_2.png","stimuli/stim023_inanimate_tools_3.png","stimuli/stim015_inanimate_boats_3.png","86"
"html-button-response-mod","92","197195","0.0-92.0","76185","","","","","","triplet","1018","","","","2","stimuli/stim020_inanimate_tree_4.png","stimuli/stim011_animate_face_3.png","stimuli/stim002_animate_fish_2.png","87"
"html-button-response-mod","93","198762","0.0-93.0","76185","","","","","","triplet","1062","","","","0","stimuli/stim017_inanimate_tree_1.png","stimuli/bird_lowercase.png","stimuli/face_uppercase.png","88"
"html-button-response-mod","94","199991","0.0-94.0","76185","","","","","","triplet","721.7999999523163","","","","2","stimuli/stim020_inanimate_tree_4.png","stimuli/stim018_inanimate_tree_2.png","stimuli/fish_uppercase.png","89"
"html-button-response-mod","95","201330","0.0-95.0","76185","","","","","","triplet","837.6999999284744","","","","2","stimuli/face_uppercase.png","stimuli/boats_uppercase.png","stimuli/stim014_inanimate_boats_2.png","90"
"html-button-response-mod","96","202830","0.0-96.0","76185","","","","","","triplet","990.3999999761581","","","","1","stimuli/stim001_animate_fish_1.png","stimuli/boats_lowercase.png","stimuli/stim005_animate_bird_1.png","91"
"html-button-response-mod","97","204032","0.0-97.0","76185","","","","","","triplet","699","","","","2","stimuli/bird_lowercase.png","stimuli/fish_lowercase.png","stimuli/stim005_animate_bird_1.png","92"
"html-button-response-mod","98","205794","0.0-98.0","76185","","","","","","triplet","1258.8000000715256","","","","0","stimuli/stim014_inanimate_boats_2.png","stimuli/bird_lowercase.png","stimuli/tree_uppercase.png","93"
"html-button-response-mod","99","207164","0.0-99.0","76185","","","","","","triplet","866.8000000715256","","","","2","stimuli/tools_lowercase.png","stimuli/fish_lowercase.png","stimuli/stim003_animate_fish_3.png","94"
"html-button-response-mod","100","209389","0.0-100.0","76185","","","","","","triplet","1722.8000000715256","","","","0","stimuli/tree_lowercase.png","stimuli/stim024_inanimate_tools_4.png","stimuli/stim001_animate_fish_1.png","95"
"html-button-response-mod","101","210972","0.0-101.0","76185","","","","","","triplet","1079.1999999284744","","","","2","stimuli/stim021_inanimate_tools_1.png","stimuli/stim018_inanimate_tree_2.png","stimuli/face_lowercase.png","96"
"html-button-response-mod","102","213144","0.0-102.0","76185","","","","","","triplet","1668.1999999284744","","","","0","stimuli/stim014_inanimate_boats_2.png","stimuli/stim004_animate_fish_4.png","stimuli/stim008_animate_bird_4.png","97"
"html-button-response-mod","103","214863","0.0-103.0","76185","","","","","","triplet","1217","","","","1","stimuli/stim013_inanimate_boats_1.png","stimuli/tools_lowercase.png","stimuli/stim020_inanimate_tree_4.png","98"
"html-button-response-mod","104","216669","0.0-104.0","76185","","","","","","triplet","1301.3000000715256","","","","1","stimuli/tools_uppercase.png","stimuli/stim003_animate_fish_3.png","stimuli/bird_lowercase.png","99"
"html-button-response","105","218571","0.0-105.0","76185","","","","","","break","1397.3000000715256","<p>BREAK</p><p>Take a break for as long as you need</p><p>Click the button to continue</p>","0","","","","","",""
"html-button-response-mod","106","219854","0.0-106.0","76185","","","","","","triplet","1280.8999999761581","","","","2","stimuli/stim021_inanimate_tools_1.png","stimuli/stim006_animate_bird_2.png","stimuli/stim017_inanimate_tree_1.png","100"
"html-button-response-mod","107","221838","0.0-107.0","76185","","","","","","triplet","1479.0999999046326","","","","1","stimuli/stim018_inanimate_tree_2.png","stimuli/bird_uppercase.png","stimuli/stim002_animate_fish_2.png","101"
"html-button-response-mod","108","223388","0.0-108.0","76185","","","","","","triplet","1047.3999999761581","","","","2","stimuli/stim006_animate_bird_2.png","stimuli/stim003_animate_fish_3.png","stimuli/stim019_inanimate_tree_3.png","102"
"html-button-response-mod","109","225378","0.0-109.0","76185","","","","","","triplet","1486.7999999523163","","","","2","stimuli/stim012_animate_face_4.png","stimuli/stim008_animate_bird_4.png","stimuli/stim021_inanimate_tools_1.png","103"
"html-button-response-mod","110","226811","0.0-110.0","76185","","","","","","triplet","928.6000000238419","","","","2","stimuli/stim024_inanimate_tools_4.png","stimuli/stim022_inanimate_tools_2.png","stimuli/stim020_inanimate_tree_4.png","104"
"html-button-response-mod","111","229016","0.0-111.0","76185","","","","","","triplet","1702.5","","","","0","stimuli/stim015_inanimate_boats_3.png","stimuli/stim002_animate_fish_2.png","stimuli/stim022_inanimate_tools_2.png","105"
"html-button-response-mod","112","230402","0.0-112.0","76185","","","","","","triplet","881.8999999761581","","","","2","stimuli/stim013_inanimate_boats_1.png","stimuli/stim008_animate_bird_4.png","stimuli/boats_lowercase.png","106"
"html-button-response-mod","113","232742","0.0-113.0","76185","","","","","","triplet","1836.2000000476837","","","","2","stimuli/stim001_animate_fish_1.png","stimuli/stim004_animate_fish_4.png","stimuli/stim008_animate_bird_4.png","107"
"html-button-response-mod","114","234199","0.0-114.0","76185","","","","","","triplet","953.3999999761581","","","","2","stimuli/tools_uppercase.png","stimuli/fish_lowercase.png","stimuli/stim013_inanimate_boats_1.png","108"
"html-button-response-mod","115","236423","0.0-115.0","76185","","","","","","triplet","1720.5","","","","0","stimuli/bird_lowercase.png","stimuli/stim001_animate_fish_1.png","stimuli/stim024_inanimate_tools_4.png","109"
"html-button-response-mod","116","237988","0.0-116.0","76185","","","","","","triplet","1062.5","","","","1","stimuli/stim008_animate_bird_4.png","stimuli/fish_lowercase.png","stimuli/stim012_animate_face_4.png","110"
"html-button-response-mod","117","239380","0.0-117.0","76185","","","","","","triplet","888.0999999046326","","","","2","stimuli/stim017_inanimate_tree_1.png","stimuli/stim023_inanimate_tools_3.png","stimuli/stim010_animate_face_2.png","111"
"html-button-response-mod","118","240713","0.0-118.0","76185","","","","","","triplet","830.6000000238419","","","","0","stimuli/fish_uppercase.png","stimuli/stim018_inanimate_tree_2.png","stimuli/stim021_inanimate_tools_1.png","112"
"html-button-response-mod","119","242142","0.0-119.0","76185","","","","","","triplet","926","","","","2","stimuli/stim015_inanimate_boats_3.png","stimuli/stim020_inanimate_tree_4.png","stimuli/bird_uppercase.png","113"
"html-button-response-mod","120","243519","0.0-120.0","76185","","","","","","triplet","874.7000000476837","","","","0","stimuli/stim002_animate_fish_2.png","stimuli/fish_uppercase.png","stimuli/boats_lowercase.png","114"
"html-button-response-mod","121","244829","0.0-121.0","76185","","","","","","triplet","807","","","","2","stimuli/face_lowercase.png","stimuli/tools_lowercase.png","stimuli/stim014_inanimate_boats_2.png","115"
"html-button-response-mod","122","246363","0.0-122.0","76185","","","","","","triplet","1031.3000000715256","","","","0","stimuli/stim017_inanimate_tree_1.png","stimuli/stim021_inanimate_tools_1.png","stimuli/stim022_inanimate_tools_2.png","116"
"html-button-response-mod","123","248080","0.0-123.0","76185","","","","","","triplet","1214.6000000238419","","","","1","stimuli/stim004_animate_fish_4.png","stimuli/stim018_inanimate_tree_2.png","stimuli/stim012_animate_face_4.png","117"
"html-button-response-mod","124","249411","0.0-124.0","76185","","","","","","triplet","827.1000000238419","","","","2","stimuli/stim021_inanimate_tools_1.png","stimuli/stim008_animate_bird_4.png","stimuli/tools_lowercase.png","118"
"html-button-response-mod","125","250874","0.0-125.0","76185","","","","","","triplet","958.2000000476837","","","","0","stimuli/stim015_inanimate_boats_3.png","stimuli/boats_uppercase.png","stimuli/face_uppercase.png","119"
"html-button-response-mod","126","252209","0.0-126.0","76185","","","","","","triplet","830.1000000238419","","","","1","stimuli/stim012_animate_face_4.png","stimuli/stim020_inanimate_tree_4.png","stimuli/stim009_animate_face_1.png","120"
"html-button-response-mod","127","253518","0.0-127.0","76185","","","","","","triplet","805.1999999284744","","","","0","stimuli/tree_uppercase.png","stimuli/stim022_inanimate_tools_2.png","stimuli/stim012_animate_face_4.png","121"
"html-button-response-mod","128","254936","0.0-128.0","76185","","","","","","triplet","915","","","","2","stimuli/tools_lowercase.png","stimuli/tools_uppercase.png","stimuli/stim004_animate_fish_4.png","122"
"html-button-response-mod","129","256262","0.0-129.0","76185","","","","","","triplet","823.5","","","","0","stimuli/stim016_inanimate_boats_4.png","stimuli/stim008_animate_bird_4.png","stimuli/stim006_animate_bird_2.png","123"
"html-button-response-mod","130","257848","0.0-130.0","76185","","","","","","triplet","1081.5","","","","2","stimuli/stim012_animate_face_4.png","stimuli/stim009_animate_face_1.png","stimuli/stim019_inanimate_tree_3.png","124"
"html-button-response-mod","131","259256","0.0-131.0","76185","","","","","","triplet","905.6999999284744","","","","2","stimuli/tools_uppercase.png","stimuli/tree_uppercase.png","stimuli/stim016_inanimate_boats_4.png","125"
"html-button-response-mod","132","260737","0.0-132.0","76185","","","","","","triplet","978.6000000238419","","","","2","stimuli/stim024_inanimate_tools_4.png","stimuli/stim008_animate_bird_4.png","stimuli/boats_uppercase.png","126"
"html-button-response-mod","133","262860","0.0-133.0","76185","","","","","","triplet","1618.8000000715256","","","","1","stimuli/stim001_animate_fish_1.png","stimuli/stim023_inanimate_tools_3.png","stimuli/stim005_animate_bird_1.png","127"
"html-button-response-mod","134","264321","0.0-134.0","76185","","","","","","triplet","957.3000000715256","","","","0","stimuli/fish_lowercase.png","stimuli/stim009_animate_face_1.png","stimuli/stim014_inanimate_boats_2.png","128"
"html-button-response-mod","135","266437","0.0-135.0","76185","","","","","","triplet","1613.5","","","","0","stimuli/stim023_inanimate_tools_3.png","stimuli/stim007_animate_bird_3.png","stimuli/stim002_animate_fish_2.png","129"
"html-button-response-mod","136","268267","0.0-136.0","76185","","","","","","triplet","1326.7000000476837","","","","0","stimuli/stim022_inanimate_tools_2.png","stimuli/stim019_inanimate_tree_3.png","stimuli/stim007_animate_bird_3.png","130"
"html-button-response-mod","137","270074","0.0-137.0","76185","","","","","","triplet","1301.3000000715256","","","","1","stimuli/stim005_animate_bird_1.png","stimuli/stim021_inanimate_tools_1.png","stimuli/stim007_animate_bird_3.png","131"
"html-button-response-mod","138","271347","0.0-138.0","76185","","","","","","triplet","768.5999999046326","","","","1","stimuli/tools_lowercase.png","stimuli/stim016_inanimate_boats_4.png","stimuli/fish_lowercase.png","132"
"html-button-response-mod","139","272721","0.0-139.0","76185","","","","","","triplet","870.6000000238419","","","","0","stimuli/stim014_inanimate_boats_2.png","stimuli/stim007_animate_bird_3.png","stimuli/stim005_animate_bird_1.png","133"
"html-button-response-mod","140","274210","0.0-140.0","76185","","","","","","triplet","985.1000000238419","","","","1","stimuli/face_uppercase.png","stimuli/stim004_animate_fish_4.png","stimuli/boats_lowercase.png","134"
"html-button-response-mod","141","275746","0.0-141.0","76185","","","","","","triplet","1031.6999999284744","","","","0","stimuli/stim012_animate_face_4.png","stimuli/stim004_animate_fish_4.png","stimuli/stim002_animate_fish_2.png","135"
"html-button-response-mod","142","277796","0.0-142.0","76185","","","","","","triplet","1547.6000000238419","","","","2","stimuli/stim005_animate_bird_1.png","stimuli/stim024_inanimate_tools_4.png","stimuli/boats_uppercase.png","136"
"html-button-response-mod","143","279090","0.0-143.0","76185","","","","","","triplet","788.8999999761581","","","","1","stimuli/stim006_animate_bird_2.png","stimuli/bird_lowercase.png","stimuli/stim019_inanimate_tree_3.png","137"
"html-button-response-mod","144","280177","0.0-144.0","76185","","","","","","triplet","583.7000000476837","","","","2","stimuli/stim001_animate_fish_1.png","stimuli/stim018_inanimate_tree_2.png","stimuli/bird_lowercase.png","138"
"html-button-response-mod","145","281479","0.0-145.0","76185","","","","","","triplet","798.6000000238419","","","","1","stimuli/stim022_inanimate_tools_2.png","stimuli/face_uppercase.png","stimuli/stim012_animate_face_4.png","139"
"html-button-response-mod","146","283248","0.0-146.0","76185","","","","","","triplet","1266","","","","1","stimuli/stim016_inanimate_boats_4.png","stimuli/stim021_inanimate_tools_1.png","stimuli/stim015_inanimate_boats_3.png","140"
"html-button-response-mod","147","284947","0.0-147.0","76185","","","","","","triplet","1196.1000000238419","","","","2","stimuli/tools_lowercase.png","stimuli/tree_uppercase.png","stimuli/stim002_animate_fish_2.png","141"
"html-button-response-mod","148","287670","0.0-148.0","76185","","","","","","triplet","2218.4000000953674","","","","0","stimuli/face_lowercase.png","stimuli/stim004_animate_fish_4.png","stimuli/stim021_inanimate_tools_1.png","142"
"html-button-response-mod","149","289234","0.0-149.0","76185","","","","","","triplet","1060.4000000953674","","","","1","stimuli/stim007_animate_bird_3.png","stimuli/stim009_animate_face_1.png","stimuli/stim008_animate_bird_4.png","143"
"html-button-response-mod","150","290500","0.0-150.0","76185","","","","","","triplet","761.1000000238419","","","","0","stimuli/boats_uppercase.png","stimuli/stim006_animate_bird_2.png","stimuli/stim014_inanimate_boats_2.png","144"
"html-button-response-mod","151","291897","0.0-151.0","76185","","","","","","triplet","894.2999999523163","","","","1","stimuli/stim004_animate_fish_4.png","stimuli/tree_lowercase.png","stimuli/stim018_inanimate_tree_2.png","145"
"html-button-response-mod","152","293220","0.0-152.0","76185","","","","","","triplet","815.7999999523163","","","","2","stimuli/stim024_inanimate_tools_4.png","stimuli/stim014_inanimate_boats_2.png","stimuli/tree_uppercase.png","146"
"html-button-response-mod","153","294612","0.0-153.0","76185","","","","","","triplet","888","","","","2","stimuli/stim024_inanimate_tools_4.png","stimuli/stim011_animate_face_3.png","stimuli/fish_lowercase.png","147"
"html-button-response-mod","154","295937","0.0-154.0","76185","","","","","","triplet","818.8999999761581","","","","2","stimuli/stim010_animate_face_2.png","stimuli/stim018_inanimate_tree_2.png","stimuli/tree_uppercase.png","148"
"html-button-response-mod","155","297215","0.0-155.0","76185","","","","","","triplet","773","","","","1","stimuli/stim017_inanimate_tree_1.png","stimuli/boats_uppercase.png","stimuli/stim012_animate_face_4.png","149"
"html-button-response","156","298744","0.0-156.0","76185","","","","","","break","1025.1999999284744","<p>BREAK</p><p>Take a break for as long as you need</p><p>Click the button to continue</p>","0","","","","","",""
"html-button-response-mod","157","300311","0.0-157.0","76185","","","","","","triplet","1565.0999999046326","","","","1","stimuli/stim014_inanimate_boats_2.png","stimuli/stim004_animate_fish_4.png","stimuli/stim015_inanimate_boats_3.png","150"
"html-button-response-mod","158","301930","0.0-158.0","76185","","","","","","triplet","1116.7000000476837","","","","1","stimuli/stim009_animate_face_1.png","stimuli/bird_lowercase.png","stimuli/stim020_inanimate_tree_4.png","151"
"html-button-response-mod","159","304026","0.0-159.0","76185","","","","","","triplet","1592.8999999761581","","","","2","stimuli/stim010_animate_face_2.png","stimuli/stim006_animate_bird_2.png","stimuli/tree_uppercase.png","152"
"html-button-response-mod","160","305614","0.0-160.0","76185","","","","","","triplet","1084.3999999761581","","","","0","stimuli/tree_uppercase.png","stimuli/stim009_animate_face_1.png","stimuli/stim017_inanimate_tree_1.png","153"
"html-button-response-mod","161","306995","0.0-161.0","76185","","","","","","triplet","879.2000000476837","","","","0","stimuli/bird_uppercase.png","stimuli/stim015_inanimate_boats_3.png","stimuli/stim001_animate_fish_1.png","154"
"html-button-response-mod","162","308379","0.0-162.0","76185","","","","","","triplet","880.7999999523163","","","","2","stimuli/bird_lowercase.png","stimuli/face_uppercase.png","stimuli/stim003_animate_fish_3.png","155"
"html-button-response-mod","163","311030","0.0-163.0","76185","","","","","","triplet","2148.7999999523163","","","","1","stimuli/stim003_animate_fish_3.png","stimuli/fish_lowercase.png","stimuli/stim012_animate_face_4.png","156"
"html-button-response-mod","164","312348","0.0-164.0","76185","","","","","","triplet","815","","","","2","stimuli/stim012_animate_face_4.png","stimuli/stim023_inanimate_tools_3.png","stimuli/tools_lowercase.png","157"
"html-button-response-mod","165","317331","0.0-165.0","76185","","","","","","triplet","4479.899999976158","","","","1","stimuli/stim007_animate_bird_3.png","stimuli/stim019_inanimate_tree_3.png","stimuli/stim023_inanimate_tools_3.png","158"
"html-button-response-mod","166","318790","0.0-166.0","76185","","","","","","triplet","955.5","","","","1","stimuli/tree_uppercase.png","stimuli/stim004_animate_fish_4.png","stimuli/bird_uppercase.png","159"
"html-button-response-mod","167","320290","0.0-167.0","76185","","","","","","triplet","997.1000000238419","","","","1","stimuli/stim013_inanimate_boats_1.png","stimuli/tree_lowercase.png","stimuli/stim009_animate_face_1.png","160"
"html-button-response-mod","168","321691","0.0-168.0","76185","","","","","","triplet","896.3999999761581","","","","1","stimuli/fish_lowercase.png","stimuli/stim014_inanimate_boats_2.png","stimuli/face_uppercase.png","161"
"html-button-response-mod","169","323145","0.0-169.0","76185","","","","","","triplet","949.7999999523163","","","","1","stimuli/stim024_inanimate_tools_4.png","stimuli/tools_lowercase.png","stimuli/stim015_inanimate_boats_3.png","162"
"html-button-response-mod","170","324880","0.0-170.0","76185","","","","","","triplet","1230.1000000238419","","","","1","stimuli/stim024_inanimate_tools_4.png","stimuli/stim017_inanimate_tree_1.png","stimuli/stim023_inanimate_tools_3.png","163"
"html-button-response-mod","171","327097","0.0-171.0","76185","","","","","","triplet","1714.4000000953674","","","","1","stimuli/tools_lowercase.png","stimuli/face_uppercase.png","stimuli/fish_lowercase.png","164"
"html-button-response-mod","172","329257","0.0-172.0","76185","","","","","","triplet","1657.6000000238419","","","","1","stimuli/stim001_animate_fish_1.png","stimuli/stim013_inanimate_boats_1.png","stimuli/stim007_animate_bird_3.png","165"
"html-button-response-mod","173","331199","0.0-173.0","76185","","","","","","triplet","1436","","","","1","stimuli/stim016_inanimate_boats_4.png","stimuli/boats_lowercase.png","stimuli/stim024_inanimate_tools_4.png","166"
"html-button-response-mod","174","333335","0.0-174.0","76185","","","","","","triplet","1629","","","","2","stimuli/bird_lowercase.png","stimuli/tools_lowercase.png","stimuli/bird_uppercase.png","167"
"html-button-response-mod","175","334785","0.0-175.0","76185","","","","","","triplet","944.6000000238419","","","","1","stimuli/stim012_animate_face_4.png","stimuli/face_lowercase.png","stimuli/stim014_inanimate_boats_2.png","168"
"html-button-response-mod","176","336175","0.0-176.0","76185","","","","","","triplet","885.3999999761581","","","","1","stimuli/boats_uppercase.png","stimuli/stim007_animate_bird_3.png","stimuli/face_lowercase.png","169"
"html-button-response-mod","177","339073","0.0-177.0","76185","","","","","","triplet","2394.6999999284744","","","","1","stimuli/stim010_animate_face_2.png","stimuli/stim015_inanimate_boats_3.png","stimuli/stim002_animate_fish_2.png","170"
"html-button-response-mod","178","340510","0.0-178.0","76185","","","","","","triplet","931.7000000476837","","","","2","stimuli/stim014_inanimate_boats_2.png","stimuli/stim016_inanimate_boats_4.png","stimuli/stim023_inanimate_tools_3.png","171"
"html-button-response-mod","179","341780","0.0-179.0","76185","","","","","","triplet","767.7000000476837","","","","0","stimuli/stim016_inanimate_boats_4.png","stimuli/tree_lowercase.png","stimuli/face_uppercase.png","172"
"html-button-response-mod","180","343455","0.0-180.0","76185","","","","","","triplet","1172.3999999761581","","","","1","stimuli/stim018_inanimate_tree_2.png","stimuli/boats_lowercase.png","stimuli/stim015_inanimate_boats_3.png","173"
"html-button-response-mod","181","344742","0.0-181.0","76185","","","","","","triplet","781.5","","","","2","stimuli/stim003_animate_fish_3.png","stimuli/stim009_animate_face_1.png","stimuli/tree_lowercase.png","174"
"html-button-response-mod","182","346228","0.0-182.0","76185","","","","","","triplet","982.8999999761581","","","","1","stimuli/bird_lowercase.png","stimuli/stim010_animate_face_2.png","stimuli/boats_uppercase.png","175"
"html-button-response-mod","183","348097","0.0-183.0","76185","","","","","","triplet","1365","","","","1","stimuli/stim023_inanimate_tools_3.png","stimuli/face_uppercase.png","stimuli/stim009_animate_face_1.png","176"
"html-button-response-mod","184","351221","0.0-184.0","76185","","","","","","triplet","2620.100000023842","","","","0","stimuli/bird_uppercase.png","stimuli/stim009_animate_face_1.png","stimuli/stim021_inanimate_tools_1.png","177"
"html-button-response-mod","185","354024","0.0-185.0","76185","","","","","","triplet","2294.899999976158","","","","1","stimuli/stim005_animate_bird_1.png","stimuli/stim021_inanimate_tools_1.png","stimuli/stim015_inanimate_boats_3.png","178"
"html-button-response-mod","186","356023","0.0-186.0","76185","","","","","","triplet","1495.0999999046326","","","","2","stimuli/stim001_animate_fish_1.png","stimuli/stim009_animate_face_1.png","stimuli/fish_lowercase.png","179"
"html-button-response-mod","187","358646","0.0-187.0","76185","","","","","","triplet","2118.6999999284744","","","","1","stimuli/stim003_animate_fish_3.png","stimuli/stim021_inanimate_tools_1.png","stimuli/stim009_animate_face_1.png","180"
"html-button-response-mod","188","360794","0.0-188.0","76185","","","","","","triplet","1645.8000000715256","","","","1","stimuli/stim016_inanimate_boats_4.png","stimuli/face_lowercase.png","stimuli/stim024_inanimate_tools_4.png","181"
"html-button-response-mod","189","362137","0.0-189.0","76185","","","","","","triplet","840","","","","0","stimuli/fish_lowercase.png","stimuli/stim013_inanimate_boats_1.png","stimuli/stim004_animate_fish_4.png","182"
"html-button-response-mod","190","364058","0.0-190.0","76185","","","","","","triplet","1418.3999999761581","","","","2","stimuli/stim001_animate_fish_1.png","stimuli/stim002_animate_fish_2.png","stimuli/stim007_animate_bird_3.png","183"
"html-button-response-mod","191","365964","0.0-191.0","76185","","","","","","triplet","1401.1000000238419","","","","1","stimuli/stim004_animate_fish_4.png","stimuli/stim021_inanimate_tools_1.png","stimuli/stim007_animate_bird_3.png","184"
"html-button-response-mod","192","367482","0.0-192.0","76185","","","","","","triplet","1014.3000000715256","","","","1","stimuli/fish_uppercase.png","stimuli/face_lowercase.png","stimuli/tools_uppercase.png","185"
"html-button-response-mod","193","368734","0.0-193.0","76185","","","","","","triplet","750.1000000238419","","","","2","stimuli/boats_uppercase.png","stimuli/tools_uppercase.png","stimuli/stim001_animate_fish_1.png","186"
"html-button-response-mod","194","370149","0.0-194.0","76185","","","","","","triplet","911.8000000715256","","","","2","stimuli/stim013_inanimate_boats_1.png","stimuli/stim010_animate_face_2.png","stimuli/face_lowercase.png","187"
"html-button-response-mod","195","371579","0.0-195.0","76185","","","","","","triplet","926.6999999284744","","","","1","stimuli/tools_uppercase.png","stimuli/face_lowercase.png","stimuli/bird_uppercase.png","188"
"html-button-response-mod","196","373098","0.0-196.0","76185","","","","","","triplet","1015.6000000238419","","","","0","stimuli/stim012_animate_face_4.png","stimuli/fish_lowercase.png","stimuli/boats_uppercase.png","189"
"html-button-response-mod","197","374444","0.0-197.0","76185","","","","","","triplet","843","","","","2","stimuli/stim007_animate_bird_3.png","stimuli/stim010_animate_face_2.png","stimuli/boats_uppercase.png","190"
"html-button-response-mod","198","375847","0.0-198.0","76185","","","","","","triplet","899.1999999284744","","","","0","stimuli/stim002_animate_fish_2.png","stimuli/boats_uppercase.png","stimuli/bird_lowercase.png","191"
"html-button-response-mod","199","377262","0.0-199.0","76185","","","","","","triplet","912.2000000476837","","","","2","stimuli/tools_uppercase.png","stimuli/bird_uppercase.png","stimuli/stim001_animate_fish_1.png","192"
"html-button-response-mod","200","378702","0.0-200.0","76185","","","","","","triplet","936.9000000953674","","","","0","stimuli/boats_lowercase.png","stimuli/stim019_inanimate_tree_3.png","stimuli/stim005_animate_bird_1.png","193"
"html-button-response-mod","201","379985","0.0-201.0","76185","","","","","","triplet","777.7000000476837","","","","0","stimuli/face_uppercase.png","stimuli/stim009_animate_face_1.png","stimuli/stim020_inanimate_tree_4.png","194"
"html-button-response-mod","202","381951","0.0-202.0","76185","","","","","","triplet","1461.7999999523163","","","","2","stimuli/stim009_animate_face_1.png","stimuli/stim007_animate_bird_3.png","stimuli/stim022_inanimate_tools_2.png","195"
"html-button-response-mod","203","383104","0.0-203.0","76185","","","","","","triplet","650.7999999523163","","","","0","stimuli/stim007_animate_bird_3.png","stimuli/tree_uppercase.png","stimuli/tools_lowercase.png","196"
"html-button-response-mod","204","384470","0.0-204.0","76185","","","","","","triplet","860.6000000238419","","","","0","stimuli/stim016_inanimate_boats_4.png","stimuli/face_lowercase.png","stimuli/bird_uppercase.png","197"
"html-button-response-mod","205","385762","0.0-205.0","76185","","","","","","triplet","790.2999999523163","","","","1","stimuli/stim001_animate_fish_1.png","stimuli/boats_lowercase.png","stimuli/stim002_animate_fish_2.png","198"
"html-button-response-mod","206","387449","0.0-206.0","76185","","","","","","triplet","1184.7999999523163","","","","0","stimuli/boats_uppercase.png","stimuli/tools_lowercase.png","stimuli/face_lowercase.png","199"
"html-button-response","207","388922","0.0-207.0","76185","","","","","","break","969.7999999523163","<p>BREAK</p><p>Take a break for as long as you need</p><p>Click the button to continue</p>","0","","","","","",""
"html-button-response-mod","208","390144","0.0-208.0","76185","","","","","","triplet","1219.7000000476837","","","","1","stimuli/bird_lowercase.png","stimuli/stim013_inanimate_boats_1.png","stimuli/tools_lowercase.png","200"
"html-button-response-mod","209","391715","0.0-209.0","76185","","","","","","triplet","1069","","","","1","stimuli/stim019_inanimate_tree_3.png","stimuli/fish_uppercase.png","stimuli/stim004_animate_fish_4.png","201"
"html-button-response-mod","210","393023","0.0-210.0","76185","","","","","","triplet","805.6999999284744","","","","0","stimuli/stim004_animate_fish_4.png","stimuli/tools_uppercase.png","stimuli/tree_uppercase.png","202"
"html-button-response-mod","211","394580","0.0-211.0","76185","","","","","","triplet","1053.7999999523163","","","","0","stimuli/face_lowercase.png","stimuli/stim007_animate_bird_3.png","stimuli/stim002_animate_fish_2.png","203"
"html-button-response-mod","212","395998","0.0-212.0","76185","","","","","","triplet","915.6000000238419","","","","2","stimuli/stim023_inanimate_tools_3.png","stimuli/stim007_animate_bird_3.png","stimuli/stim011_animate_face_3.png","204"
"html-button-response-mod","213","397415","0.0-213.0","76185","","","","","","triplet","914.7999999523163","","","","2","stimuli/boats_lowercase.png","stimuli/face_uppercase.png","stimuli/stim011_animate_face_3.png","205"
"html-button-response-mod","214","399199","0.0-214.0","76185","","","","","","triplet","1282.3999999761581","","","","1","stimuli/stim012_animate_face_4.png","stimuli/fish_lowercase.png","stimuli/stim019_inanimate_tree_3.png","206"
"html-button-response-mod","215","406996","0.0-215.0","76185","","","","","","triplet","7294.200000047684","","","","2","stimuli/stim021_inanimate_tools_1.png","stimuli/stim002_animate_fish_2.png","stimuli/stim017_inanimate_tree_1.png","207"
"html-button-response-mod","216","408705","0.0-216.0","76185","","","","","","triplet","1207.1000000238419","","","","2","stimuli/stim023_inanimate_tools_3.png","stimuli/stim013_inanimate_boats_1.png","stimuli/bird_uppercase.png","208"
"html-button-response-mod","217","410933","0.0-217.0","76185","","","","","","triplet","1722.7999999523163","","","","1","stimuli/stim011_animate_face_3.png","stimuli/stim006_animate_bird_2.png","stimuli/stim009_animate_face_1.png","209"
"html-button-response-mod","218","412595","0.0-218.0","76185","","","","","","triplet","1158.1000000238419","","","","2","stimuli/stim021_inanimate_tools_1.png","stimuli/stim009_animate_face_1.png","stimuli/tree_uppercase.png","210"
"html-button-response-mod","219","416017","0.0-219.0","76185","","","","","","triplet","2919.2999999523163","","","","1","stimuli/stim017_inanimate_tree_1.png","stimuli/stim014_inanimate_boats_2.png","stimuli/stim007_animate_bird_3.png","211"
"html-button-response-mod","220","418904","0.0-220.0","76185","","","","","","triplet","2381.7000000476837","","","","0","stimuli/boats_lowercase.png","stimuli/stim023_inanimate_tools_3.png","stimuli/stim018_inanimate_tree_2.png","212"
"html-button-response-mod","221","420637","0.0-221.0","76185","","","","","","triplet","1230.5","","","","1","stimuli/stim002_animate_fish_2.png","stimuli/stim013_inanimate_boats_1.png","stimuli/stim003_animate_fish_3.png","213"
"html-button-response-mod","222","422114","0.0-222.0","76185","","","","","","triplet","973.0999999046326","","","","2","stimuli/fish_uppercase.png","stimuli/tools_lowercase.png","stimuli/stim018_inanimate_tree_2.png","214"
"html-button-response-mod","223","424507","0.0-223.0","76185","","","","","","triplet","1889.2999999523163","","","","0","stimuli/stim021_inanimate_tools_1.png","stimuli/stim017_inanimate_tree_1.png","stimuli/stim004_animate_fish_4.png","215"
"html-button-response-mod","224","426431","0.0-224.0","76185","","","","","","triplet","1420.7000000476837","","","","1","stimuli/stim021_inanimate_tools_1.png","stimuli/bird_uppercase.png","stimuli/stim001_animate_fish_1.png","216"
"html-button-response-mod","225","427810","0.0-225.0","76185","","","","","","triplet","874.7000000476837","","","","1","stimuli/bird_uppercase.png","stimuli/stim012_animate_face_4.png","stimuli/tools_uppercase.png","217"
"html-button-response-mod","226","429676","0.0-226.0","76185","","","","","","triplet","1363.7999999523163","","","","1","stimuli/face_lowercase.png","stimuli/stim013_inanimate_boats_1.png","stimuli/boats_lowercase.png","218"
"html-button-response-mod","227","431479","0.0-227.0","76185","","","","","","triplet","1300.5","","","","2","stimuli/tree_uppercase.png","stimuli/face_uppercase.png","stimuli/stim024_inanimate_tools_4.png","219"
"html-button-response-mod","228","433422","0.0-228.0","76185","","","","","","triplet","1440.6999999284744","","","","2","stimuli/stim004_animate_fish_4.png","stimuli/stim003_animate_fish_3.png","stimuli/stim022_inanimate_tools_2.png","220"
"html-button-response-mod","229","434978","0.0-229.0","76185","","","","","","triplet","1052.9000000953674","","","","2","stimuli/stim011_animate_face_3.png","stimuli/stim022_inanimate_tools_2.png","stimuli/face_uppercase.png","221"
"html-button-response-mod","230","436180","0.0-230.0","76185","","","","","","triplet","699.8999999761581","","","","0","stimuli/bird_uppercase.png","stimuli/stim023_inanimate_tools_3.png","stimuli/stim022_inanimate_tools_2.png","222"
"html-button-response-mod","231","438380","0.0-231.0","76185","","","","","","triplet","1697.3000000715256","","","","1","stimuli/stim021_inanimate_tools_1.png","stimuli/tree_lowercase.png","stimuli/stim017_inanimate_tree_1.png","223"
"html-button-response-mod","232","439702","0.0-232.0","76185","","","","","","triplet","818.8999999761581","","","","1","stimuli/stim008_animate_bird_4.png","stimuli/fish_uppercase.png","stimuli/stim012_animate_face_4.png","224"
"html-button-response-mod","233","441129","0.0-233.0","76185","","","","","","triplet","923.3999999761581","","","","1","stimuli/stim003_animate_fish_3.png","stimuli/boats_lowercase.png","stimuli/stim023_inanimate_tools_3.png","225"
"html-button-response-mod","234","443236","0.0-234.0","76185","","","","","","triplet","1603.2999999523163","","","","2","stimuli/face_lowercase.png","stimuli/boats_lowercase.png","stimuli/fish_uppercase.png","226"
"html-button-response-mod","235","444607","0.0-235.0","76185","","","","","","triplet","868.3999999761581","","","","2","stimuli/tree_uppercase.png","stimuli/tools_lowercase.png","stimuli/stim021_inanimate_tools_1.png","227"
"html-button-response-mod","236","445985","0.0-236.0","76185","","","","","","triplet","871","","","","0","stimuli/stim003_animate_fish_3.png","stimuli/boats_lowercase.png","stimuli/tools_lowercase.png","228"
"html-button-response-mod","237","447582","0.0-237.0","76185","","","","","","triplet","1090.0999999046326","","","","1","stimuli/tree_uppercase.png","stimuli/stim013_inanimate_boats_1.png","stimuli/tools_uppercase.png","229"
"html-button-response-mod","238","449213","0.0-238.0","76185","","","","","","triplet","1128.1000000238419","","","","1","stimuli/boats_lowercase.png","stimuli/stim016_inanimate_boats_4.png","stimuli/tools_lowercase.png","230"
"html-button-response-mod","239","450703","0.0-239.0","76185","","","","","","triplet","986.7999999523163","","","","1","stimuli/stim006_animate_bird_2.png","stimuli/fish_uppercase.png","stimuli/stim005_animate_bird_1.png","231"
"html-button-response-mod","240","452037","0.0-240.0","76185","","","","","","triplet","830.5","","","","2","stimuli/tree_lowercase.png","stimuli/bird_lowercase.png","stimuli/stim018_inanimate_tree_2.png","232"
"html-button-response-mod","241","453635","0.0-241.0","76185","","","","","","triplet","1094.2000000476837","","","","1","stimuli/stim007_animate_bird_3.png","stimuli/stim020_inanimate_tree_4.png","stimuli/stim010_animate_face_2.png","233"
"html-button-response-mod","242","456050","0.0-242.0","76185","","","","","","triplet","1912.6999999284744","","","","2","stimuli/stim007_animate_bird_3.png","stimuli/stim017_inanimate_tree_1.png","stimuli/stim004_animate_fish_4.png","234"
"html-button-response-mod","243","457617","0.0-243.0","76185","","","","","","triplet","1064.3999999761581","","","","2","stimuli/tree_uppercase.png","stimuli/face_uppercase.png","stimuli/stim013_inanimate_boats_1.png","235"
"html-button-response-mod","244","459953","0.0-244.0","76185","","","","","","triplet","1833","","","","2","stimuli/stim018_inanimate_tree_2.png","stimuli/stim004_animate_fish_4.png","stimuli/stim024_inanimate_tools_4.png","236"
"html-button-response-mod","245","461336","0.0-245.0","76185","","","","","","triplet","880.7999999523163","","","","1","stimuli/face_uppercase.png","stimuli/stim007_animate_bird_3.png","stimuli/boats_uppercase.png","237"
"html-button-response-mod","246","463153","0.0-246.0","76185","","","","","","triplet","1313.6000000238419","","","","1","stimuli/stim003_animate_fish_3.png","stimuli/tree_lowercase.png","stimuli/stim005_animate_bird_1.png","238"
"html-button-response-mod","247","464434","0.0-247.0","76185","","","","","","triplet","777.5","","","","0","stimuli/face_lowercase.png","stimuli/stim010_animate_face_2.png","stimuli/stim005_animate_bird_1.png","239"
"html-button-response-mod","248","465593","0.0-248.0","76185","","","","","","triplet","656.7000000476837","","","","2","stimuli/stim022_inanimate_tools_2.png","stimuli/stim021_inanimate_tools_1.png","stimuli/bird_lowercase.png","240"
"html-button-response-mod","249","467093","0.0-249.0","76185","","","","","","triplet","997.3999999761581","","","","1","stimuli/stim014_inanimate_boats_2.png","stimuli/stim004_animate_fish_4.png","stimuli/stim016_inanimate_boats_4.png","241"
"html-button-response-mod","250","468798","0.0-250.0","76185","","","","","","triplet","1201.7999999523163","","","","0","stimuli/tools_uppercase.png","stimuli/stim001_animate_fish_1.png","stimuli/stim008_animate_bird_4.png","242"
"html-button-response-mod","251","470207","0.0-251.0","76185","","","","","","triplet","906.1999999284744","","","","0","stimuli/stim005_animate_bird_1.png","stimuli/fish_uppercase.png","stimuli/fish_lowercase.png","243"
"html-button-response-mod","252","471446","0.0-252.0","76185","","","","","","triplet","737","","","","2","stimuli/face_uppercase.png","stimuli/tree_uppercase.png","stimuli/stim017_inanimate_tree_1.png","244"
"html-button-response-mod","253","473660","0.0-253.0","76185","","","","","","triplet","1710.6999999284744","","","","1","stimuli/stim011_animate_face_3.png","stimuli/stim024_inanimate_tools_4.png","stimuli/stim002_animate_fish_2.png","245"
"html-button-response-mod","254","476011","0.0-254.0","76185","","","","","","triplet","1847","","","","1","stimuli/stim003_animate_fish_3.png","stimuli/stim016_inanimate_boats_4.png","stimuli/stim017_inanimate_tree_1.png","246"
"html-button-response-mod","255","477583","0.0-255.0","76185","","","","","","triplet","1069.1999999284744","","","","0","stimuli/stim006_animate_bird_2.png","stimuli/fish_lowercase.png","stimuli/fish_uppercase.png","247"
"html-button-response-mod","256","479651","0.0-256.0","76185","","","","","","triplet","1565.7000000476837","","","","1","stimuli/stim021_inanimate_tools_1.png","stimuli/tree_uppercase.png","stimuli/stim020_inanimate_tree_4.png","248"
"html-button-response-mod","257","481534","0.0-257.0","76185","","","","","","triplet","1378.8999999761581","","","","2","stimuli/stim014_inanimate_boats_2.png","stimuli/stim013_inanimate_boats_1.png","stimuli/stim018_inanimate_tree_2.png","249"
"html-button-response","258","482992","0.0-258.0","76185","","","","","","break","954.2000000476837","<p>BREAK</p><p>Take a break for as long as you need</p><p>Click the button to continue</p>","0","","","","","",""
"html-button-response-mod","259","484138","0.0-259.0","76185","","","","","","triplet","1144","","","","1","stimuli/stim008_animate_bird_4.png","stimuli/stim014_inanimate_boats_2.png","stimuli/stim005_animate_bird_1.png","250"
"html-button-response-mod","260","485973","0.0-260.0","76185","","","","","","triplet","1331.1000000238419","","","","2","stimuli/stim008_animate_bird_4.png","stimuli/stim010_animate_face_2.png","stimuli/fish_uppercase.png","251"
"html-button-response-mod","261","487173","0.0-261.0","76185","","","","","","triplet","696.8999999761581","","","","1","stimuli/stim023_inanimate_tools_3.png","stimuli/fish_uppercase.png","stimuli/stim005_animate_bird_1.png","252"
"html-button-response-mod","262","488655","0.0-262.0","76185","","","","","","triplet","979.4000000953674","","","","0","stimuli/stim009_animate_face_1.png","stimuli/stim005_animate_bird_1.png","stimuli/stim007_animate_bird_3.png","253"
"html-button-response-mod","263","489989","0.0-263.0","76185","","","","","","triplet","831.7999999523163","","","","0","stimuli/boats_lowercase.png","stimuli/stim016_inanimate_boats_4.png","stimuli/stim019_inanimate_tree_3.png","254"
"html-button-response-mod","264","491405","0.0-264.0","76185","","","","","","triplet","914","","","","1","stimuli/tools_lowercase.png","stimuli/stim014_inanimate_boats_2.png","stimuli/face_uppercase.png","255"
"html-button-response-mod","265","492850","0.0-265.0","76185","","","","","","triplet","940.9000000953674","","","","1","stimuli/fish_uppercase.png","stimuli/stim019_inanimate_tree_3.png","stimuli/tree_uppercase.png","256"
"html-button-response-mod","266","494165","0.0-266.0","76185","","","","","","triplet","812.5","","","","1","stimuli/stim004_animate_fish_4.png","stimuli/face_lowercase.png","stimuli/stim012_animate_face_4.png","257"
"html-button-response-mod","267","495434","0.0-267.0","76185","","","","","","triplet","765.7999999523163","","","","0","stimuli/boats_uppercase.png","stimuli/stim007_animate_bird_3.png","stimuli/stim023_inanimate_tools_3.png","258"
"html-button-response-mod","268","496623","0.0-268.0","76185","","","","","","triplet","686.3000000715256","","","","1","stimuli/stim007_animate_bird_3.png","stimuli/tools_uppercase.png","stimuli/stim008_animate_bird_4.png","259"
"html-button-response-mod","269","497869","0.0-269.0","76185","","","","","","triplet","744.8999999761581","","","","2","stimuli/stim018_inanimate_tree_2.png","stimuli/stim007_animate_bird_3.png","stimuli/tools_lowercase.png","260"
"html-button-response-mod","270","499618","0.0-270.0","76185","","","","","","triplet","1245.7999999523163","","","","2","stimuli/stim003_animate_fish_3.png","stimuli/stim020_inanimate_tree_4.png","stimuli/stim023_inanimate_tools_3.png","261"
"html-button-response-mod","271","501585","0.0-271.0","76185","","","","","","triplet","1465.2999999523163","","","","2","stimuli/stim024_inanimate_tools_4.png","stimuli/stim017_inanimate_tree_1.png","stimuli/tools_lowercase.png","262"
"html-button-response-mod","272","503046","0.0-272.0","76185","","","","","","triplet","957.2999999523163","","","","2","stimuli/stim014_inanimate_boats_2.png","stimuli/stim001_animate_fish_1.png","stimuli/face_lowercase.png","263"
"html-button-response-mod","273","505982","0.0-273.0","76185","","","","","","triplet","2433.4000000953674","","","","1","stimuli/fish_uppercase.png","stimuli/tools_lowercase.png","stimuli/fish_lowercase.png","264"
"html-button-response-mod","274","508233","0.0-274.0","76185","","","","","","triplet","1746.7999999523163","","","","2","stimuli/bird_uppercase.png","stimuli/tree_lowercase.png","stimuli/stim016_inanimate_boats_4.png","265"
"html-button-response-mod","275","509666","0.0-275.0","76185","","","","","","triplet","927.5999999046326","","","","2","stimuli/stim002_animate_fish_2.png","stimuli/stim001_animate_fish_1.png","stimuli/stim013_inanimate_boats_1.png","266"
"html-button-response-mod","276","511460","0.0-276.0","76185","","","","","","triplet","1290.8999999761581","","","","0","stimuli/fish_uppercase.png","stimuli/stim023_inanimate_tools_3.png","stimuli/stim011_animate_face_3.png","267"
"html-button-response-mod","277","512851","0.0-277.0","76185","","","","","","triplet","887.8999999761581","","","","1","stimuli/stim018_inanimate_tree_2.png","stimuli/stim007_animate_bird_3.png","stimuli/stim019_inanimate_tree_3.png","268"
"html-button-response-mod","278","514647","0.0-278.0","76185","","","","","","triplet","1293.6000000238419","","","","1","stimuli/stim013_inanimate_boats_1.png","stimuli/tree_uppercase.png","stimuli/stim010_animate_face_2.png","269"
"html-button-response-mod","279","515991","0.0-279.0","76185","","","","","","triplet","840.7999999523163","","","","2","stimuli/stim012_animate_face_4.png","stimuli/stim001_animate_fish_1.png","stimuli/fish_uppercase.png","270"
"html-button-response-mod","280","517306","0.0-280.0","76185","","","","","","triplet","813.8000000715256","","","","2","stimuli/stim009_animate_face_1.png","stimuli/stim010_animate_face_2.png","stimuli/bird_lowercase.png","271"
"html-button-response-mod","281","518693","0.0-281.0","76185","","","","","","triplet","885.7999999523163","","","","0","stimuli/stim018_inanimate_tree_2.png","stimuli/stim004_animate_fish_4.png","stimuli/stim005_animate_bird_1.png","272"
"html-button-response-mod","282","520114","0.0-282.0","76185","","","","","","triplet","918.8000000715256","","","","0","stimuli/stim001_animate_fish_1.png","stimuli/fish_lowercase.png","stimuli/boats_lowercase.png","273"
"html-button-response-mod","283","521448","0.0-283.0","76185","","","","","","triplet","831.3999999761581","","","","1","stimuli/tree_uppercase.png","stimuli/stim023_inanimate_tools_3.png","stimuli/fish_uppercase.png","274"
"html-button-response-mod","284","522905","0.0-284.0","76185","","","","","","triplet","954","","","","2","stimuli/stim008_animate_bird_4.png","stimuli/stim013_inanimate_boats_1.png","stimuli/stim011_animate_face_3.png","275"
"html-button-response-mod","285","527322","0.0-285.0","76185","","","","","","triplet","3914.600000023842","","","","1","stimuli/stim014_inanimate_boats_2.png","stimuli/bird_uppercase.png","stimuli/stim020_inanimate_tree_4.png","276"
"html-button-response-mod","286","528676","0.0-286.0","76185","","","","","","triplet","848.1000000238419","","","","2","stimuli/stim010_animate_face_2.png","stimuli/stim012_animate_face_4.png","stimuli/stim018_inanimate_tree_2.png","277"
"html-button-response-mod","287","530003","0.0-287.0","76185","","","","","","triplet","823.7000000476837","","","","2","stimuli/tools_uppercase.png","stimuli/fish_uppercase.png","stimuli/stim001_animate_fish_1.png","278"
"html-button-response-mod","288","531692","0.0-288.0","76185","","","","","","triplet","1183.8999999761581","","","","0","stimuli/bird_uppercase.png","stimuli/stim006_animate_bird_2.png","stimuli/stim023_inanimate_tools_3.png","279"
"html-button-response-mod","289","533075","0.0-289.0","76185","","","","","","triplet","881.1000000238419","","","","1","stimuli/stim020_inanimate_tree_4.png","stimuli/tools_lowercase.png","stimuli/stim012_animate_face_4.png","280"
"html-button-response-mod","290","534530","0.0-290.0","76185","","","","","","triplet","952.1000000238419","","","","2","stimuli/fish_lowercase.png","stimuli/boats_lowercase.png","stimuli/stim010_animate_face_2.png","281"
"html-button-response-mod","291","535923","0.0-291.0","76185","","","","","","triplet","889.1000000238419","","","","2","stimuli/stim022_inanimate_tools_2.png","stimuli/stim008_animate_bird_4.png","stimuli/stim020_inanimate_tree_4.png","282"
"html-button-response-mod","292","538327","0.0-292.0","76185","","","","","","triplet","1901.0999999046326","","","","1","stimuli/stim001_animate_fish_1.png","stimuli/bird_lowercase.png","stimuli/stim011_animate_face_3.png","283"
"html-button-response-mod","293","540412","0.0-293.0","76185","","","","","","triplet","1582","","","","2","stimuli/stim002_animate_fish_2.png","stimuli/stim013_inanimate_boats_1.png","stimuli/stim012_animate_face_4.png","284"
"html-button-response-mod","294","545865","0.0-294.0","76185","","","","","","triplet","4949","","","","1","stimuli/fish_uppercase.png","stimuli/boats_uppercase.png","stimuli/tree_uppercase.png","285"
"html-button-response-mod","295","549653","0.0-295.0","76185","","","","","","triplet","3285.5","","","","0","stimuli/stim014_inanimate_boats_2.png","stimuli/stim004_animate_fish_4.png","stimuli/stim020_inanimate_tree_4.png","286"
"html-button-response-mod","296","551540","0.0-296.0","76185","","","","","","triplet","1384","","","","2","stimuli/boats_uppercase.png","stimuli/boats_lowercase.png","stimuli/stim004_animate_fish_4.png","287"
"html-button-response-mod","297","554706","0.0-297.0","76185","","","","","","triplet","2662.0999999046326","","","","2","stimuli/stim015_inanimate_boats_3.png","stimuli/stim004_animate_fish_4.png","stimuli/tree_uppercase.png","288"
"html-button-response-mod","298","557495","0.0-298.0","76185","","","","","","triplet","2285.8000000715256","","","","1","stimuli/stim016_inanimate_boats_4.png","stimuli/boats_uppercase.png","stimuli/stim009_animate_face_1.png","289"
"html-button-response-mod","299","561889","0.0-299.0","76185","","","","","","triplet","3891.3000000715256","","","","1","stimuli/tools_uppercase.png","stimuli/bird_lowercase.png","stimuli/bird_uppercase.png","290"
"html-button-response-mod","300","564547","0.0-300.0","76185","","","","","","triplet","2154.1999999284744","","","","0","stimuli/bird_lowercase.png","stimuli/stim022_inanimate_tools_2.png","stimuli/stim012_animate_face_4.png","291"
"html-button-response-mod","301","565915","0.0-301.0","76185","","","","","","triplet","865.5","","","","1","stimuli/stim020_inanimate_tree_4.png","stimuli/stim009_animate_face_1.png","stimuli/stim017_inanimate_tree_1.png","292"
"html-button-response-mod","302","567641","0.0-302.0","76185","","","","","","triplet","1223.5","","","","1","stimuli/fish_lowercase.png","stimuli/bird_uppercase.png","stimuli/tree_lowercase.png","293"
"html-button-response-mod","303","569183","0.0-303.0","76185","","","","","","triplet","1038.5","","","","0","stimuli/stim013_inanimate_boats_1.png","stimuli/stim007_animate_bird_3.png","stimuli/stim005_animate_bird_1.png","294"
"html-button-response-mod","304","571109","0.0-304.0","76185","","","","","","triplet","1423.5","","","","2","stimuli/stim019_inanimate_tree_3.png","stimuli/stim012_animate_face_4.png","stimuli/face_uppercase.png","295"
"html-button-response-mod","305","572412","0.0-305.0","76185","","","","","","triplet","800.8000000715256","","","","2","stimuli/stim023_inanimate_tools_3.png","stimuli/stim015_inanimate_boats_3.png","stimuli/tree_uppercase.png","296"
"html-button-response-mod","306","573766","0.0-306.0","76185","","","","","","triplet","851.5","","","","2","stimuli/stim021_inanimate_tools_1.png","stimuli/stim006_animate_bird_2.png","stimuli/tools_lowercase.png","297"
"html-button-response-mod","307","575239","0.0-307.0","76185","","","","","","triplet","969.2000000476837","","","","1","stimuli/stim012_animate_face_4.png","stimuli/bird_lowercase.png","stimuli/stim002_animate_fish_2.png","298"
"html-button-response-mod","308","576728","0.0-308.0","76185","","","","","","triplet","983.6999999284744","","","","0","stimuli/face_lowercase.png","stimuli/stim021_inanimate_tools_1.png","stimuli/stim020_inanimate_tree_4.png","299"
"html-button-response","309","595851","0.0-309.0","76185","","","","","","break","18619.700000047684","<p>BREAK</p><p>Take a break for as long as you need</p><p>Click the button to continue</p>","0","","","","","",""
"html-button-response-mod","310","596796","0.0-310.0","76185","","","","","","triplet","942.3999999761581","","","","0","stimuli/stim001_animate_fish_1.png","stimuli/boats_uppercase.png","stimuli/tree_lowercase.png","300"
"html-button-response-mod","311","598013","0.0-311.0","76185","","","","","","triplet","713.5","","","","0","stimuli/boats_uppercase.png","stimuli/stim012_animate_face_4.png","stimuli/stim002_animate_fish_2.png","301"
"html-button-response-mod","312","599945","0.0-312.0","76185","","","","","","triplet","1429.3999999761581","","","","0","stimuli/stim001_animate_fish_1.png","stimuli/fish_lowercase.png","stimuli/tree_uppercase.png","302"
"html-button-response-mod","313","601496","0.0-313.0","76185","","","","","","triplet","1048.5","","","","0","stimuli/stim008_animate_bird_4.png","stimuli/stim009_animate_face_1.png","stimuli/stim012_animate_face_4.png","303"
"html-button-response-mod","314","602674","0.0-314.0","76185","","","","","","triplet","673.7999999523163","","","","0","stimuli/stim021_inanimate_tools_1.png","stimuli/face_uppercase.png","stimuli/boats_lowercase.png","304"
"html-button-response-mod","315","605271","0.0-315.0","76185","","","","","","triplet","2095.100000023842","","","","2","stimuli/stim024_inanimate_tools_4.png","stimuli/stim013_inanimate_boats_1.png","stimuli/stim002_animate_fish_2.png","305"
"html-button-response-mod","316","607029","0.0-316.0","76185","","","","","","triplet","1255.5","","","","1","stimuli/fish_uppercase.png","stimuli/stim014_inanimate_boats_2.png","stimuli/face_lowercase.png","306"
"html-button-response-mod","317","608516","0.0-317.0","76185","","","","","","triplet","980","","","","0","stimuli/boats_lowercase.png","stimuli/stim020_inanimate_tree_4.png","stimuli/stim012_animate_face_4.png","307"
"html-button-response-mod","318","610739","0.0-318.0","76185","","","","","","triplet","1718.1999999284744","","","","2","stimuli/stim007_animate_bird_3.png","stimuli/stim017_inanimate_tree_1.png","stimuli/stim016_inanimate_boats_4.png","308"
"html-button-response-mod","319","612258","0.0-319.0","76185","","","","","","triplet","1016.3999999761581","","","","0","stimuli/stim016_inanimate_boats_4.png","stimuli/stim012_animate_face_4.png","stimuli/stim010_animate_face_2.png","309"
"html-button-response-mod","320","613551","0.0-320.0","76185","","","","","","triplet","789.7999999523163","","","","0","stimuli/stim011_animate_face_3.png","stimuli/bird_uppercase.png","stimuli/tree_lowercase.png","310"
"html-button-response-mod","321","615022","0.0-321.0","76185","","","","","","triplet","967.7000000476837","","","","1","stimuli/stim015_inanimate_boats_3.png","stimuli/stim006_animate_bird_2.png","stimuli/stim014_inanimate_boats_2.png","311"
"html-button-response-mod","322","616430","0.0-322.0","76185","","","","","","triplet","903.5","","","","2","stimuli/stim001_animate_fish_1.png","stimuli/stim009_animate_face_1.png","stimuli/bird_lowercase.png","312"
"html-button-response-mod","323","617757","0.0-323.0","76185","","","","","","triplet","825","","","","2","stimuli/stim023_inanimate_tools_3.png","stimuli/stim005_animate_bird_1.png","stimuli/boats_uppercase.png","313"
"html-button-response-mod","324","619092","0.0-324.0","76185","","","","","","triplet","832.1000000238419","","","","2","stimuli/stim014_inanimate_boats_2.png","stimuli/stim013_inanimate_boats_1.png","stimuli/face_lowercase.png","314"
"html-button-response-mod","325","620850","0.0-325.0","76185","","","","","","triplet","1255.8999999761581","","","","1","stimuli/stim022_inanimate_tools_2.png","stimuli/tree_lowercase.png","stimuli/stim004_animate_fish_4.png","315"
"html-button-response-mod","326","622193","0.0-326.0","76185","","","","","","triplet","840.1000000238419","","","","2","stimuli/stim019_inanimate_tree_3.png","stimuli/stim022_inanimate_tools_2.png","stimuli/fish_lowercase.png","316"
"html-button-response-mod","327","623877","0.0-327.0","76185","","","","","","triplet","1181","","","","1","stimuli/stim024_inanimate_tools_4.png","stimuli/stim005_animate_bird_1.png","stimuli/stim013_inanimate_boats_1.png","317"
"html-button-response-mod","328","625164","0.0-328.0","76185","","","","","","triplet","783","","","","2","stimuli/bird_lowercase.png","stimuli/tree_uppercase.png","stimuli/stim004_animate_fish_4.png","318"
"html-button-response-mod","329","626638","0.0-329.0","76185","","","","","","triplet","970.3999999761581","","","","0","stimuli/tools_lowercase.png","stimuli/tree_uppercase.png","stimuli/face_uppercase.png","319"
"html-button-response-mod","330","628506","0.0-330.0","76185","","","","","","triplet","1364.1000000238419","","","","2","stimuli/stim012_animate_face_4.png","stimuli/stim001_animate_fish_1.png","stimuli/face_lowercase.png","320"
"html-button-response-mod","331","629805","0.0-331.0","76185","","","","","","triplet","796","","","","0","stimuli/stim016_inanimate_boats_4.png","stimuli/fish_lowercase.png","stimuli/boats_lowercase.png","321"
"html-button-response-mod","332","631244","0.0-332.0","76185","","","","","","triplet","937.1000000238419","","","","1","stimuli/stim016_inanimate_boats_4.png","stimuli/tree_uppercase.png","stimuli/stim014_inanimate_boats_2.png","322"
"html-button-response-mod","333","633272","0.0-333.0","76185","","","","","","triplet","1525","","","","2","stimuli/stim023_inanimate_tools_3.png","stimuli/stim004_animate_fish_4.png","stimuli/fish_uppercase.png","323"
"html-button-response-mod","334","634648","0.0-334.0","76185","","","","","","triplet","873.5","","","","1","stimuli/stim005_animate_bird_1.png","stimuli/bird_lowercase.png","stimuli/stim023_inanimate_tools_3.png","324"
"html-button-response-mod","335","637800","0.0-335.0","76185","","","","","","triplet","2649.5","","","","1","stimuli/stim004_animate_fish_4.png","stimuli/stim011_animate_face_3.png","stimuli/stim005_animate_bird_1.png","325"
"html-button-response-mod","336","639182","0.0-336.0","76185","","","","","","triplet","879.1000000238419","","","","0","stimuli/face_uppercase.png","stimuli/stim011_animate_face_3.png","stimuli/stim016_inanimate_boats_4.png","326"
"html-button-response-mod","337","640599","0.0-337.0","76185","","","","","","triplet","913.3000000715256","","","","2","stimuli/stim016_inanimate_boats_4.png","stimuli/stim002_animate_fish_2.png","stimuli/boats_lowercase.png","327"
"html-button-response-mod","338","642016","0.0-338.0","76185","","","","","","triplet","912.1999999284744","","","","2","stimuli/face_lowercase.png","stimuli/bird_uppercase.png","stimuli/stim008_animate_bird_4.png","328"
"html-button-response-mod","339","643516","0.0-339.0","76185","","","","","","triplet","997.3000000715256","","","","2","stimuli/stim010_animate_face_2.png","stimuli/stim009_animate_face_1.png","stimuli/stim013_inanimate_boats_1.png","329"
"html-button-response-mod","340","644774","0.0-340.0","76185","","","","","","triplet","754.3999999761581","","","","1","stimuli/stim005_animate_bird_1.png","stimuli/stim017_inanimate_tree_1.png","stimuli/stim010_animate_face_2.png","330"
"html-button-response-mod","341","646677","0.0-341.0","76185","","","","","","triplet","1400.9000000953674","","","","1","stimuli/stim024_inanimate_tools_4.png","stimuli/stim020_inanimate_tree_4.png","stimuli/stim013_inanimate_boats_1.png","331"
"html-button-response-mod","342","648446","0.0-342.0","76185","","","","","","triplet","1266.1000000238419","","","","2","stimuli/stim007_animate_bird_3.png","stimuli/stim002_animate_fish_2.png","stimuli/boats_lowercase.png","332"
"html-button-response-mod","343","650001","0.0-343.0","76185","","","","","","triplet","1052.6000000238419","","","","0","stimuli/stim019_inanimate_tree_3.png","stimuli/stim013_inanimate_boats_1.png","stimuli/stim015_inanimate_boats_3.png","333"
"html-button-response-mod","344","651310","0.0-344.0","76185","","","","","","triplet","805.6000000238419","","","","2","stimuli/stim003_animate_fish_3.png","stimuli/stim012_animate_face_4.png","stimuli/bird_lowercase.png","334"
"html-button-response-mod","345","652698","0.0-345.0","76185","","","","","","triplet","886.2000000476837","","","","0","stimuli/bird_uppercase.png","stimuli/stim013_inanimate_boats_1.png","stimuli/stim018_inanimate_tree_2.png","335"
"html-button-response-mod","346","653915","0.0-346.0","76185","","","","","","triplet","712.7999999523163","","","","1","stimuli/stim022_inanimate_tools_2.png","stimuli/tree_uppercase.png","stimuli/stim019_inanimate_tree_3.png","336"
"html-button-response-mod","347","655388","0.0-347.0","76185","","","","","","triplet","970.3000000715256","","","","1","stimuli/tools_uppercase.png","stimuli/stim015_inanimate_boats_3.png","stimuli/bird_uppercase.png","337"
"html-button-response-mod","348","658262","0.0-348.0","76185","","","","","","triplet","2371.7999999523163","","","","1","stimuli/stim022_inanimate_tools_2.png","stimuli/tools_uppercase.png","stimuli/stim010_animate_face_2.png","338"
"html-button-response-mod","349","659731","0.0-349.0","76185","","","","","","triplet","963.9000000953674","","","","1","stimuli/stim001_animate_fish_1.png","stimuli/stim013_inanimate_boats_1.png","stimuli/stim004_animate_fish_4.png","339"
"html-button-response-mod","350","661293","0.0-350.0","76185","","","","","","triplet","1059","","","","0","stimuli/face_lowercase.png","stimuli/stim020_inanimate_tree_4.png","stimuli/stim005_animate_bird_1.png","340"
"html-button-response-mod","351","662277","0.0-351.0","76185","","","","","","triplet","480.10000002384186","","","","0","stimuli/tree_lowercase.png","stimuli/stim004_animate_fish_4.png","stimuli/stim010_animate_face_2.png","341"
"html-button-response-mod","352","663406","0.0-352.0","76185","","","","","","triplet","622.5","","","","2","stimuli/stim014_inanimate_boats_2.png","stimuli/stim024_inanimate_tools_4.png","stimuli/fish_lowercase.png","342"
"html-button-response-mod","353","664700","0.0-353.0","76185","","","","","","triplet","791.6000000238419","","","","2","stimuli/stim021_inanimate_tools_1.png","stimuli/stim015_inanimate_boats_3.png","stimuli/face_uppercase.png","343"
"html-button-response-mod","354","665785","0.0-354.0","76185","","","","","","triplet","583.3000000715256","","","","0","stimuli/boats_uppercase.png","stimuli/stim023_inanimate_tools_3.png","stimuli/stim013_inanimate_boats_1.png","344"
"html-button-response-mod","355","667269","0.0-355.0","76185","","","","","","triplet","981.1000000238419","","","","2","stimuli/tree_uppercase.png","stimuli/tree_lowercase.png","stimuli/stim008_animate_bird_4.png","345"
"html-button-response-mod","356","670313","0.0-356.0","76185","","","","","","triplet","2541.7000000476837","","","","2","stimuli/stim019_inanimate_tree_3.png","stimuli/stim005_animate_bird_1.png","stimuli/stim016_inanimate_boats_4.png","346"
"html-button-response-mod","357","671954","0.0-357.0","76185","","","","","","triplet","1138.1999999284744","","","","0","stimuli/fish_uppercase.png","stimuli/stim022_inanimate_tools_2.png","stimuli/stim019_inanimate_tree_3.png","347"
"html-button-response-mod","358","673445","0.0-358.0","76185","","","","","","triplet","986.3000000715256","","","","0","stimuli/boats_lowercase.png","stimuli/stim005_animate_bird_1.png","stimuli/stim002_animate_fish_2.png","348"
"html-button-response-mod","359","674716","0.0-359.0","76185","","","","","","triplet","768.8999999761581","","","","1","stimuli/stim005_animate_bird_1.png","stimuli/face_lowercase.png","stimuli/stim012_animate_face_4.png","349"
"html-button-response","360","676026","0.0-360.0","76185","","","","","","break","807","<p>BREAK</p><p>Take a break for as long as you need</p><p>Click the button to continue</p>","0","","","","","",""
"html-button-response-mod","361","677277","0.0-361.0","76185","","","","","","triplet","1248.7999999523163","","","","2","stimuli/stim004_animate_fish_4.png","stimuli/stim008_animate_bird_4.png","stimuli/stim012_animate_face_4.png","350"
"html-button-response-mod","362","679074","0.0-362.0","76185","","","","","","triplet","1294.6000000238419","","","","0","stimuli/stim013_inanimate_boats_1.png","stimuli/stim001_animate_fish_1.png","stimuli/stim012_animate_face_4.png","351"
"html-button-response-mod","363","681764","0.0-363.0","76185","","","","","","triplet","2186.600000023842","","","","2","stimuli/stim017_inanimate_tree_1.png","stimuli/stim011_animate_face_3.png","stimuli/stim021_inanimate_tools_1.png","352"
"html-button-response-mod","364","683840","0.0-364.0","76185","","","","","","triplet","1572.2999999523163","","","","1","stimuli/stim022_inanimate_tools_2.png","stimuli/tree_uppercase.png","stimuli/stim010_animate_face_2.png","353"
"html-button-response-mod","365","685749","0.0-365.0","76185","","","","","","triplet","1405","","","","2","stimuli/stim001_animate_fish_1.png","stimuli/stim005_animate_bird_1.png","stimuli/stim022_inanimate_tools_2.png","354"
"html-button-response-mod","366","686837","0.0-366.0","76185","","","","","","triplet","583.5","","","","2","stimuli/stim004_animate_fish_4.png","stimuli/stim013_inanimate_boats_1.png","stimuli/tree_uppercase.png","355"
"html-button-response-mod","367","688059","0.0-367.0","76185","","","","","","triplet","714.7999999523163","","","","1","stimuli/stim006_animate_bird_2.png","stimuli/tree_uppercase.png","stimuli/stim001_animate_fish_1.png","356"
"html-button-response-mod","368","690298","0.0-368.0","76185","","","","","","triplet","1735.1000000238419","","","","2","stimuli/stim005_animate_bird_1.png","stimuli/stim009_animate_face_1.png","stimuli/stim014_inanimate_boats_2.png","357"
"html-button-response-mod","369","691658","0.0-369.0","76185","","","","","","triplet","855.6999999284744","","","","1","stimuli/tree_lowercase.png","stimuli/stim003_animate_fish_3.png","stimuli/face_lowercase.png","358"
"html-button-response-mod","370","692950","0.0-370.0","76185","","","","","","triplet","787.8000000715256","","","","0","stimuli/stim022_inanimate_tools_2.png","stimuli/stim019_inanimate_tree_3.png","stimuli/stim018_inanimate_tree_2.png","359"
"html-button-response-mod","371","694481","0.0-371.0","76185","","","","","","triplet","1027.1000000238419","","","","2","stimuli/stim018_inanimate_tree_2.png","stimuli/stim014_inanimate_boats_2.png","stimuli/tools_lowercase.png","360"
"html-button-response-mod","372","695765","0.0-372.0","76185","","","","","","triplet","779.8999999761581","","","","2","stimuli/stim019_inanimate_tree_3.png","stimuli/stim018_inanimate_tree_2.png","stimuli/tree_uppercase.png","361"
"html-button-response-mod","373","696990","0.0-373.0","76185","","","","","","triplet","721.3000000715256","","","","2","stimuli/bird_uppercase.png","stimuli/tools_uppercase.png","stimuli/stim024_inanimate_tools_4.png","362"
"html-button-response-mod","374","698313","0.0-374.0","76185","","","","","","triplet","819.7000000476837","","","","2","stimuli/stim003_animate_fish_3.png","stimuli/stim023_inanimate_tools_3.png","stimuli/face_lowercase.png","363"
"html-button-response-mod","375","699581","0.0-375.0","76185","","","","","","triplet","764.7999999523163","","","","0","stimuli/boats_lowercase.png","stimuli/stim006_animate_bird_2.png","stimuli/stim004_animate_fish_4.png","364"
"html-button-response-mod","376","701023","0.0-376.0","76185","","","","","","triplet","937.1000000238419","","","","0","stimuli/stim012_animate_face_4.png","stimuli/boats_uppercase.png","stimuli/tree_lowercase.png","365"
"html-button-response-mod","377","702451","0.0-377.0","76185","","","","","","triplet","924.2000000476837","","","","1","stimuli/stim003_animate_fish_3.png","stimuli/stim022_inanimate_tools_2.png","stimuli/stim005_animate_bird_1.png","366"
"html-button-response-mod","378","703852","0.0-378.0","76185","","","","","","triplet","897.8000000715256","","","","0","stimuli/stim012_animate_face_4.png","stimuli/face_uppercase.png","stimuli/tools_uppercase.png","367"
"html-button-response-mod","379","706340","0.0-379.0","76185","","","","","","triplet","1984.3000000715256","","","","1","stimuli/stim020_inanimate_tree_4.png","stimuli/stim013_inanimate_boats_1.png","stimuli/stim005_animate_bird_1.png","368"
"html-button-response-mod","380","709121","0.0-380.0","76185","","","","","","triplet","2272.100000023842","","","","2","stimuli/face_lowercase.png","stimuli/tools_lowercase.png","stimuli/stim017_inanimate_tree_1.png","369"
"html-button-response-mod","381","711782","0.0-381.0","76185","","","","","","triplet","2153.7999999523163","","","","1","stimuli/stim009_animate_face_1.png","stimuli/stim024_inanimate_tools_4.png","stimuli/stim017_inanimate_tree_1.png","370"
"html-button-response-mod","382","714574","0.0-382.0","76185","","","","","","triplet","2284.5","","","","1","stimuli/stim011_animate_face_3.png","stimuli/stim021_inanimate_tools_1.png","stimuli/stim018_inanimate_tree_2.png","371"
"html-button-response-mod","383","716030","0.0-383.0","76185","","","","","","triplet","953","","","","1","stimuli/stim010_animate_face_2.png","stimuli/stim023_inanimate_tools_3.png","stimuli/stim011_animate_face_3.png","372"
"html-button-response-mod","384","717409","0.0-384.0","76185","","","","","","triplet","873.7000000476837","","","","2","stimuli/stim015_inanimate_boats_3.png","stimuli/stim011_animate_face_3.png","stimuli/tree_lowercase.png","373"
"html-button-response-mod","385","718596","0.0-385.0","76185","","","","","","triplet","679.7999999523163","","","","1","stimuli/stim010_animate_face_2.png","stimuli/boats_uppercase.png","stimuli/stim011_animate_face_3.png","374"
"html-button-response-mod","386","719783","0.0-386.0","76185","","","","","","triplet","681.3999999761581","","","","0","stimuli/tree_lowercase.png","stimuli/stim013_inanimate_boats_1.png","stimuli/stim019_inanimate_tree_3.png","375"
"html-button-response-mod","387","722636","0.0-387.0","76185","","","","","","triplet","2349","","","","0","stimuli/stim018_inanimate_tree_2.png","stimuli/stim022_inanimate_tools_2.png","stimuli/stim013_inanimate_boats_1.png","376"
"html-button-response-mod","388","723933","0.0-388.0","76185","","","","","","triplet","793.3999999761581","","","","2","stimuli/bird_lowercase.png","stimuli/boats_uppercase.png","stimuli/stim012_animate_face_4.png","377"
"html-button-response-mod","389","725271","0.0-389.0","76185","","","","","","triplet","834.1999999284744","","","","1","stimuli/tools_uppercase.png","stimuli/stim009_animate_face_1.png","stimuli/bird_lowercase.png","378"
"html-button-response-mod","390","727057","0.0-390.0","76185","","","","","","triplet","1283.4000000953674","","","","2","stimuli/face_uppercase.png","stimuli/boats_lowercase.png","stimuli/stim002_animate_fish_2.png","379"
"html-button-response-mod","391","729648","0.0-391.0","76185","","","","","","triplet","2087.100000023842","","","","1","stimuli/stim003_animate_fish_3.png","stimuli/bird_lowercase.png","stimuli/stim004_animate_fish_4.png","380"
"html-button-response-mod","392","731416","0.0-392.0","76185","","","","","","triplet","1264","","","","1","stimuli/stim016_inanimate_boats_4.png","stimuli/tree_uppercase.png","stimuli/stim024_inanimate_tools_4.png","381"
"html-button-response-mod","393","732797","0.0-393.0","76185","","","","","","triplet","877.8999999761581","","","","2","stimuli/fish_lowercase.png","stimuli/bird_uppercase.png","stimuli/stim011_animate_face_3.png","382"
"html-button-response-mod","394","734280","0.0-394.0","76185","","","","","","triplet","977.5","","","","1","stimuli/tools_lowercase.png","stimuli/stim023_inanimate_tools_3.png","stimuli/boats_lowercase.png","383"
"html-button-response-mod","395","735917","0.0-395.0","76185","","","","","","triplet","1131","","","","2","stimuli/stim005_animate_bird_1.png","stimuli/stim007_animate_bird_3.png","stimuli/stim018_inanimate_tree_2.png","384"
"html-button-response-mod","396","737352","0.0-396.0","76185","","","","","","triplet","927.0999999046326","","","","2","stimuli/bird_uppercase.png","stimuli/fish_lowercase.png","stimuli/stim023_inanimate_tools_3.png","385"
"html-button-response-mod","397","738496","0.0-397.0","76185","","","","","","triplet","641.7999999523163","","","","2","stimuli/tools_lowercase.png","stimuli/bird_uppercase.png","stimuli/stim020_inanimate_tree_4.png","386"
"html-button-response-mod","398","739979","0.0-398.0","76185","","","","","","triplet","976","","","","0","stimuli/face_uppercase.png","stimuli/stim020_inanimate_tree_4.png","stimuli/stim011_animate_face_3.png","387"
"html-button-response-mod","399","741521","0.0-399.0","76185","","","","","","triplet","1036.6999999284744","","","","1","stimuli/stim010_animate_face_2.png","stimuli/fish_lowercase.png","stimuli/stim004_animate_fish_4.png","388"
"html-button-response-mod","400","742757","0.0-400.0","76185","","","","","","triplet","732.5","","","","1","stimuli/tools_lowercase.png","stimuli/stim013_inanimate_boats_1.png","stimuli/fish_lowercase.png","389"
"html-button-response-mod","401","744019","0.0-401.0","76185","","","","","","triplet","757.6000000238419","","","","1","stimuli/stim009_animate_face_1.png","stimuli/tree_lowercase.png","stimuli/stim002_animate_fish_2.png","390"
"html-button-response-mod","402","745612","0.0-402.0","76185","","","","","","triplet","1090","","","","1","stimuli/stim024_inanimate_tools_4.png","stimuli/bird_uppercase.png","stimuli/stim013_inanimate_boats_1.png","391"
"html-button-response-mod","403","746964","0.0-403.0","76185","","","","","","triplet","848.4000000953674","","","","1","stimuli/bird_uppercase.png","stimuli/stim017_inanimate_tree_1.png","stimuli/tools_lowercase.png","392"
"html-button-response-mod","404","749240","0.0-404.0","76185","","","","","","triplet","1773.2000000476837","","","","1","stimuli/stim016_inanimate_boats_4.png","stimuli/stim009_animate_face_1.png","stimuli/stim022_inanimate_tools_2.png","393"
"html-button-response-mod","405","750661","0.0-405.0","76185","","","","","","triplet","917","","","","0","stimuli/fish_lowercase.png","stimuli/stim020_inanimate_tree_4.png","stimuli/stim019_inanimate_tree_3.png","394"
"html-button-response-mod","406","752092","0.0-406.0","76185","","","","","","triplet","924.5","","","","1","stimuli/stim018_inanimate_tree_2.png","stimuli/fish_uppercase.png","stimuli/stim008_animate_bird_4.png","395"
"html-button-response-mod","407","753446","0.0-407.0","76185","","","","","","triplet","847.1000000238419","","","","2","stimuli/stim007_animate_bird_3.png","stimuli/stim005_animate_bird_1.png","stimuli/stim017_inanimate_tree_1.png","396"
"html-button-response-mod","408","754760","0.0-408.0","76185","","","","","","triplet","807.7000000476837","","","","2","stimuli/stim021_inanimate_tools_1.png","stimuli/stim003_animate_fish_3.png","stimuli/face_lowercase.png","397"
"html-button-response-mod","409","755979","0.0-409.0","76185","","","","","","triplet","716.3000000715256","","","","2","stimuli/stim005_animate_bird_1.png","stimuli/stim023_inanimate_tools_3.png","stimuli/boats_lowercase.png","398"
"html-button-response-mod","410","757368","0.0-410.0","76185","","","","","","triplet","884.8999999761581","","","","0","stimuli/stim023_inanimate_tools_3.png","stimuli/stim019_inanimate_tree_3.png","stimuli/stim020_inanimate_tree_4.png","399"
"html-button-response","411","759006","0.0-411.0","76185","","","","","","break","1135.3000000715256","<p>BREAK</p><p>Take a break for as long as you need</p><p>Click the button to continue</p>","0","","","","","",""
"survey-text","412","858309","0.0-412.0","76185","","","","","","data_patterns","99292.10000002384","","{""Q0"":""If there were two images and a word, i always chose the word, if there was two words and an image, i always chose the image. words being capitalised was more important than words sharing a meaning. Alive things (plants, people, birds, fish) were associated similarly to non-alive things (boats, tools). if two things were closer in colour, they were also often associated. ""}","","","","","",""
"survey-text","413","860879","0.0-413.0","76185","","","","","","age_question","2567.2999999523163","","{""Age"":""20""}","","","","","",""
"html-button-response","414","862408","0.0-414.0","76185","","","","","","gender_question","1526.1999999284744","How would you like your gender to be recorded?","0","","","","","",""
"html-button-response","415","863867","0.0-415.0","76185","","","","","","debrief","1457.3999999761581","<p> Thank you for participating in this experiment! </p><p> We are investigating the dimensions along which you perceive the world </p><p>The images were all sorted according to whether they are animate or not, and </p><p> whether they are text or images. We are comparing this to some neuroimaging data to see </p> how your conscious classification relates to how your brain classifies the objects automatically. </p>","0","867318.7000000477","","","","",""
