"trial_type","trial_index","time_elapsed","internal_node_id","subject","success","timeout","failed_images","failed_audio","failed_video","test_part","rt","stimulus","response","end_time","button_pressed","stim0","stim1","stim2","trialnr"
"pavlovia","0","21","0.0-0.0","73555","","","","","","","","","","","","","","",""
"preload","1","614","0.0-1.0","73555","true","false","[]","[]","[]","preload","","","","","","","","",""
"html-button-response","2","11961","0.0-2.0","73555","","","","","","","11346.5","<p>Welcome to the experiment. To begin, please read the following and press the button at the bottom of the screen.</p><p></p><p><strong>Project Name: A study on cognitive processes involved in visual perception</p></strong><p></p><p><strong>PARTICIPANT INFORMATION STATEMENT</strong></p><p></p><strong>(1) What is the study about?</strong><br>You are invited to participate in a study that investigates the cognitive processes involved in perceiving and recognizing visual stimuli.If you decide to participate, you will be asked to complete a task in which you will view pictures, letters, numbers, or words presented on a computer screen.<br><strong>(2) Who can participate?</strong><br>Anyone aged 18 years or over with access to a computer (not a phone/tablet)<br><strong>(3) Where is the study located?</strong><br>The study will be conducted in your browser<br><strong>(4) Who is carrying out the study?</strong><br>The study is being conducted by Sophia Shatek from the Computational Cognitive Neuroscience laboratory at the University of Sydney.<br><strong>(5) What does the study involve?</strong><br>In this study, you will be asked to perform tasks where you will see different stimuli appear on the computer screen.You will respond by pressing a key or using a computer mouse.<br><strong>(6) How much time will the study take?</strong><br>The study takes about 30 minutes<br><strong>(7)	Can I withdraw from the study?</strong><br>Being in this study is completely voluntary - you are not under any obligation to consent. You can withdraw at any time without having to give a reason and without penalty.<br><strong>(8) Will anyone else know the results?</strong><br>All aspects of the study, including results, will be strictly confidential and only the researchers will have access to information on participants.The results and data from the study may be submitted for publication or shared with other research labs, but individual participants will not be identifiable.<br><strong>(9) Will the study benefit me?</strong><br>You will be awarded 0.5 credits for your participation.<br><strong>(10) Can I tell other people about the study?</strong><br>Yes, please tell them to contact Dr Thomas Carlson by email at thomas.carlson@sydney.edu.au.<br><strong>(11) What if I require further information about the study or my involvement in it?</strong><br>When you have read this information, the investigator will discuss it with you further and answer any questions you may have.If you would like to know more at any stage, please feel free to contact Dr Thomas Carlson directly by email at thomas.carlson@sydney.edu.au.If you would like to be informed about the outcomes of the study, contact Dr Thomas Carlson directly by email at thomas.carlson@sydney.edu.au.<br><strong>(12) What if I have a complaint or any concerns?</strong><br>Any person with concerns or complaints about the conduct of a research study can contact The Manager,Human Ethics Administration, University of Sydney on +61 2 8627 8176 (Telephone); +61 2 8627 8177 (Facsimile) or ro.humanethics@sydney.edu.au (Email).</p><p></p><strong>By participating in this experiment, you consent to participate in this study and acknowledge that:</strong><br>1. The procedures required for the project and the times involved have been explained to me, and any questions I have about the project have been answered to my satisfaction.<br>2.	I have read the Above Information Statement and have been given the opportunity to discuss the information and my involvement in the project with the researcher/s.<br>3. I understand that allowing my data to be used in research reports is completely voluntary - I am not under any obligation to consent.<br>4. I understand that my involvement is strictly confidential. I understand that any research data gathered from the results of the study may be publishedhowever no information about me will be used in any way that is identifiable.</p><p></p>","0","","","","","",""
"html-button-response","3","15801","0.0-3.0","73555","","","","","","opening_instructions","3838.1999999955297","<p>In this experiment, you will see three images appear on the screen.</p><p>You need to click the 'odd one out', or the image </p><p>that LOOKS MOST DIFFERENT to the other two. </p><p>Just go with your intuition, don't spend too long thinking about each one.</p>","0","18770.09999999404","","","","",""
"html-button-response-mod","4","17577","0.0-4.0","73555","","","","","","triplet","1774.9000000059605","","","","2","stimuli/fish_lowercase.png","stimuli/stim004_animate_fish_4.png","stimuli/tree_lowercase.png","0"
"html-button-response-mod","5","19360","0.0-5.0","73555","","","","","","triplet","1282.1999999955297","","","","2","stimuli/fish_uppercase.png","stimuli/stim002_animate_fish_2.png","stimuli/tools_lowercase.png","1"
"html-button-response-mod","6","22329","0.0-6.0","73555","","","","","","triplet","2456.10000000149","","","","1","stimuli/stim007_animate_bird_3.png","stimuli/stim021_inanimate_tools_1.png","stimuli/stim008_animate_bird_4.png","2"
"html-button-response-mod","7","25129","0.0-7.0","73555","","","","","","triplet","2298.89999999851","","","","0","stimuli/tools_lowercase.png","stimuli/stim007_animate_bird_3.png","stimuli/fish_lowercase.png","3"
"html-button-response-mod","8","26921","0.0-8.0","73555","","","","","","triplet","1289.9000000059605","","","","1","stimuli/stim017_inanimate_tree_1.png","stimuli/stim008_animate_bird_4.png","stimuli/tree_uppercase.png","4"
"html-button-response-mod","9","32193","0.0-9.0","73555","","","","","","triplet","4770.29999999702","","","","2","stimuli/stim004_animate_fish_4.png","stimuli/stim006_animate_bird_2.png","stimuli/stim023_inanimate_tools_3.png","5"
"html-button-response-mod","10","34865","0.0-10.0","73555","","","","","","triplet","2170.60000000149","","","","0","stimuli/stim021_inanimate_tools_1.png","stimuli/stim005_animate_bird_1.png","stimuli/fish_uppercase.png","6"
"html-button-response-mod","11","37913","0.0-11.0","73555","","","","","","triplet","2545.2000000029802","","","","2","stimuli/stim007_animate_bird_3.png","stimuli/bird_lowercase.png","stimuli/stim013_inanimate_boats_1.png","7"
"html-button-response-mod","12","39856","0.0-12.0","73555","","","","","","triplet","1441.7999999970198","","","","0","stimuli/boats_uppercase.png","stimuli/stim019_inanimate_tree_3.png","stimuli/stim017_inanimate_tree_1.png","8"
"html-button-response-mod","13","44193","0.0-13.0","73555","","","","","","triplet","3834.2000000029802","","","","2","stimuli/stim006_animate_bird_2.png","stimuli/stim011_animate_face_3.png","stimuli/boats_lowercase.png","9"
"html-button-response-mod","14","47873","0.0-14.0","73555","","","","","","triplet","3177.5999999940395","","","","2","stimuli/stim020_inanimate_tree_4.png","stimuli/stim004_animate_fish_4.png","stimuli/tools_uppercase.png","10"
"html-button-response-mod","15","50025","0.0-15.0","73555","","","","","","triplet","1636.2999999970198","","","","0","stimuli/tools_lowercase.png","stimuli/bird_uppercase.png","stimuli/fish_lowercase.png","11"
"html-button-response-mod","16","516050","0.0-16.0","73555","","","","","","triplet","465520.8999999985","","","","1","stimuli/fish_lowercase.png","stimuli/tree_lowercase.png","stimuli/stim001_animate_fish_1.png","12"
"html-button-response-mod","17","517921","0.0-17.0","73555","","","","","","triplet","1355.3000000044703","","","","2","stimuli/fish_uppercase.png","stimuli/stim004_animate_fish_4.png","stimuli/stim024_inanimate_tools_4.png","13"
"html-button-response-mod","18","530937","0.0-18.0","73555","","","","","","triplet","12514.40000000596","","","","0","stimuli/fish_lowercase.png","stimuli/stim005_animate_bird_1.png","stimuli/stim015_inanimate_boats_3.png","14"
"html-button-response-mod","19","533601","0.0-19.0","73555","","","","","","triplet","2162.39999999851","","","","0","stimuli/face_lowercase.png","stimuli/stim007_animate_bird_3.png","stimuli/stim024_inanimate_tools_4.png","15"
"html-button-response-mod","20","537745","0.0-20.0","73555","","","","","","triplet","3641.8000000044703","","","","0","stimuli/stim001_animate_fish_1.png","stimuli/stim015_inanimate_boats_3.png","stimuli/stim014_inanimate_boats_2.png","16"
"html-button-response-mod","21","539418","0.0-21.0","73555","","","","","","triplet","1169.7999999970198","","","","0","stimuli/stim020_inanimate_tree_4.png","stimuli/stim011_animate_face_3.png","stimuli/face_uppercase.png","17"
"html-button-response-mod","22","543033","0.0-22.0","73555","","","","","","triplet","3112.6999999955297","","","","0","stimuli/stim016_inanimate_boats_4.png","stimuli/face_lowercase.png","stimuli/bird_uppercase.png","18"
"html-button-response-mod","23","544993","0.0-23.0","73555","","","","","","triplet","1458.2000000029802","","","","0","stimuli/tools_lowercase.png","stimuli/stim003_animate_fish_3.png","stimuli/stim020_inanimate_tree_4.png","19"
"html-button-response-mod","24","546913","0.0-24.0","73555","","","","","","triplet","1419.0999999940395","","","","1","stimuli/stim010_animate_face_2.png","stimuli/stim003_animate_fish_3.png","stimuli/stim011_animate_face_3.png","20"
"html-button-response-mod","25","548905","0.0-25.0","73555","","","","","","triplet","1489.8000000044703","","","","1","stimuli/stim006_animate_bird_2.png","stimuli/tools_uppercase.png","stimuli/stim008_animate_bird_4.png","21"
"html-button-response-mod","26","552745","0.0-26.0","73555","","","","","","triplet","3338.39999999851","","","","0","stimuli/tools_lowercase.png","stimuli/stim007_animate_bird_3.png","stimuli/stim013_inanimate_boats_1.png","22"
"html-button-response-mod","27","556209","0.0-27.0","73555","","","","","","triplet","2947.7000000029802","","","","1","stimuli/stim014_inanimate_boats_2.png","stimuli/tools_uppercase.png","stimuli/stim008_animate_bird_4.png","23"
"html-button-response-mod","28","559353","0.0-28.0","73555","","","","","","triplet","2642.60000000149","","","","1","stimuli/stim007_animate_bird_3.png","stimuli/stim023_inanimate_tools_3.png","stimuli/stim010_animate_face_2.png","24"
"html-button-response-mod","29","561121","0.0-29.0","73555","","","","","","triplet","1252.7000000029802","","","","2","stimuli/tree_lowercase.png","stimuli/stim020_inanimate_tree_4.png","stimuli/stim016_inanimate_boats_4.png","25"
"html-button-response-mod","30","563177","0.0-30.0","73555","","","","","","triplet","1554.5","","","","2","stimuli/stim002_animate_fish_2.png","stimuli/stim001_animate_fish_1.png","stimuli/tree_lowercase.png","26"
"html-button-response-mod","31","565481","0.0-31.0","73555","","","","","","triplet","1802.8000000044703","","","","0","stimuli/stim016_inanimate_boats_4.png","stimuli/stim001_animate_fish_1.png","stimuli/stim002_animate_fish_2.png","27"
"html-button-response-mod","32","603346","0.0-32.0","73555","","","","","","triplet","37349.80000000447","","","","1","stimuli/stim008_animate_bird_4.png","stimuli/tools_lowercase.png","stimuli/stim006_animate_bird_2.png","28"
"html-button-response-mod","33","612170","0.0-33.0","73555","","","","","","triplet","8322.59999999404","","","","0","stimuli/stim019_inanimate_tree_3.png","stimuli/boats_uppercase.png","stimuli/fish_lowercase.png","29"
"html-button-response-mod","34","613914","0.0-34.0","73555","","","","","","triplet","1242","","","","0","stimuli/stim016_inanimate_boats_4.png","stimuli/tree_uppercase.png","stimuli/stim019_inanimate_tree_3.png","30"
"html-button-response-mod","35","616682","0.0-35.0","73555","","","","","","triplet","2265.60000000149","","","","1","stimuli/stim019_inanimate_tree_3.png","stimuli/stim008_animate_bird_4.png","stimuli/tree_uppercase.png","31"
"html-button-response-mod","36","618946","0.0-36.0","73555","","","","","","triplet","1756.8999999985099","","","","2","stimuli/stim022_inanimate_tools_2.png","stimuli/stim012_animate_face_4.png","stimuli/bird_uppercase.png","32"
"html-button-response-mod","37","621946","0.0-37.0","73555","","","","","","triplet","2498.7000000029802","","","","2","stimuli/stim006_animate_bird_2.png","stimuli/stim008_animate_bird_4.png","stimuli/stim003_animate_fish_3.png","33"
"html-button-response-mod","38","625874","0.0-38.0","73555","","","","","","triplet","3426.60000000149","","","","0","stimuli/stim016_inanimate_boats_4.png","stimuli/fish_lowercase.png","stimuli/stim004_animate_fish_4.png","34"
"html-button-response-mod","39","636723","0.0-39.0","73555","","","","","","triplet","10347.5","","","","0","stimuli/fish_lowercase.png","stimuli/stim005_animate_bird_1.png","stimuli/bird_uppercase.png","35"
"html-button-response-mod","40","638930","0.0-40.0","73555","","","","","","triplet","1705.7000000029802","","","","2","stimuli/stim017_inanimate_tree_1.png","stimuli/tree_uppercase.png","stimuli/boats_uppercase.png","36"
"html-button-response-mod","41","666202","0.0-41.0","73555","","","","","","triplet","26769.5","","","","2","stimuli/stim012_animate_face_4.png","stimuli/stim001_animate_fish_1.png","stimuli/bird_uppercase.png","37"
"html-button-response-mod","42","670274","0.0-42.0","73555","","","","","","triplet","3558.4000000059605","","","","2","stimuli/boats_uppercase.png","stimuli/tools_uppercase.png","stimuli/stim012_animate_face_4.png","38"
"html-button-response-mod","43","672802","0.0-43.0","73555","","","","","","triplet","2023.1000000014901","","","","1","stimuli/stim002_animate_fish_2.png","stimuli/stim023_inanimate_tools_3.png","stimuli/stim016_inanimate_boats_4.png","39"
"html-button-response-mod","44","675114","0.0-44.0","73555","","","","","","triplet","1796","","","","2","stimuli/fish_uppercase.png","stimuli/boats_lowercase.png","stimuli/stim023_inanimate_tools_3.png","40"
"html-button-response-mod","45","678074","0.0-45.0","73555","","","","","","triplet","2456.3000000044703","","","","0","stimuli/stim019_inanimate_tree_3.png","stimuli/tools_uppercase.png","stimuli/fish_lowercase.png","41"
"html-button-response-mod","46","686138","0.0-46.0","73555","","","","","","triplet","7557.30000000447","","","","0","stimuli/tree_uppercase.png","stimuli/stim005_animate_bird_1.png","stimuli/stim008_animate_bird_4.png","42"
"html-button-response-mod","47","688474","0.0-47.0","73555","","","","","","triplet","1835.1000000014901","","","","0","stimuli/tools_uppercase.png","stimuli/stim001_animate_fish_1.png","stimuli/stim006_animate_bird_2.png","43"
"html-button-response-mod","48","691682","0.0-48.0","73555","","","","","","triplet","2699","","","","1","stimuli/stim002_animate_fish_2.png","stimuli/stim008_animate_bird_4.png","stimuli/fish_lowercase.png","44"
"html-button-response-mod","49","695762","0.0-49.0","73555","","","","","","triplet","3570.9000000059605","","","","1","stimuli/tree_uppercase.png","stimuli/stim006_animate_bird_2.png","stimuli/tree_lowercase.png","45"
"html-button-response-mod","50","700306","0.0-50.0","73555","","","","","","triplet","4042.0999999940395","","","","2","stimuli/stim004_animate_fish_4.png","stimuli/stim009_animate_face_1.png","stimuli/stim021_inanimate_tools_1.png","46"
"html-button-response-mod","51","702266","0.0-51.0","73555","","","","","","triplet","1458.1999999955297","","","","2","stimuli/face_uppercase.png","stimuli/stim011_animate_face_3.png","stimuli/fish_uppercase.png","47"
"html-button-response-mod","52","706634","0.0-52.0","73555","","","","","","triplet","3857.60000000149","","","","0","stimuli/stim021_inanimate_tools_1.png","stimuli/stim013_inanimate_boats_1.png","stimuli/stim018_inanimate_tree_2.png","48"
"html-button-response-mod","53","713506","0.0-53.0","73555","","","","","","triplet","6370.60000000149","","","","2","stimuli/stim018_inanimate_tree_2.png","stimuli/bird_lowercase.png","stimuli/stim022_inanimate_tools_2.png","49"
"html-button-response","54","715642","0.0-54.0","73555","","","","","","break","1633.6000000014901","<p>BREAK</p><p>Take a break for as long as you need</p><p>Click the button to continue</p>","0","","","","","",""
"html-button-response-mod","55","717930","0.0-55.0","73555","","","","","","triplet","2286.60000000149","","","","0","stimuli/stim021_inanimate_tools_1.png","stimuli/stim002_animate_fish_2.png","stimuli/stim005_animate_bird_1.png","50"
"html-button-response-mod","56","728514","0.0-56.0","73555","","","","","","triplet","10082.10000000149","","","","0","stimuli/stim018_inanimate_tree_2.png","stimuli/stim016_inanimate_boats_4.png","stimuli/stim011_animate_face_3.png","51"
"html-button-response-mod","57","731050","0.0-57.0","73555","","","","","","triplet","2029.2000000029802","","","","0","stimuli/stim021_inanimate_tools_1.png","stimuli/stim020_inanimate_tree_4.png","stimuli/stim008_animate_bird_4.png","52"
"html-button-response-mod","58","732490","0.0-58.0","73555","","","","","","triplet","939","","","","2","stimuli/boats_lowercase.png","stimuli/stim014_inanimate_boats_2.png","stimuli/stim011_animate_face_3.png","53"
"html-button-response-mod","59","734146","0.0-59.0","73555","","","","","","triplet","1154.3000000044703","","","","1","stimuli/tools_lowercase.png","stimuli/stim010_animate_face_2.png","stimuli/stim016_inanimate_boats_4.png","54"
"html-button-response-mod","60","735722","0.0-60.0","73555","","","","","","triplet","1074.8000000044703","","","","1","stimuli/stim017_inanimate_tree_1.png","stimuli/stim004_animate_fish_4.png","stimuli/stim019_inanimate_tree_3.png","55"
"html-button-response-mod","61","739290","0.0-61.0","73555","","","","","","triplet","3066.1999999955297","","","","2","stimuli/stim008_animate_bird_4.png","stimuli/stim014_inanimate_boats_2.png","stimuli/tools_lowercase.png","56"
"html-button-response-mod","62","743674","0.0-62.0","73555","","","","","","triplet","3882.39999999851","","","","0","stimuli/boats_uppercase.png","stimuli/stim018_inanimate_tree_2.png","stimuli/stim010_animate_face_2.png","57"
"html-button-response-mod","63","745530","0.0-63.0","73555","","","","","","triplet","1354.3000000044703","","","","1","stimuli/stim013_inanimate_boats_1.png","stimuli/stim017_inanimate_tree_1.png","stimuli/stim014_inanimate_boats_2.png","58"
"html-button-response-mod","64","747130","0.0-64.0","73555","","","","","","triplet","1098.8000000044703","","","","1","stimuli/stim008_animate_bird_4.png","stimuli/stim010_animate_face_2.png","stimuli/stim004_animate_fish_4.png","59"
"html-button-response-mod","65","750074","0.0-65.0","73555","","","","","","triplet","2442.39999999851","","","","1","stimuli/stim008_animate_bird_4.png","stimuli/stim024_inanimate_tools_4.png","stimuli/fish_lowercase.png","60"
"html-button-response-mod","66","769971","0.0-66.0","73555","","","","","","triplet","19393.89999999851","","","","1","stimuli/stim001_animate_fish_1.png","stimuli/stim023_inanimate_tools_3.png","stimuli/boats_lowercase.png","61"
"html-button-response-mod","67","771450","0.0-67.0","73555","","","","","","triplet","973.8999999985099","","","","2","stimuli/fish_uppercase.png","stimuli/stim004_animate_fish_4.png","stimuli/stim010_animate_face_2.png","62"
"html-button-response-mod","68","775106","0.0-68.0","73555","","","","","","triplet","3154","","","","2","stimuli/stim016_inanimate_boats_4.png","stimuli/boats_lowercase.png","stimuli/stim005_animate_bird_1.png","63"
"html-button-response-mod","69","777154","0.0-69.0","73555","","","","","","triplet","1546.1000000014901","","","","1","stimuli/stim009_animate_face_1.png","stimuli/stim001_animate_fish_1.png","stimuli/face_uppercase.png","64"
"html-button-response-mod","70","795074","0.0-70.0","73555","","","","","","triplet","17417.89999999851","","","","1","stimuli/stim018_inanimate_tree_2.png","stimuli/stim004_animate_fish_4.png","stimuli/bird_uppercase.png","65"
"html-button-response-mod","71","796834","0.0-71.0","73555","","","","","","triplet","1258.5","","","","1","stimuli/stim013_inanimate_boats_1.png","stimuli/stim022_inanimate_tools_2.png","stimuli/stim004_animate_fish_4.png","66"
"html-button-response-mod","72","798658","0.0-72.0","73555","","","","","","triplet","1319.5","","","","0","stimuli/tools_lowercase.png","stimuli/stim007_animate_bird_3.png","stimuli/stim017_inanimate_tree_1.png","67"
"html-button-response-mod","73","800450","0.0-73.0","73555","","","","","","triplet","1286.8000000044703","","","","2","stimuli/tools_lowercase.png","stimuli/tools_uppercase.png","stimuli/stim011_animate_face_3.png","68"
"html-button-response-mod","74","802690","0.0-74.0","73555","","","","","","triplet","1734","","","","2","stimuli/stim007_animate_bird_3.png","stimuli/stim018_inanimate_tree_2.png","stimuli/stim024_inanimate_tools_4.png","69"
"html-button-response-mod","75","804770","0.0-75.0","73555","","","","","","triplet","1577.1000000014901","","","","0","stimuli/stim008_animate_bird_4.png","stimuli/stim010_animate_face_2.png","stimuli/stim012_animate_face_4.png","70"
"html-button-response-mod","76","806554","0.0-76.0","73555","","","","","","triplet","1269","","","","1","stimuli/stim018_inanimate_tree_2.png","stimuli/face_uppercase.png","stimuli/stim019_inanimate_tree_3.png","71"
"html-button-response-mod","77","808298","0.0-77.0","73555","","","","","","triplet","1227.0999999940395","","","","0","stimuli/tools_lowercase.png","stimuli/stim015_inanimate_boats_3.png","stimuli/stim002_animate_fish_2.png","72"
"html-button-response-mod","78","810834","0.0-78.0","73555","","","","","","triplet","2034.2999999970198","","","","2","stimuli/stim022_inanimate_tools_2.png","stimuli/boats_lowercase.png","stimuli/stim020_inanimate_tree_4.png","73"
"html-button-response-mod","79","813538","0.0-79.0","73555","","","","","","triplet","2201.39999999851","","","","1","stimuli/stim011_animate_face_3.png","stimuli/stim023_inanimate_tools_3.png","stimuli/stim002_animate_fish_2.png","74"
"html-button-response-mod","80","817178","0.0-80.0","73555","","","","","","triplet","3136.7000000029802","","","","0","stimuli/tools_lowercase.png","stimuli/stim011_animate_face_3.png","stimuli/stim016_inanimate_boats_4.png","75"
"html-button-response-mod","81","828738","0.0-81.0","73555","","","","","","triplet","11049.30000000447","","","","2","stimuli/stim005_animate_bird_1.png","stimuli/stim007_animate_bird_3.png","stimuli/stim006_animate_bird_2.png","76"
"html-button-response-mod","82","831707","0.0-82.0","73555","","","","","","triplet","2466.5","","","","1","stimuli/stim007_animate_bird_3.png","stimuli/face_uppercase.png","stimuli/tree_lowercase.png","77"
"html-button-response-mod","83","835355","0.0-83.0","73555","","","","","","triplet","3146.2999999970198","","","","2","stimuli/stim004_animate_fish_4.png","stimuli/stim013_inanimate_boats_1.png","stimuli/bird_uppercase.png","78"
"html-button-response-mod","84","837458","0.0-84.0","73555","","","","","","triplet","1601.4000000059605","","","","1","stimuli/stim018_inanimate_tree_2.png","stimuli/face_lowercase.png","stimuli/stim005_animate_bird_1.png","79"
"html-button-response-mod","85","839379","0.0-85.0","73555","","","","","","triplet","1410.1000000014901","","","","2","stimuli/stim007_animate_bird_3.png","stimuli/tree_lowercase.png","stimuli/boats_lowercase.png","80"
"html-button-response-mod","86","840915","0.0-86.0","73555","","","","","","triplet","1034.4000000059605","","","","0","stimuli/stim001_animate_fish_1.png","stimuli/bird_uppercase.png","stimuli/stim007_animate_bird_3.png","81"
"html-button-response-mod","87","842691","0.0-87.0","73555","","","","","","triplet","1274.5","","","","0","stimuli/tools_lowercase.png","stimuli/fish_lowercase.png","stimuli/stim020_inanimate_tree_4.png","82"
"html-button-response-mod","88","845275","0.0-88.0","73555","","","","","","triplet","2082.5999999940395","","","","1","stimuli/stim001_animate_fish_1.png","stimuli/stim012_animate_face_4.png","stimuli/stim008_animate_bird_4.png","83"
"html-button-response-mod","89","851283","0.0-89.0","73555","","","","","","triplet","5495.89999999851","","","","0","stimuli/tree_lowercase.png","stimuli/stim002_animate_fish_2.png","stimuli/stim013_inanimate_boats_1.png","84"
"html-button-response-mod","90","860443","0.0-90.0","73555","","","","","","triplet","8658.20000000298","","","","2","stimuli/fish_lowercase.png","stimuli/stim016_inanimate_boats_4.png","stimuli/stim011_animate_face_3.png","85"
"html-button-response-mod","91","880651","0.0-91.0","73555","","","","","","triplet","19704.20000000298","","","","0","stimuli/tools_lowercase.png","stimuli/stim003_animate_fish_3.png","stimuli/stim008_animate_bird_4.png","86"
"html-button-response-mod","92","882722","0.0-92.0","73555","","","","","","triplet","1569.5","","","","2","stimuli/stim003_animate_fish_3.png","stimuli/stim008_animate_bird_4.png","stimuli/face_lowercase.png","87"
"html-button-response-mod","93","884419","0.0-93.0","73555","","","","","","triplet","1194.6000000014901","","","","1","stimuli/stim023_inanimate_tools_3.png","stimuli/stim010_animate_face_2.png","stimuli/stim021_inanimate_tools_1.png","88"
"html-button-response-mod","94","903266","0.0-94.0","73555","","","","","","triplet","18346.20000000298","","","","0","stimuli/tools_uppercase.png","stimuli/stim010_animate_face_2.png","stimuli/stim007_animate_bird_3.png","89"
"html-button-response-mod","95","908906","0.0-95.0","73555","","","","","","triplet","5138.5","","","","2","stimuli/stim002_animate_fish_2.png","stimuli/stim017_inanimate_tree_1.png","stimuli/face_uppercase.png","90"
"html-button-response-mod","96","914922","0.0-96.0","73555","","","","","","triplet","5514.70000000298","","","","2","stimuli/tree_uppercase.png","stimuli/stim008_animate_bird_4.png","stimuli/boats_lowercase.png","91"
"html-button-response-mod","97","917842","0.0-97.0","73555","","","","","","triplet","2417.4000000059605","","","","2","stimuli/tree_uppercase.png","stimuli/stim008_animate_bird_4.png","stimuli/stim009_animate_face_1.png","92"
"html-button-response-mod","98","923250","0.0-98.0","73555","","","","","","triplet","4906","","","","1","stimuli/stim014_inanimate_boats_2.png","stimuli/bird_uppercase.png","stimuli/stim021_inanimate_tools_1.png","93"
"html-button-response-mod","99","934151","0.0-99.0","73555","","","","","","triplet","10392.79999999702","","","","0","stimuli/stim004_animate_fish_4.png","stimuli/stim010_animate_face_2.png","stimuli/stim018_inanimate_tree_2.png","94"
"html-button-response-mod","100","942978","0.0-100.0","73555","","","","","","triplet","8321.90000000596","","","","1","stimuli/bird_lowercase.png","stimuli/fish_lowercase.png","stimuli/stim006_animate_bird_2.png","95"
"html-button-response-mod","101","945986","0.0-101.0","73555","","","","","","triplet","2505.39999999851","","","","2","stimuli/stim010_animate_face_2.png","stimuli/stim011_animate_face_3.png","stimuli/stim005_animate_bird_1.png","96"
"html-button-response-mod","102","948170","0.0-102.0","73555","","","","","","triplet","1682.5","","","","1","stimuli/stim013_inanimate_boats_1.png","stimuli/stim011_animate_face_3.png","stimuli/stim015_inanimate_boats_3.png","97"
"html-button-response-mod","103","967795","0.0-103.0","73555","","","","","","triplet","19121.5","","","","1","stimuli/tree_lowercase.png","stimuli/tools_uppercase.png","stimuli/face_lowercase.png","98"
"html-button-response-mod","104","971322","0.0-104.0","73555","","","","","","triplet","3024.7000000029802","","","","0","stimuli/stim019_inanimate_tree_3.png","stimuli/fish_lowercase.png","stimuli/stim003_animate_fish_3.png","99"
"html-button-response","105","972763","0.0-105.0","73555","","","","","","break","939.2000000029802","<p>BREAK</p><p>Take a break for as long as you need</p><p>Click the button to continue</p>","0","","","","","",""
"html-button-response-mod","106","975819","0.0-106.0","73555","","","","","","triplet","3054.5","","","","1","stimuli/stim004_animate_fish_4.png","stimuli/boats_uppercase.png","stimuli/stim008_animate_bird_4.png","100"
"html-button-response-mod","107","977523","0.0-107.0","73555","","","","","","triplet","1201.7000000029802","","","","0","stimuli/stim007_animate_bird_3.png","stimuli/boats_uppercase.png","stimuli/stim015_inanimate_boats_3.png","101"
"html-button-response-mod","108","981395","0.0-108.0","73555","","","","","","triplet","3370.10000000149","","","","0","stimuli/stim003_animate_fish_3.png","stimuli/tree_lowercase.png","stimuli/stim019_inanimate_tree_3.png","102"
"html-button-response-mod","109","984834","0.0-109.0","73555","","","","","","triplet","2935.5999999940395","","","","2","stimuli/bird_uppercase.png","stimuli/tree_lowercase.png","stimuli/stim015_inanimate_boats_3.png","103"
"html-button-response-mod","110","989067","0.0-110.0","73555","","","","","","triplet","3728.8000000044703","","","","0","stimuli/stim003_animate_fish_3.png","stimuli/stim006_animate_bird_2.png","stimuli/stim020_inanimate_tree_4.png","104"
"html-button-response-mod","111","995843","0.0-111.0","73555","","","","","","triplet","6273.39999999851","","","","2","stimuli/bird_uppercase.png","stimuli/stim020_inanimate_tree_4.png","stimuli/boats_lowercase.png","105"
"html-button-response-mod","112","1009755","0.0-112.0","73555","","","","","","triplet","13409.60000000149","","","","1","stimuli/tree_lowercase.png","stimuli/boats_lowercase.png","stimuli/bird_uppercase.png","106"
"html-button-response-mod","113","1013891","0.0-113.0","73555","","","","","","triplet","3631.10000000149","","","","0","stimuli/stim008_animate_bird_4.png","stimuli/stim009_animate_face_1.png","stimuli/stim013_inanimate_boats_1.png","107"
"html-button-response-mod","114","1017683","0.0-114.0","73555","","","","","","triplet","3289","","","","1","stimuli/stim015_inanimate_boats_3.png","stimuli/bird_uppercase.png","stimuli/stim003_animate_fish_3.png","108"
"html-button-response-mod","115","1021946","0.0-115.0","73555","","","","","","triplet","3759.7999999970198","","","","2","stimuli/stim009_animate_face_1.png","stimuli/stim008_animate_bird_4.png","stimuli/tools_lowercase.png","109"
"html-button-response-mod","116","1025466","0.0-116.0","73555","","","","","","triplet","3017.5","","","","1","stimuli/stim015_inanimate_boats_3.png","stimuli/stim022_inanimate_tools_2.png","stimuli/stim009_animate_face_1.png","110"
"html-button-response-mod","117","1027634","0.0-117.0","73555","","","","","","triplet","1665.8000000044703","","","","0","stimuli/stim007_animate_bird_3.png","stimuli/stim010_animate_face_2.png","stimuli/stim009_animate_face_1.png","111"
"html-button-response-mod","118","1290067","0.0-118.0","73555","","","","","","triplet","261928","","","","1","stimuli/bird_lowercase.png","stimuli/stim022_inanimate_tools_2.png","stimuli/stim020_inanimate_tree_4.png","112"
"html-button-response-mod","119","1292635","0.0-119.0","73555","","","","","","triplet","2062.7999999970198","","","","0","stimuli/stim003_animate_fish_3.png","stimuli/stim019_inanimate_tree_3.png","stimuli/stim010_animate_face_2.png","113"
"html-button-response-mod","120","1294723","0.0-120.0","73555","","","","","","triplet","1586.8999999985099","","","","0","stimuli/stim018_inanimate_tree_2.png","stimuli/boats_lowercase.png","stimuli/stim015_inanimate_boats_3.png","114"
"html-button-response-mod","121","1297387","0.0-121.0","73555","","","","","","triplet","2148.7999999970198","","","","1","stimuli/stim002_animate_fish_2.png","stimuli/stim021_inanimate_tools_1.png","stimuli/bird_lowercase.png","115"
"html-button-response-mod","122","1299499","0.0-122.0","73555","","","","","","triplet","1610.3999999985099","","","","1","stimuli/stim024_inanimate_tools_4.png","stimuli/tree_lowercase.png","stimuli/tools_uppercase.png","116"
"html-button-response-mod","123","1301515","0.0-123.0","73555","","","","","","triplet","1512.7000000029802","","","","0","stimuli/stim023_inanimate_tools_3.png","stimuli/fish_uppercase.png","stimuli/boats_uppercase.png","117"
"html-button-response-mod","124","1304043","0.0-124.0","73555","","","","","","triplet","2014.5","","","","1","stimuli/stim021_inanimate_tools_1.png","stimuli/stim018_inanimate_tree_2.png","stimuli/stim024_inanimate_tools_4.png","118"
"html-button-response-mod","125","1305931","0.0-125.0","73555","","","","","","triplet","1386.3999999985099","","","","1","stimuli/stim019_inanimate_tree_3.png","stimuli/stim002_animate_fish_2.png","stimuli/tree_lowercase.png","119"
"html-button-response-mod","126","1307619","0.0-126.0","73555","","","","","","triplet","1185.8999999985099","","","","0","stimuli/tools_uppercase.png","stimuli/stim007_animate_bird_3.png","stimuli/stim006_animate_bird_2.png","120"
"html-button-response-mod","127","1309156","0.0-127.0","73555","","","","","","triplet","1033.2000000029802","","","","0","stimuli/stim004_animate_fish_4.png","stimuli/face_uppercase.png","stimuli/stim012_animate_face_4.png","121"
"html-button-response-mod","128","1310724","0.0-128.0","73555","","","","","","triplet","1065.6000000014901","","","","0","stimuli/stim012_animate_face_4.png","stimuli/stim014_inanimate_boats_2.png","stimuli/stim015_inanimate_boats_3.png","122"
"html-button-response-mod","129","1312603","0.0-129.0","73555","","","","","","triplet","1378.1999999955297","","","","2","stimuli/stim013_inanimate_boats_1.png","stimuli/stim015_inanimate_boats_3.png","stimuli/stim009_animate_face_1.png","123"
"html-button-response-mod","130","1315003","0.0-130.0","73555","","","","","","triplet","1898.3999999985099","","","","2","stimuli/tools_uppercase.png","stimuli/face_uppercase.png","stimuli/stim004_animate_fish_4.png","124"
"html-button-response-mod","131","1316435","0.0-131.0","73555","","","","","","triplet","930.1000000014901","","","","1","stimuli/stim005_animate_bird_1.png","stimuli/fish_uppercase.png","stimuli/stim008_animate_bird_4.png","125"
"html-button-response-mod","132","1317843","0.0-132.0","73555","","","","","","triplet","905.5","","","","2","stimuli/stim020_inanimate_tree_4.png","stimuli/stim018_inanimate_tree_2.png","stimuli/boats_uppercase.png","126"
"html-button-response-mod","133","1319779","0.0-133.0","73555","","","","","","triplet","1434.1999999955297","","","","0","stimuli/stim008_animate_bird_4.png","stimuli/boats_lowercase.png","stimuli/tools_lowercase.png","127"
"html-button-response-mod","134","1322748","0.0-134.0","73555","","","","","","triplet","2467.2000000029802","","","","1","stimuli/stim012_animate_face_4.png","stimuli/stim021_inanimate_tools_1.png","stimuli/stim006_animate_bird_2.png","128"
"html-button-response-mod","135","1324723","0.0-135.0","73555","","","","","","triplet","1460.1999999955297","","","","1","stimuli/stim008_animate_bird_4.png","stimuli/stim004_animate_fish_4.png","stimuli/stim018_inanimate_tree_2.png","129"
"html-button-response-mod","136","1326779","0.0-136.0","73555","","","","","","triplet","1554.8999999985099","","","","1","stimuli/stim006_animate_bird_2.png","stimuli/stim011_animate_face_3.png","stimuli/bird_lowercase.png","130"
"html-button-response-mod","137","1328299","0.0-137.0","73555","","","","","","triplet","1017.1000000014901","","","","2","stimuli/tools_lowercase.png","stimuli/stim024_inanimate_tools_4.png","stimuli/stim007_animate_bird_3.png","131"
"html-button-response-mod","138","1330243","0.0-138.0","73555","","","","","","triplet","1439.6000000014901","","","","0","stimuli/tools_lowercase.png","stimuli/fish_lowercase.png","stimuli/boats_lowercase.png","132"
"html-button-response-mod","139","1331923","0.0-139.0","73555","","","","","","triplet","1163.6000000014901","","","","0","stimuli/stim004_animate_fish_4.png","stimuli/stim007_animate_bird_3.png","stimuli/stim005_animate_bird_1.png","133"
"html-button-response-mod","140","1333867","0.0-140.0","73555","","","","","","triplet","1440.1999999955297","","","","0","stimuli/face_lowercase.png","stimuli/tree_lowercase.png","stimuli/stim020_inanimate_tree_4.png","134"
"html-button-response-mod","141","1337211","0.0-141.0","73555","","","","","","triplet","2841.1999999955297","","","","0","stimuli/tools_uppercase.png","stimuli/stim004_animate_fish_4.png","stimuli/bird_lowercase.png","135"
"html-button-response-mod","142","1339571","0.0-142.0","73555","","","","","","triplet","1857.7000000029802","","","","0","stimuli/fish_lowercase.png","stimuli/stim020_inanimate_tree_4.png","stimuli/stim008_animate_bird_4.png","136"
"html-button-response-mod","143","1342099","0.0-143.0","73555","","","","","","triplet","2019.3999999985099","","","","1","stimuli/stim016_inanimate_boats_4.png","stimuli/stim007_animate_bird_3.png","stimuli/fish_uppercase.png","137"
"html-button-response-mod","144","1344667","0.0-144.0","73555","","","","","","triplet","2066.0999999940395","","","","0","stimuli/stim001_animate_fish_1.png","stimuli/bird_uppercase.png","stimuli/stim019_inanimate_tree_3.png","138"
"html-button-response-mod","145","1347515","0.0-145.0","73555","","","","","","triplet","2346.7999999970198","","","","0","stimuli/tools_uppercase.png","stimuli/stim002_animate_fish_2.png","stimuli/stim006_animate_bird_2.png","139"
"html-button-response-mod","146","1349507","0.0-146.0","73555","","","","","","triplet","1488.6000000014901","","","","2","stimuli/tree_lowercase.png","stimuli/stim017_inanimate_tree_1.png","stimuli/stim009_animate_face_1.png","140"
"html-button-response-mod","147","1351451","0.0-147.0","73555","","","","","","triplet","1434.6999999955297","","","","1","stimuli/stim006_animate_bird_2.png","stimuli/stim012_animate_face_4.png","stimuli/stim020_inanimate_tree_4.png","141"
"html-button-response-mod","148","1353883","0.0-148.0","73555","","","","","","triplet","1921.5","","","","0","stimuli/bird_lowercase.png","stimuli/stim014_inanimate_boats_2.png","stimuli/stim010_animate_face_2.png","142"
"html-button-response-mod","149","1356379","0.0-149.0","73555","","","","","","triplet","1994.6000000014901","","","","1","stimuli/tools_uppercase.png","stimuli/face_lowercase.png","stimuli/tree_uppercase.png","143"
"html-button-response-mod","150","1358403","0.0-150.0","73555","","","","","","triplet","1521.8999999985099","","","","2","stimuli/stim017_inanimate_tree_1.png","stimuli/stim006_animate_bird_2.png","stimuli/stim022_inanimate_tools_2.png","144"
"html-button-response-mod","151","1360099","0.0-151.0","73555","","","","","","triplet","1194.2000000029802","","","","2","stimuli/stim003_animate_fish_3.png","stimuli/stim002_animate_fish_2.png","stimuli/stim014_inanimate_boats_2.png","145"
"html-button-response-mod","152","1361859","0.0-152.0","73555","","","","","","triplet","1257.6999999955297","","","","0","stimuli/stim021_inanimate_tools_1.png","stimuli/stim010_animate_face_2.png","stimuli/stim011_animate_face_3.png","146"
"html-button-response-mod","153","1363571","0.0-153.0","73555","","","","","","triplet","1205","","","","2","stimuli/stim001_animate_fish_1.png","stimuli/stim010_animate_face_2.png","stimuli/stim021_inanimate_tools_1.png","147"
"html-button-response-mod","154","1367371","0.0-154.0","73555","","","","","","triplet","3295.2999999970198","","","","1","stimuli/bird_lowercase.png","stimuli/tools_uppercase.png","stimuli/stim012_animate_face_4.png","148"
"html-button-response-mod","155","1370283","0.0-155.0","73555","","","","","","triplet","2404.89999999851","","","","1","stimuli/stim017_inanimate_tree_1.png","stimuli/fish_uppercase.png","stimuli/stim010_animate_face_2.png","149"
"html-button-response","156","1372627","0.0-156.0","73555","","","","","","break","1828.2999999970198","<p>BREAK</p><p>Take a break for as long as you need</p><p>Click the button to continue</p>","0","","","","","",""
"html-button-response-mod","157","1375939","0.0-157.0","73555","","","","","","triplet","3311","","","","1","stimuli/stim014_inanimate_boats_2.png","stimuli/stim003_animate_fish_3.png","stimuli/boats_uppercase.png","150"
"html-button-response-mod","158","1377467","0.0-158.0","73555","","","","","","triplet","1011.6999999955297","","","","0","stimuli/stim001_animate_fish_1.png","stimuli/stim014_inanimate_boats_2.png","stimuli/stim016_inanimate_boats_4.png","151"
"html-button-response-mod","159","1380715","0.0-159.0","73555","","","","","","triplet","2745.10000000149","","","","2","stimuli/stim010_animate_face_2.png","stimuli/stim024_inanimate_tools_4.png","stimuli/tree_lowercase.png","152"
"html-button-response-mod","160","1383403","0.0-160.0","73555","","","","","","triplet","2186","","","","0","stimuli/tools_uppercase.png","stimuli/fish_uppercase.png","stimuli/bird_uppercase.png","153"
"html-button-response-mod","161","1385171","0.0-161.0","73555","","","","","","triplet","1265.7000000029802","","","","0","stimuli/tools_lowercase.png","stimuli/tree_uppercase.png","stimuli/stim020_inanimate_tree_4.png","154"
"html-button-response-mod","162","1390443","0.0-162.0","73555","","","","","","triplet","4770.5","","","","0","stimuli/stim005_animate_bird_1.png","stimuli/stim013_inanimate_boats_1.png","stimuli/stim002_animate_fish_2.png","155"
"html-button-response-mod","163","1400923","0.0-163.0","73555","","","","","","triplet","9965.60000000149","","","","1","stimuli/stim008_animate_bird_4.png","stimuli/stim014_inanimate_boats_2.png","stimuli/stim020_inanimate_tree_4.png","156"
"html-button-response-mod","164","1403547","0.0-164.0","73555","","","","","","triplet","2121.5","","","","0","stimuli/tools_lowercase.png","stimuli/face_uppercase.png","stimuli/stim017_inanimate_tree_1.png","157"
"html-button-response-mod","165","1405139","0.0-165.0","73555","","","","","","triplet","1089.0999999940395","","","","1","stimuli/stim015_inanimate_boats_3.png","stimuli/stim022_inanimate_tools_2.png","stimuli/stim013_inanimate_boats_1.png","158"
"html-button-response-mod","166","1406843","0.0-166.0","73555","","","","","","triplet","1202","","","","1","stimuli/stim004_animate_fish_4.png","stimuli/stim020_inanimate_tree_4.png","stimuli/fish_uppercase.png","159"
"html-button-response-mod","167","1409291","0.0-167.0","73555","","","","","","triplet","1945","","","","2","stimuli/tree_uppercase.png","stimuli/stim005_animate_bird_1.png","stimuli/boats_lowercase.png","160"
"html-button-response-mod","168","1413747","0.0-168.0","73555","","","","","","triplet","3953","","","","0","stimuli/tools_lowercase.png","stimuli/stim018_inanimate_tree_2.png","stimuli/stim015_inanimate_boats_3.png","161"
"html-button-response-mod","169","1417219","0.0-169.0","73555","","","","","","triplet","2958.60000000149","","","","1","stimuli/stim024_inanimate_tools_4.png","stimuli/tree_lowercase.png","stimuli/stim014_inanimate_boats_2.png","162"
"html-button-response-mod","170","1421979","0.0-170.0","73555","","","","","","triplet","4242.60000000149","","","","0","stimuli/face_lowercase.png","stimuli/stim020_inanimate_tree_4.png","stimuli/stim022_inanimate_tools_2.png","163"
"html-button-response-mod","171","1425331","0.0-171.0","73555","","","","","","triplet","2841.7000000029802","","","","1","stimuli/stim014_inanimate_boats_2.png","stimuli/tree_uppercase.png","stimuli/stim022_inanimate_tools_2.png","164"
"html-button-response-mod","172","1428475","0.0-172.0","73555","","","","","","triplet","2641.5","","","","2","stimuli/stim021_inanimate_tools_1.png","stimuli/stim020_inanimate_tree_4.png","stimuli/fish_lowercase.png","165"
"html-button-response-mod","173","1430683","0.0-173.0","73555","","","","","","triplet","1702.6999999955297","","","","1","stimuli/boats_lowercase.png","stimuli/tree_lowercase.png","stimuli/stim002_animate_fish_2.png","166"
"html-button-response-mod","174","1433947","0.0-174.0","73555","","","","","","triplet","2758.1999999955297","","","","1","stimuli/stim002_animate_fish_2.png","stimuli/stim022_inanimate_tools_2.png","stimuli/stim015_inanimate_boats_3.png","167"
"html-button-response-mod","175","1442187","0.0-175.0","73555","","","","","","triplet","7737","","","","1","stimuli/stim003_animate_fish_3.png","stimuli/stim001_animate_fish_1.png","stimuli/stim004_animate_fish_4.png","168"
"html-button-response-mod","176","1448651","0.0-176.0","73555","","","","","","triplet","5960.29999999702","","","","0","stimuli/boats_lowercase.png","stimuli/stim015_inanimate_boats_3.png","stimuli/stim014_inanimate_boats_2.png","169"
"html-button-response-mod","177","1459771","0.0-177.0","73555","","","","","","triplet","10618.39999999851","","","","2","stimuli/stim017_inanimate_tree_1.png","stimuli/stim012_animate_face_4.png","stimuli/stim022_inanimate_tools_2.png","170"
"html-button-response-mod","178","1462107","0.0-178.0","73555","","","","","","triplet","1834.2000000029802","","","","2","stimuli/stim002_animate_fish_2.png","stimuli/boats_lowercase.png","stimuli/tools_lowercase.png","171"
"html-button-response-mod","179","1464715","0.0-179.0","73555","","","","","","triplet","2104.60000000149","","","","1","stimuli/tools_lowercase.png","stimuli/stim019_inanimate_tree_3.png","stimuli/face_lowercase.png","172"
"html-button-response-mod","180","1466923","0.0-180.0","73555","","","","","","triplet","1700.1999999955297","","","","0","stimuli/boats_lowercase.png","stimuli/stim011_animate_face_3.png","stimuli/stim017_inanimate_tree_1.png","173"
"html-button-response-mod","181","1468523","0.0-181.0","73555","","","","","","triplet","1097.2000000029802","","","","2","stimuli/stim011_animate_face_3.png","stimuli/stim012_animate_face_4.png","stimuli/stim019_inanimate_tree_3.png","174"
"html-button-response-mod","182","1470107","0.0-182.0","73555","","","","","","triplet","1082.5","","","","1","stimuli/stim005_animate_bird_1.png","stimuli/stim014_inanimate_boats_2.png","stimuli/stim004_animate_fish_4.png","175"
"html-button-response-mod","183","1472083","0.0-183.0","73555","","","","","","triplet","1465.6000000014901","","","","0","stimuli/boats_uppercase.png","stimuli/stim016_inanimate_boats_4.png","stimuli/stim013_inanimate_boats_1.png","176"
"html-button-response-mod","184","1474579","0.0-184.0","73555","","","","","","triplet","1991.2999999970198","","","","2","stimuli/stim002_animate_fish_2.png","stimuli/stim009_animate_face_1.png","stimuli/tools_lowercase.png","177"
"html-button-response-mod","185","1476307","0.0-185.0","73555","","","","","","triplet","1226.8000000044703","","","","2","stimuli/tree_uppercase.png","stimuli/stim017_inanimate_tree_1.png","stimuli/fish_uppercase.png","178"
"html-button-response-mod","186","1478291","0.0-186.0","73555","","","","","","triplet","1467.1000000014901","","","","2","stimuli/stim017_inanimate_tree_1.png","stimuli/tree_lowercase.png","stimuli/stim023_inanimate_tools_3.png","179"
"html-button-response-mod","187","1480043","0.0-187.0","73555","","","","","","triplet","1250.2000000029802","","","","1","stimuli/fish_lowercase.png","stimuli/stim021_inanimate_tools_1.png","stimuli/stim004_animate_fish_4.png","180"
"html-button-response-mod","188","1481787","0.0-188.0","73555","","","","","","triplet","1241.2999999970198","","","","0","stimuli/stim001_animate_fish_1.png","stimuli/boats_lowercase.png","stimuli/stim015_inanimate_boats_3.png","181"
"html-button-response-mod","189","1484227","0.0-189.0","73555","","","","","","triplet","1933.1000000014901","","","","1","stimuli/stim013_inanimate_boats_1.png","stimuli/boats_lowercase.png","stimuli/stim016_inanimate_boats_4.png","182"
"html-button-response-mod","190","1486371","0.0-190.0","73555","","","","","","triplet","1641.3999999985099","","","","1","stimuli/tree_lowercase.png","stimuli/boats_lowercase.png","stimuli/stim008_animate_bird_4.png","183"
"html-button-response-mod","191","1488131","0.0-191.0","73555","","","","","","triplet","1242.1999999955297","","","","2","stimuli/face_uppercase.png","stimuli/stim011_animate_face_3.png","stimuli/tree_uppercase.png","184"
"html-button-response-mod","192","1491275","0.0-192.0","73555","","","","","","triplet","2642.60000000149","","","","0","stimuli/stim023_inanimate_tools_3.png","stimuli/stim005_animate_bird_1.png","stimuli/stim010_animate_face_2.png","185"
"html-button-response-mod","193","1493299","0.0-193.0","73555","","","","","","triplet","1521.3999999985099","","","","2","stimuli/face_lowercase.png","stimuli/stim018_inanimate_tree_2.png","stimuli/stim021_inanimate_tools_1.png","186"
"html-button-response-mod","194","1495555","0.0-194.0","73555","","","","","","triplet","1754","","","","0","stimuli/stim009_animate_face_1.png","stimuli/stim008_animate_bird_4.png","stimuli/stim019_inanimate_tree_3.png","187"
"html-button-response-mod","195","1498427","0.0-195.0","73555","","","","","","triplet","2368.39999999851","","","","0","stimuli/stim021_inanimate_tools_1.png","stimuli/boats_uppercase.png","stimuli/stim007_animate_bird_3.png","188"
"html-button-response-mod","196","1501179","0.0-196.0","73555","","","","","","triplet","2247.10000000149","","","","2","stimuli/stim001_animate_fish_1.png","stimuli/stim018_inanimate_tree_2.png","stimuli/face_uppercase.png","189"
"html-button-response-mod","197","1504747","0.0-197.0","73555","","","","","","triplet","3055.60000000149","","","","1","stimuli/tools_uppercase.png","stimuli/stim016_inanimate_boats_4.png","stimuli/face_lowercase.png","190"
"html-button-response-mod","198","1511691","0.0-198.0","73555","","","","","","triplet","6441.29999999702","","","","1","stimuli/stim002_animate_fish_2.png","stimuli/stim013_inanimate_boats_1.png","stimuli/stim006_animate_bird_2.png","191"
"html-button-response-mod","199","1513763","0.0-199.0","73555","","","","","","triplet","1567.3000000044703","","","","2","stimuli/stim002_animate_fish_2.png","stimuli/stim003_animate_fish_3.png","stimuli/boats_uppercase.png","192"
"html-button-response-mod","200","1519379","0.0-200.0","73555","","","","","","triplet","5108.30000000447","","","","0","stimuli/stim023_inanimate_tools_3.png","stimuli/stim010_animate_face_2.png","stimuli/stim013_inanimate_boats_1.png","193"
"html-button-response-mod","201","1521587","0.0-201.0","73555","","","","","","triplet","1691.4000000059605","","","","1","stimuli/stim006_animate_bird_2.png","stimuli/stim024_inanimate_tools_4.png","stimuli/stim013_inanimate_boats_1.png","194"
"html-button-response-mod","202","1523899","0.0-202.0","73555","","","","","","triplet","1798.7999999970198","","","","2","stimuli/boats_uppercase.png","stimuli/stim013_inanimate_boats_1.png","stimuli/stim019_inanimate_tree_3.png","195"
"html-button-response-mod","203","1528203","0.0-203.0","73555","","","","","","triplet","3792.8000000044703","","","","1","stimuli/stim019_inanimate_tree_3.png","stimuli/stim023_inanimate_tools_3.png","stimuli/tree_lowercase.png","196"
"html-button-response-mod","204","1529771","0.0-204.0","73555","","","","","","triplet","1066.4000000059605","","","","0","stimuli/stim022_inanimate_tools_2.png","stimuli/stim020_inanimate_tree_4.png","stimuli/stim018_inanimate_tree_2.png","197"
"html-button-response-mod","205","1531443","0.0-205.0","73555","","","","","","triplet","1159.6000000014901","","","","2","stimuli/stim012_animate_face_4.png","stimuli/face_uppercase.png","stimuli/tree_uppercase.png","198"
"html-button-response-mod","206","1533387","0.0-206.0","73555","","","","","","triplet","1441.8999999985099","","","","0","stimuli/face_lowercase.png","stimuli/stim008_animate_bird_4.png","stimuli/stim020_inanimate_tree_4.png","199"
"html-button-response","207","1534915","0.0-207.0","73555","","","","","","break","1022.8999999985099","<p>BREAK</p><p>Take a break for as long as you need</p><p>Click the button to continue</p>","0","","","","","",""
"html-button-response-mod","208","1537619","0.0-208.0","73555","","","","","","triplet","2702.7000000029802","","","","1","stimuli/boats_uppercase.png","stimuli/stim011_animate_face_3.png","stimuli/tree_uppercase.png","200"
"html-button-response-mod","209","1540171","0.0-209.0","73555","","","","","","triplet","2050.39999999851","","","","2","stimuli/tree_lowercase.png","stimuli/face_lowercase.png","stimuli/stim005_animate_bird_1.png","201"
"html-button-response-mod","210","1546779","0.0-210.0","73555","","","","","","triplet","6094","","","","0","stimuli/bird_lowercase.png","stimuli/boats_lowercase.png","stimuli/fish_lowercase.png","202"
"html-button-response-mod","211","1549331","0.0-211.0","73555","","","","","","triplet","2048.7000000029802","","","","1","stimuli/stim006_animate_bird_2.png","stimuli/tools_uppercase.png","stimuli/stim018_inanimate_tree_2.png","203"
"html-button-response-mod","212","1559027","0.0-212.0","73555","","","","","","triplet","9194.29999999702","","","","2","stimuli/stim020_inanimate_tree_4.png","stimuli/stim012_animate_face_4.png","stimuli/fish_uppercase.png","204"
"html-button-response-mod","213","1560803","0.0-213.0","73555","","","","","","triplet","1273","","","","0","stimuli/stim019_inanimate_tree_3.png","stimuli/stim006_animate_bird_2.png","stimuli/bird_uppercase.png","205"
"html-button-response-mod","214","1562163","0.0-214.0","73555","","","","","","triplet","848.5","","","","2","stimuli/stim020_inanimate_tree_4.png","stimuli/stim018_inanimate_tree_2.png","stimuli/fish_uppercase.png","206"
"html-button-response-mod","215","1564179","0.0-215.0","73555","","","","","","triplet","1514.2999999970198","","","","1","stimuli/stim014_inanimate_boats_2.png","stimuli/stim021_inanimate_tools_1.png","stimuli/bird_lowercase.png","207"
"html-button-response-mod","216","1565827","0.0-216.0","73555","","","","","","triplet","1136.2000000029802","","","","1","stimuli/stim013_inanimate_boats_1.png","stimuli/stim008_animate_bird_4.png","stimuli/stim016_inanimate_boats_4.png","208"
"html-button-response-mod","217","1568523","0.0-217.0","73555","","","","","","triplet","2194.5","","","","2","stimuli/stim005_animate_bird_1.png","stimuli/bird_lowercase.png","stimuli/stim010_animate_face_2.png","209"
"html-button-response-mod","218","1571995","0.0-218.0","73555","","","","","","triplet","2970.10000000149","","","","2","stimuli/stim024_inanimate_tools_4.png","stimuli/stim009_animate_face_1.png","stimuli/stim002_animate_fish_2.png","210"
"html-button-response-mod","219","1638075","0.0-219.0","73555","","","","","","triplet","65571.20000000298","","","","1","stimuli/stim005_animate_bird_1.png","stimuli/tools_uppercase.png","stimuli/stim016_inanimate_boats_4.png","211"
"html-button-response-mod","220","1640979","0.0-220.0","73555","","","","","","triplet","2401.3000000044703","","","","2","stimuli/stim015_inanimate_boats_3.png","stimuli/stim019_inanimate_tree_3.png","stimuli/tools_lowercase.png","212"
"html-button-response-mod","221","1644595","0.0-221.0","73555","","","","","","triplet","3113.8000000044703","","","","2","stimuli/tools_uppercase.png","stimuli/stim014_inanimate_boats_2.png","stimuli/stim020_inanimate_tree_4.png","213"
"html-button-response-mod","222","1648355","0.0-222.0","73555","","","","","","triplet","3257","","","","2","stimuli/face_lowercase.png","stimuli/fish_uppercase.png","stimuli/stim021_inanimate_tools_1.png","214"
"html-button-response-mod","223","1652379","0.0-223.0","73555","","","","","","triplet","3510.10000000149","","","","2","stimuli/stim007_animate_bird_3.png","stimuli/tree_lowercase.png","stimuli/stim003_animate_fish_3.png","215"
"html-button-response-mod","224","1654019","0.0-224.0","73555","","","","","","triplet","1137.3999999985099","","","","1","stimuli/face_uppercase.png","stimuli/stim024_inanimate_tools_4.png","stimuli/stim012_animate_face_4.png","216"
"html-button-response-mod","225","1657467","0.0-225.0","73555","","","","","","triplet","2946.2999999970198","","","","2","stimuli/stim004_animate_fish_4.png","stimuli/stim001_animate_fish_1.png","stimuli/bird_uppercase.png","217"
"html-button-response-mod","226","1666619","0.0-226.0","73555","","","","","","triplet","8637","","","","1","stimuli/stim017_inanimate_tree_1.png","stimuli/boats_lowercase.png","stimuli/stim024_inanimate_tools_4.png","218"
"html-button-response-mod","227","1669099","0.0-227.0","73555","","","","","","triplet","1968","","","","1","stimuli/stim003_animate_fish_3.png","stimuli/tree_lowercase.png","stimuli/stim012_animate_face_4.png","219"
"html-button-response-mod","228","1672067","0.0-228.0","73555","","","","","","triplet","2457.7999999970198","","","","0","stimuli/stim020_inanimate_tree_4.png","stimuli/stim016_inanimate_boats_4.png","stimuli/stim005_animate_bird_1.png","220"
"html-button-response-mod","229","1676203","0.0-229.0","73555","","","","","","triplet","3620.2999999970198","","","","2","stimuli/stim015_inanimate_boats_3.png","stimuli/stim005_animate_bird_1.png","stimuli/stim022_inanimate_tools_2.png","221"
"html-button-response-mod","230","1681947","0.0-230.0","73555","","","","","","triplet","5239.10000000149","","","","1","stimuli/stim010_animate_face_2.png","stimuli/stim004_animate_fish_4.png","stimuli/tree_lowercase.png","222"
"html-button-response-mod","231","1685899","0.0-231.0","73555","","","","","","triplet","3450.7000000029802","","","","0","stimuli/face_uppercase.png","stimuli/boats_lowercase.png","stimuli/tools_lowercase.png","223"
"html-button-response-mod","232","1688403","0.0-232.0","73555","","","","","","triplet","1999.7000000029802","","","","1","stimuli/tree_lowercase.png","stimuli/stim021_inanimate_tools_1.png","stimuli/stim018_inanimate_tree_2.png","224"
"html-button-response-mod","233","1690115","0.0-233.0","73555","","","","","","triplet","1197.3999999985099","","","","2","stimuli/face_lowercase.png","stimuli/stim012_animate_face_4.png","stimuli/stim008_animate_bird_4.png","225"
"html-button-response-mod","234","1692067","0.0-234.0","73555","","","","","","triplet","1449.8999999985099","","","","1","stimuli/stim024_inanimate_tools_4.png","stimuli/stim018_inanimate_tree_2.png","stimuli/stim023_inanimate_tools_3.png","226"
"html-button-response-mod","235","1695083","0.0-235.0","73555","","","","","","triplet","2510.2000000029802","","","","2","stimuli/stim006_animate_bird_2.png","stimuli/stim009_animate_face_1.png","stimuli/fish_uppercase.png","227"
"html-button-response-mod","236","1696652","0.0-236.0","73555","","","","","","triplet","1066.6000000014901","","","","1","stimuli/tree_uppercase.png","stimuli/stim023_inanimate_tools_3.png","stimuli/stim019_inanimate_tree_3.png","228"
"html-button-response-mod","237","1699827","0.0-237.0","73555","","","","","","triplet","2659","","","","2","stimuli/stim008_animate_bird_4.png","stimuli/stim006_animate_bird_2.png","stimuli/stim020_inanimate_tree_4.png","229"
"html-button-response-mod","238","1703036","0.0-238.0","73555","","","","","","triplet","2698.3000000044703","","","","0","stimuli/tree_uppercase.png","stimuli/stim023_inanimate_tools_3.png","stimuli/tools_uppercase.png","230"
"html-button-response-mod","239","1705995","0.0-239.0","73555","","","","","","triplet","2442.7000000029802","","","","0","stimuli/stim021_inanimate_tools_1.png","stimuli/fish_uppercase.png","stimuli/boats_uppercase.png","231"
"html-button-response-mod","240","1709155","0.0-240.0","73555","","","","","","triplet","2644.10000000149","","","","0","stimuli/stim017_inanimate_tree_1.png","stimuli/stim012_animate_face_4.png","stimuli/stim014_inanimate_boats_2.png","232"
"html-button-response-mod","241","1712291","0.0-241.0","73555","","","","","","triplet","2621.3000000044703","","","","0","stimuli/stim023_inanimate_tools_3.png","stimuli/stim006_animate_bird_2.png","stimuli/stim002_animate_fish_2.png","233"
"html-button-response-mod","242","1714291","0.0-242.0","73555","","","","","","triplet","1497.9000000059605","","","","0","stimuli/stim021_inanimate_tools_1.png","stimuli/stim002_animate_fish_2.png","stimuli/stim016_inanimate_boats_4.png","234"
"html-button-response-mod","243","1715891","0.0-243.0","73555","","","","","","triplet","1086","","","","2","stimuli/stim002_animate_fish_2.png","stimuli/stim013_inanimate_boats_1.png","stimuli/stim021_inanimate_tools_1.png","235"
"html-button-response-mod","244","1717955","0.0-244.0","73555","","","","","","triplet","1560.2000000029802","","","","2","stimuli/face_lowercase.png","stimuli/face_uppercase.png","stimuli/tools_uppercase.png","236"
"html-button-response-mod","245","1720275","0.0-245.0","73555","","","","","","triplet","1804","","","","0","stimuli/stim001_animate_fish_1.png","stimuli/stim018_inanimate_tree_2.png","stimuli/stim005_animate_bird_1.png","237"
"html-button-response-mod","246","1722219","0.0-246.0","73555","","","","","","triplet","1433.5","","","","1","stimuli/stim020_inanimate_tree_4.png","stimuli/stim004_animate_fish_4.png","stimuli/stim019_inanimate_tree_3.png","238"
"html-button-response-mod","247","1724379","0.0-247.0","73555","","","","","","triplet","1658.7999999970198","","","","1","stimuli/stim015_inanimate_boats_3.png","stimuli/stim010_animate_face_2.png","stimuli/stim004_animate_fish_4.png","239"
"html-button-response-mod","248","1730587","0.0-248.0","73555","","","","","","triplet","5705.70000000298","","","","0","stimuli/stim024_inanimate_tools_4.png","stimuli/stim003_animate_fish_3.png","stimuli/tree_lowercase.png","240"
"html-button-response-mod","249","1732987","0.0-249.0","73555","","","","","","triplet","1888.4000000059605","","","","1","stimuli/fish_lowercase.png","stimuli/stim013_inanimate_boats_1.png","stimuli/fish_uppercase.png","241"
"html-button-response-mod","250","1735059","0.0-250.0","73555","","","","","","triplet","1559.7000000029802","","","","1","stimuli/boats_lowercase.png","stimuli/stim023_inanimate_tools_3.png","stimuli/fish_lowercase.png","242"
"html-button-response-mod","251","1737331","0.0-251.0","73555","","","","","","triplet","1768.8999999985099","","","","2","stimuli/tree_lowercase.png","stimuli/stim004_animate_fish_4.png","stimuli/stim021_inanimate_tools_1.png","243"
"html-button-response-mod","252","1741131","0.0-252.0","73555","","","","","","triplet","3282.39999999851","","","","0","stimuli/face_lowercase.png","stimuli/stim002_animate_fish_2.png","stimuli/stim005_animate_bird_1.png","244"
"html-button-response-mod","253","1743051","0.0-253.0","73555","","","","","","triplet","1413.5","","","","2","stimuli/stim008_animate_bird_4.png","stimuli/stim001_animate_fish_1.png","stimuli/tools_uppercase.png","245"
"html-button-response-mod","254","1751371","0.0-254.0","73555","","","","","","triplet","7816.69999999553","","","","0","stimuli/stim023_inanimate_tools_3.png","stimuli/stim019_inanimate_tree_3.png","stimuli/stim004_animate_fish_4.png","246"
"html-button-response-mod","255","1757179","0.0-255.0","73555","","","","","","triplet","5297.10000000149","","","","0","stimuli/tools_uppercase.png","stimuli/stim004_animate_fish_4.png","stimuli/stim019_inanimate_tree_3.png","247"
"html-button-response-mod","256","1760051","0.0-256.0","73555","","","","","","triplet","2364.8000000044703","","","","1","stimuli/fish_uppercase.png","stimuli/face_uppercase.png","stimuli/stim003_animate_fish_3.png","248"
"html-button-response-mod","257","1761515","0.0-257.0","73555","","","","","","triplet","946.8000000044703","","","","2","stimuli/tools_lowercase.png","stimuli/stim022_inanimate_tools_2.png","stimuli/stim015_inanimate_boats_3.png","249"
"html-button-response","258","1763148","0.0-258.0","73555","","","","","","break","1129","<p>BREAK</p><p>Take a break for as long as you need</p><p>Click the button to continue</p>","0","","","","","",""
"html-button-response-mod","259","1765363","0.0-259.0","73555","","","","","","triplet","2214.3000000044703","","","","1","stimuli/stim022_inanimate_tools_2.png","stimuli/stim012_animate_face_4.png","stimuli/tools_lowercase.png","250"
"html-button-response-mod","260","1767331","0.0-260.0","73555","","","","","","triplet","1459.5","","","","0","stimuli/stim011_animate_face_3.png","stimuli/bird_uppercase.png","stimuli/stim018_inanimate_tree_2.png","251"
"html-button-response-mod","261","1769307","0.0-261.0","73555","","","","","","triplet","1471","","","","2","stimuli/tree_uppercase.png","stimuli/stim018_inanimate_tree_2.png","stimuli/stim021_inanimate_tools_1.png","252"
"html-button-response-mod","262","1771116","0.0-262.0","73555","","","","","","triplet","1295.8999999985099","","","","2","stimuli/stim016_inanimate_boats_4.png","stimuli/stim001_animate_fish_1.png","stimuli/stim024_inanimate_tools_4.png","253"
"html-button-response-mod","263","1773052","0.0-263.0","73555","","","","","","triplet","1425.2000000029802","","","","2","stimuli/fish_lowercase.png","stimuli/stim004_animate_fish_4.png","stimuli/stim006_animate_bird_2.png","254"
"html-button-response-mod","264","1776244","0.0-264.0","73555","","","","","","triplet","2677.7000000029802","","","","0","stimuli/boats_uppercase.png","stimuli/stim009_animate_face_1.png","stimuli/stim019_inanimate_tree_3.png","255"
"html-button-response-mod","265","1780148","0.0-265.0","73555","","","","","","triplet","3389.5","","","","1","stimuli/fish_uppercase.png","stimuli/face_lowercase.png","stimuli/stim018_inanimate_tree_2.png","256"
"html-button-response-mod","266","1782300","0.0-266.0","73555","","","","","","triplet","1646.8000000044703","","","","1","stimuli/tree_lowercase.png","stimuli/stim012_animate_face_4.png","stimuli/stim018_inanimate_tree_2.png","257"
"html-button-response-mod","267","1784916","0.0-267.0","73555","","","","","","triplet","2114.89999999851","","","","0","stimuli/stim002_animate_fish_2.png","stimuli/stim008_animate_bird_4.png","stimuli/stim020_inanimate_tree_4.png","258"
"html-button-response-mod","268","1790572","0.0-268.0","73555","","","","","","triplet","5142.10000000149","","","","2","stimuli/stim011_animate_face_3.png","stimuli/stim015_inanimate_boats_3.png","stimuli/tree_lowercase.png","259"
"html-button-response-mod","269","1792564","0.0-269.0","73555","","","","","","triplet","1487.7999999970198","","","","0","stimuli/stim021_inanimate_tools_1.png","stimuli/stim009_animate_face_1.png","stimuli/face_uppercase.png","260"
"html-button-response-mod","270","1794468","0.0-270.0","73555","","","","","","triplet","1396.5","","","","0","stimuli/stim012_animate_face_4.png","stimuli/stim013_inanimate_boats_1.png","stimuli/stim016_inanimate_boats_4.png","261"
"html-button-response-mod","271","1796220","0.0-271.0","73555","","","","","","triplet","1250.2000000029802","","","","2","stimuli/tools_lowercase.png","stimuli/stim024_inanimate_tools_4.png","stimuli/stim011_animate_face_3.png","262"
"html-button-response-mod","272","1800540","0.0-272.0","73555","","","","","","triplet","3818.7000000029802","","","","0","stimuli/stim017_inanimate_tree_1.png","stimuli/boats_lowercase.png","stimuli/face_lowercase.png","263"
"html-button-response-mod","273","1803924","0.0-273.0","73555","","","","","","triplet","2872.60000000149","","","","0","stimuli/stim014_inanimate_boats_2.png","stimuli/bird_uppercase.png","stimuli/stim018_inanimate_tree_2.png","264"
"html-button-response-mod","274","1807364","0.0-274.0","73555","","","","","","triplet","2930.7000000029802","","","","0","stimuli/bird_uppercase.png","stimuli/stim011_animate_face_3.png","stimuli/stim013_inanimate_boats_1.png","265"
"html-button-response-mod","275","1809796","0.0-275.0","73555","","","","","","triplet","1922.5","","","","1","stimuli/stim011_animate_face_3.png","stimuli/tree_uppercase.png","stimuli/stim015_inanimate_boats_3.png","266"
"html-button-response-mod","276","1812916","0.0-276.0","73555","","","","","","triplet","2613.60000000149","","","","0","stimuli/stim012_animate_face_4.png","stimuli/fish_lowercase.png","stimuli/stim013_inanimate_boats_1.png","267"
"html-button-response-mod","277","1816956","0.0-277.0","73555","","","","","","triplet","3536.10000000149","","","","2","stimuli/stim009_animate_face_1.png","stimuli/stim013_inanimate_boats_1.png","stimuli/stim021_inanimate_tools_1.png","268"
"html-button-response-mod","278","1846556","0.0-278.0","73555","","","","","","triplet","29095.20000000298","","","","0","stimuli/stim020_inanimate_tree_4.png","stimuli/stim013_inanimate_boats_1.png","stimuli/stim010_animate_face_2.png","269"
"html-button-response-mod","279","1848467","0.0-279.0","73555","","","","","","triplet","1398.7000000029802","","","","2","stimuli/stim008_animate_bird_4.png","stimuli/bird_uppercase.png","stimuli/stim018_inanimate_tree_2.png","270"
"html-button-response-mod","280","1854812","0.0-280.0","73555","","","","","","triplet","5842.80000000447","","","","0","stimuli/fish_uppercase.png","stimuli/stim011_animate_face_3.png","stimuli/tools_uppercase.png","271"
"html-button-response-mod","281","1857292","0.0-281.0","73555","","","","","","triplet","1978.2000000029802","","","","0","stimuli/tools_uppercase.png","stimuli/stim009_animate_face_1.png","stimuli/stim013_inanimate_boats_1.png","272"
"html-button-response-mod","282","1858860","0.0-282.0","73555","","","","","","triplet","1054.8999999985099","","","","0","stimuli/stim009_animate_face_1.png","stimuli/bird_lowercase.png","stimuli/stim005_animate_bird_1.png","273"
"html-button-response-mod","283","1860804","0.0-283.0","73555","","","","","","triplet","1441.8000000044703","","","","2","stimuli/tools_lowercase.png","stimuli/stim024_inanimate_tools_4.png","stimuli/stim014_inanimate_boats_2.png","274"
"html-button-response-mod","284","1863403","0.0-284.0","73555","","","","","","triplet","2083.5","","","","2","stimuli/tree_uppercase.png","stimuli/stim020_inanimate_tree_4.png","stimuli/stim005_animate_bird_1.png","275"
"html-button-response-mod","285","1867452","0.0-285.0","73555","","","","","","triplet","3532.8000000044703","","","","0","stimuli/tree_uppercase.png","stimuli/tools_uppercase.png","stimuli/stim016_inanimate_boats_4.png","276"
"html-button-response-mod","286","1871435","0.0-286.0","73555","","","","","","triplet","3471.5","","","","2","stimuli/stim016_inanimate_boats_4.png","stimuli/stim002_animate_fish_2.png","stimuli/stim007_animate_bird_3.png","277"
"html-button-response-mod","287","1874027","0.0-287.0","73555","","","","","","triplet","2088.7000000029802","","","","2","stimuli/stim007_animate_bird_3.png","stimuli/stim017_inanimate_tree_1.png","stimuli/stim024_inanimate_tools_4.png","278"
"html-button-response-mod","288","1877131","0.0-288.0","73555","","","","","","triplet","2601.5","","","","2","stimuli/stim023_inanimate_tools_3.png","stimuli/boats_lowercase.png","stimuli/stim007_animate_bird_3.png","279"
"html-button-response-mod","289","1879011","0.0-289.0","73555","","","","","","triplet","1378.6000000014901","","","","2","stimuli/stim002_animate_fish_2.png","stimuli/stim015_inanimate_boats_3.png","stimuli/stim018_inanimate_tree_2.png","280"
"html-button-response-mod","290","1882067","0.0-290.0","73555","","","","","","triplet","2554.39999999851","","","","1","stimuli/stim010_animate_face_2.png","stimuli/bird_lowercase.png","stimuli/tools_uppercase.png","281"
"html-button-response-mod","291","1887147","0.0-291.0","73555","","","","","","triplet","4563.29999999702","","","","2","stimuli/stim022_inanimate_tools_2.png","stimuli/stim010_animate_face_2.png","stimuli/fish_uppercase.png","282"
"html-button-response-mod","292","1890051","0.0-292.0","73555","","","","","","triplet","2402.60000000149","","","","2","stimuli/tools_uppercase.png","stimuli/stim017_inanimate_tree_1.png","stimuli/stim004_animate_fish_4.png","283"
"html-button-response-mod","293","1891860","0.0-293.0","73555","","","","","","triplet","1296.4000000059605","","","","2","stimuli/tree_uppercase.png","stimuli/tree_lowercase.png","stimuli/stim011_animate_face_3.png","284"
"html-button-response-mod","294","1894195","0.0-294.0","73555","","","","","","triplet","1831.1000000014901","","","","1","stimuli/stim007_animate_bird_3.png","stimuli/stim003_animate_fish_3.png","stimuli/stim017_inanimate_tree_1.png","285"
"html-button-response-mod","295","1899795","0.0-295.0","73555","","","","","","triplet","5090.60000000149","","","","2","stimuli/bird_lowercase.png","stimuli/stim015_inanimate_boats_3.png","stimuli/tools_lowercase.png","286"
"html-button-response-mod","296","1901347","0.0-296.0","73555","","","","","","triplet","1045.5","","","","2","stimuli/stim011_animate_face_3.png","stimuli/stim012_animate_face_4.png","stimuli/stim013_inanimate_boats_1.png","287"
"html-button-response-mod","297","1902707","0.0-297.0","73555","","","","","","triplet","857.9000000059605","","","","1","stimuli/stim007_animate_bird_3.png","stimuli/tools_lowercase.png","stimuli/stim008_animate_bird_4.png","288"
"html-button-response-mod","298","1904347","0.0-298.0","73555","","","","","","triplet","1138.3999999985099","","","","2","stimuli/stim012_animate_face_4.png","stimuli/stim009_animate_face_1.png","stimuli/stim013_inanimate_boats_1.png","289"
"html-button-response-mod","299","1906251","0.0-299.0","73555","","","","","","triplet","1402.7000000029802","","","","2","stimuli/face_lowercase.png","stimuli/face_uppercase.png","stimuli/stim010_animate_face_2.png","290"
"html-button-response-mod","300","1909612","0.0-300.0","73555","","","","","","triplet","2857.9000000059605","","","","0","stimuli/stim008_animate_bird_4.png","stimuli/boats_lowercase.png","stimuli/stim013_inanimate_boats_1.png","291"
"html-button-response-mod","301","1913083","0.0-301.0","73555","","","","","","triplet","2960","","","","1","stimuli/stim005_animate_bird_1.png","stimuli/stim011_animate_face_3.png","stimuli/stim003_animate_fish_3.png","292"
"html-button-response-mod","302","1915387","0.0-302.0","73555","","","","","","triplet","1793.6000000014901","","","","1","stimuli/stim016_inanimate_boats_4.png","stimuli/stim010_animate_face_2.png","stimuli/stim002_animate_fish_2.png","293"
"html-button-response-mod","303","1917059","0.0-303.0","73555","","","","","","triplet","1163.5","","","","1","stimuli/fish_uppercase.png","stimuli/stim009_animate_face_1.png","stimuli/face_uppercase.png","294"
"html-button-response-mod","304","1919204","0.0-304.0","73555","","","","","","triplet","1636.8999999985099","","","","0","stimuli/stim012_animate_face_4.png","stimuli/bird_lowercase.png","stimuli/stim001_animate_fish_1.png","295"
"html-button-response-mod","305","1921635","0.0-305.0","73555","","","","","","triplet","1915.8999999985099","","","","1","stimuli/fish_uppercase.png","stimuli/stim009_animate_face_1.png","stimuli/bird_lowercase.png","296"
"html-button-response-mod","306","1925004","0.0-306.0","73555","","","","","","triplet","2851.1999999955297","","","","0","stimuli/stim004_animate_fish_4.png","stimuli/stim023_inanimate_tools_3.png","stimuli/stim010_animate_face_2.png","297"
"html-button-response-mod","307","1927132","0.0-307.0","73555","","","","","","triplet","1626.3000000044703","","","","2","stimuli/stim008_animate_bird_4.png","stimuli/bird_uppercase.png","stimuli/stim019_inanimate_tree_3.png","298"
"html-button-response-mod","308","1928555","0.0-308.0","73555","","","","","","triplet","906.8000000044703","","","","2","stimuli/stim006_animate_bird_2.png","stimuli/stim005_animate_bird_1.png","stimuli/face_uppercase.png","299"
"html-button-response","309","1929732","0.0-309.0","73555","","","","","","break","660.3999999985099","<p>BREAK</p><p>Take a break for as long as you need</p><p>Click the button to continue</p>","0","","","","","",""
"html-button-response-mod","310","1933107","0.0-310.0","73555","","","","","","triplet","3374.7999999970198","","","","0","stimuli/tools_lowercase.png","stimuli/stim008_animate_bird_4.png","stimuli/stim005_animate_bird_1.png","300"
"html-button-response-mod","311","1934555","0.0-311.0","73555","","","","","","triplet","933.3000000044703","","","","2","stimuli/stim008_animate_bird_4.png","stimuli/stim007_animate_bird_3.png","stimuli/tree_uppercase.png","301"
"html-button-response-mod","312","1939427","0.0-312.0","73555","","","","","","triplet","4358.60000000149","","","","1","stimuli/tree_lowercase.png","stimuli/stim013_inanimate_boats_1.png","stimuli/stim024_inanimate_tools_4.png","302"
"html-button-response-mod","313","1940819","0.0-313.0","73555","","","","","","triplet","878","","","","2","stimuli/stim011_animate_face_3.png","stimuli/stim012_animate_face_4.png","stimuli/stim017_inanimate_tree_1.png","303"
"html-button-response-mod","314","1942379","0.0-314.0","73555","","","","","","triplet","1057.5","","","","1","stimuli/stim022_inanimate_tools_2.png","stimuli/bird_lowercase.png","stimuli/stim023_inanimate_tools_3.png","304"
"html-button-response-mod","315","1944395","0.0-315.0","73555","","","","","","triplet","1499.2000000029802","","","","2","stimuli/fish_uppercase.png","stimuli/boats_lowercase.png","stimuli/stim020_inanimate_tree_4.png","305"
"html-button-response-mod","316","1949580","0.0-316.0","73555","","","","","","triplet","4668.4000000059605","","","","1","stimuli/stim022_inanimate_tools_2.png","stimuli/stim002_animate_fish_2.png","stimuli/stim011_animate_face_3.png","306"
"html-button-response-mod","317","1951347","0.0-317.0","73555","","","","","","triplet","1254","","","","1","stimuli/stim005_animate_bird_1.png","stimuli/face_lowercase.png","stimuli/stim020_inanimate_tree_4.png","307"
"html-button-response-mod","318","1957148","0.0-318.0","73555","","","","","","triplet","5285.0999999940395","","","","1","stimuli/tools_lowercase.png","stimuli/fish_uppercase.png","stimuli/stim017_inanimate_tree_1.png","308"
"html-button-response-mod","319","1959412","0.0-319.0","73555","","","","","","triplet","1747","","","","0","stimuli/stim023_inanimate_tools_3.png","stimuli/bird_lowercase.png","stimuli/stim008_animate_bird_4.png","309"
"html-button-response-mod","320","1962108","0.0-320.0","73555","","","","","","triplet","2192.2000000029802","","","","1","stimuli/stim021_inanimate_tools_1.png","stimuli/face_lowercase.png","stimuli/boats_lowercase.png","310"
"html-button-response-mod","321","1966836","0.0-321.0","73555","","","","","","triplet","4223.29999999702","","","","1","stimuli/stim012_animate_face_4.png","stimuli/tools_uppercase.png","stimuli/stim007_animate_bird_3.png","311"
"html-button-response-mod","322","1972196","0.0-322.0","73555","","","","","","triplet","4857.5","","","","0","stimuli/stim013_inanimate_boats_1.png","stimuli/stim006_animate_bird_2.png","stimuli/stim003_animate_fish_3.png","312"
"html-button-response-mod","323","1974108","0.0-323.0","73555","","","","","","triplet","1410.3999999985099","","","","1","stimuli/bird_lowercase.png","stimuli/face_lowercase.png","stimuli/boats_uppercase.png","313"
"html-button-response-mod","324","1976372","0.0-324.0","73555","","","","","","triplet","1756.8999999985099","","","","2","stimuli/stim018_inanimate_tree_2.png","stimuli/stim011_animate_face_3.png","stimuli/stim002_animate_fish_2.png","314"
"html-button-response-mod","325","1978932","0.0-325.0","73555","","","","","","triplet","2054.7000000029802","","","","2","stimuli/stim006_animate_bird_2.png","stimuli/stim017_inanimate_tree_1.png","stimuli/boats_uppercase.png","315"
"html-button-response-mod","326","1981067","0.0-326.0","73555","","","","","","triplet","1621.1999999955297","","","","0","stimuli/stim021_inanimate_tools_1.png","stimuli/boats_lowercase.png","stimuli/stim005_animate_bird_1.png","316"
"html-button-response-mod","327","1987164","0.0-327.0","73555","","","","","","triplet","5593.5","","","","1","stimuli/stim007_animate_bird_3.png","stimuli/fish_uppercase.png","stimuli/boats_uppercase.png","317"
"html-button-response-mod","328","1989508","0.0-328.0","73555","","","","","","triplet","1842.5","","","","0","stimuli/tools_lowercase.png","stimuli/fish_uppercase.png","stimuli/stim014_inanimate_boats_2.png","318"
"html-button-response-mod","329","1993108","0.0-329.0","73555","","","","","","triplet","3084.6999999955297","","","","2","stimuli/stim015_inanimate_boats_3.png","stimuli/fish_uppercase.png","stimuli/stim006_animate_bird_2.png","319"
"html-button-response-mod","330","1997332","0.0-330.0","73555","","","","","","triplet","3719","","","","0","stimuli/stim011_animate_face_3.png","stimuli/stim020_inanimate_tree_4.png","stimuli/stim008_animate_bird_4.png","320"
"html-button-response-mod","331","2000044","0.0-331.0","73555","","","","","","triplet","2196.60000000149","","","","0","stimuli/stim022_inanimate_tools_2.png","stimuli/stim013_inanimate_boats_1.png","stimuli/bird_uppercase.png","321"
"html-button-response-mod","332","2003044","0.0-332.0","73555","","","","","","triplet","2495.1999999955297","","","","2","stimuli/stim006_animate_bird_2.png","stimuli/stim018_inanimate_tree_2.png","stimuli/boats_uppercase.png","322"
"html-button-response-mod","333","2006140","0.0-333.0","73555","","","","","","triplet","2585.39999999851","","","","2","stimuli/tools_lowercase.png","stimuli/boats_lowercase.png","stimuli/stim009_animate_face_1.png","323"
"html-button-response-mod","334","2010092","0.0-334.0","73555","","","","","","triplet","3450.5","","","","1","stimuli/stim015_inanimate_boats_3.png","stimuli/stim020_inanimate_tree_4.png","stimuli/fish_lowercase.png","324"
"html-button-response-mod","335","2011820","0.0-335.0","73555","","","","","","triplet","1220.8999999985099","","","","0","stimuli/tree_uppercase.png","stimuli/stim023_inanimate_tools_3.png","stimuli/tools_lowercase.png","325"
"html-button-response-mod","336","2016356","0.0-336.0","73555","","","","","","triplet","4034.10000000149","","","","0","stimuli/face_uppercase.png","stimuli/tools_lowercase.png","stimuli/stim006_animate_bird_2.png","326"
"html-button-response-mod","337","2018876","0.0-337.0","73555","","","","","","triplet","2017.3000000044703","","","","1","stimuli/stim021_inanimate_tools_1.png","stimuli/stim003_animate_fish_3.png","stimuli/stim022_inanimate_tools_2.png","327"
"html-button-response-mod","338","2020972","0.0-338.0","73555","","","","","","triplet","1590","","","","1","stimuli/stim024_inanimate_tools_4.png","stimuli/stim007_animate_bird_3.png","stimuli/tools_uppercase.png","328"
"html-button-response-mod","339","2023540","0.0-339.0","73555","","","","","","triplet","2051.60000000149","","","","2","stimuli/bird_lowercase.png","stimuli/boats_lowercase.png","stimuli/face_uppercase.png","329"
"html-button-response-mod","340","2025956","0.0-340.0","73555","","","","","","triplet","1910.8000000044703","","","","0","stimuli/stim013_inanimate_boats_1.png","stimuli/stim022_inanimate_tools_2.png","stimuli/stim020_inanimate_tree_4.png","330"
"html-button-response-mod","341","2027788","0.0-341.0","73555","","","","","","triplet","1324.7000000029802","","","","2","stimuli/face_uppercase.png","stimuli/stim011_animate_face_3.png","stimuli/stim024_inanimate_tools_4.png","331"
"html-button-response-mod","342","2029956","0.0-342.0","73555","","","","","","triplet","1661.5","","","","1","stimuli/bird_uppercase.png","stimuli/stim011_animate_face_3.png","stimuli/stim007_animate_bird_3.png","332"
"html-button-response-mod","343","2031572","0.0-343.0","73555","","","","","","triplet","1113.4000000059605","","","","1","stimuli/stim003_animate_fish_3.png","stimuli/stim009_animate_face_1.png","stimuli/stim002_animate_fish_2.png","333"
"html-button-response-mod","344","2033476","0.0-344.0","73555","","","","","","triplet","1402.5","","","","0","stimuli/stim009_animate_face_1.png","stimuli/fish_uppercase.png","stimuli/stim004_animate_fish_4.png","334"
"html-button-response-mod","345","2035044","0.0-345.0","73555","","","","","","triplet","1063.8999999985099","","","","0","stimuli/face_uppercase.png","stimuli/bird_uppercase.png","stimuli/stim007_animate_bird_3.png","335"
"html-button-response-mod","346","2036636","0.0-346.0","73555","","","","","","triplet","1084.8999999985099","","","","0","stimuli/stim002_animate_fish_2.png","stimuli/stim014_inanimate_boats_2.png","stimuli/boats_lowercase.png","336"
"html-button-response-mod","347","2040148","0.0-347.0","73555","","","","","","triplet","3010.10000000149","","","","2","stimuli/boats_uppercase.png","stimuli/fish_lowercase.png","stimuli/tree_uppercase.png","337"
"html-button-response-mod","348","2044340","0.0-348.0","73555","","","","","","triplet","3680.7999999970198","","","","0","stimuli/face_uppercase.png","stimuli/stim002_animate_fish_2.png","stimuli/stim008_animate_bird_4.png","338"
"html-button-response-mod","349","2046044","0.0-349.0","73555","","","","","","triplet","1202.2000000029802","","","","0","stimuli/fish_uppercase.png","stimuli/stim005_animate_bird_1.png","stimuli/stim006_animate_bird_2.png","339"
"html-button-response-mod","350","2049492","0.0-350.0","73555","","","","","","triplet","2947.2999999970198","","","","0","stimuli/stim010_animate_face_2.png","stimuli/tools_lowercase.png","stimuli/stim017_inanimate_tree_1.png","340"
"html-button-response-mod","351","2053452","0.0-351.0","73555","","","","","","triplet","3445.10000000149","","","","0","stimuli/stim013_inanimate_boats_1.png","stimuli/stim010_animate_face_2.png","stimuli/stim019_inanimate_tree_3.png","341"
"html-button-response-mod","352","2055452","0.0-352.0","73555","","","","","","triplet","1491.2999999970198","","","","2","stimuli/face_lowercase.png","stimuli/stim010_animate_face_2.png","stimuli/stim024_inanimate_tools_4.png","342"
"html-button-response-mod","353","2058012","0.0-353.0","73555","","","","","","triplet","2058.3000000044703","","","","1","stimuli/stim015_inanimate_boats_3.png","stimuli/tree_uppercase.png","stimuli/stim006_animate_bird_2.png","343"
"html-button-response-mod","354","2081444","0.0-354.0","73555","","","","","","triplet","22926.29999999702","","","","1","stimuli/fish_uppercase.png","stimuli/stim004_animate_fish_4.png","stimuli/fish_lowercase.png","344"
"html-button-response-mod","355","2087356","0.0-355.0","73555","","","","","","triplet","5410.10000000149","","","","2","stimuli/stim018_inanimate_tree_2.png","stimuli/stim019_inanimate_tree_3.png","stimuli/tree_lowercase.png","345"
"html-button-response-mod","356","2090996","0.0-356.0","73555","","","","","","triplet","3137.39999999851","","","","0","stimuli/stim008_animate_bird_4.png","stimuli/stim022_inanimate_tools_2.png","stimuli/tree_uppercase.png","346"
"html-button-response-mod","357","2092860","0.0-357.0","73555","","","","","","triplet","1351.9000000059605","","","","2","stimuli/stim007_animate_bird_3.png","stimuli/stim005_animate_bird_1.png","stimuli/stim011_animate_face_3.png","347"
"html-button-response-mod","358","2105076","0.0-358.0","73555","","","","","","triplet","11703","","","","0","stimuli/stim020_inanimate_tree_4.png","stimuli/stim008_animate_bird_4.png","stimuli/bird_lowercase.png","348"
"html-button-response-mod","359","2113556","0.0-359.0","73555","","","","","","triplet","7968.60000000149","","","","0","stimuli/face_lowercase.png","stimuli/stim004_animate_fish_4.png","stimuli/tree_uppercase.png","349"
"html-button-response","360","2114804","0.0-360.0","73555","","","","","","break","745.7000000029802","<p>BREAK</p><p>Take a break for as long as you need</p><p>Click the button to continue</p>","0","","","","","",""
"html-button-response-mod","361","2116108","0.0-361.0","73555","","","","","","triplet","1302.3999999985099","","","","2","stimuli/stim015_inanimate_boats_3.png","stimuli/stim016_inanimate_boats_4.png","stimuli/stim020_inanimate_tree_4.png","350"
"html-button-response-mod","362","2118020","0.0-362.0","73555","","","","","","triplet","1410.3000000044703","","","","1","stimuli/stim003_animate_fish_3.png","stimuli/stim024_inanimate_tools_4.png","stimuli/stim014_inanimate_boats_2.png","351"
"html-button-response-mod","363","2120948","0.0-363.0","73555","","","","","","triplet","2426.5","","","","2","stimuli/stim012_animate_face_4.png","stimuli/stim017_inanimate_tree_1.png","stimuli/fish_lowercase.png","352"
"html-button-response-mod","364","2128916","0.0-364.0","73555","","","","","","triplet","7463.80000000447","","","","0","stimuli/stim012_animate_face_4.png","stimuli/stim017_inanimate_tree_1.png","stimuli/stim023_inanimate_tools_3.png","353"
"html-button-response-mod","365","2135596","0.0-365.0","73555","","","","","","triplet","6176.60000000149","","","","1","stimuli/stim017_inanimate_tree_1.png","stimuli/stim022_inanimate_tools_2.png","stimuli/stim019_inanimate_tree_3.png","354"
"html-button-response-mod","366","2138700","0.0-366.0","73555","","","","","","triplet","2598.2000000029802","","","","2","stimuli/face_lowercase.png","stimuli/fish_lowercase.png","stimuli/stim018_inanimate_tree_2.png","355"
"html-button-response-mod","367","2149964","0.0-367.0","73555","","","","","","triplet","10754","","","","0","stimuli/stim019_inanimate_tree_3.png","stimuli/stim006_animate_bird_2.png","stimuli/stim005_animate_bird_1.png","356"
"html-button-response-mod","368","2153020","0.0-368.0","73555","","","","","","triplet","2554.5","","","","1","stimuli/bird_lowercase.png","stimuli/fish_uppercase.png","stimuli/stim006_animate_bird_2.png","357"
"html-button-response-mod","369","2154436","0.0-369.0","73555","","","","","","triplet","913.6000000014901","","","","0","stimuli/stim012_animate_face_4.png","stimuli/stim024_inanimate_tools_4.png","stimuli/stim021_inanimate_tools_1.png","358"
"html-button-response-mod","370","2162956","0.0-370.0","73555","","","","","","triplet","8019","","","","0","stimuli/stim020_inanimate_tree_4.png","stimuli/stim010_animate_face_2.png","stimuli/stim015_inanimate_boats_3.png","359"
"html-button-response-mod","371","2164940","0.0-371.0","73555","","","","","","triplet","1481.2000000029802","","","","0","stimuli/tree_lowercase.png","stimuli/stim020_inanimate_tree_4.png","stimuli/stim017_inanimate_tree_1.png","360"
"html-button-response-mod","372","2169940","0.0-372.0","73555","","","","","","triplet","4493.19999999553","","","","2","stimuli/stim023_inanimate_tools_3.png","stimuli/stim019_inanimate_tree_3.png","stimuli/stim003_animate_fish_3.png","361"
"html-button-response-mod","373","2171988","0.0-373.0","73555","","","","","","triplet","1546.3999999985099","","","","1","stimuli/boats_lowercase.png","stimuli/stim023_inanimate_tools_3.png","stimuli/stim016_inanimate_boats_4.png","362"
"html-button-response-mod","374","2174252","0.0-374.0","73555","","","","","","triplet","1752","","","","2","stimuli/stim003_animate_fish_3.png","stimuli/fish_uppercase.png","stimuli/tree_lowercase.png","363"
"html-button-response-mod","375","2176332","0.0-375.0","73555","","","","","","triplet","1578.2000000029802","","","","2","stimuli/stim021_inanimate_tools_1.png","stimuli/tools_uppercase.png","stimuli/stim007_animate_bird_3.png","364"
"html-button-response-mod","376","2178172","0.0-376.0","73555","","","","","","triplet","1330.8999999985099","","","","1","stimuli/bird_lowercase.png","stimuli/stim024_inanimate_tools_4.png","stimuli/stim006_animate_bird_2.png","365"
"html-button-response-mod","377","2179660","0.0-377.0","73555","","","","","","triplet","976","","","","1","stimuli/tools_lowercase.png","stimuli/stim001_animate_fish_1.png","stimuli/stim024_inanimate_tools_4.png","366"
"html-button-response-mod","378","2181436","0.0-378.0","73555","","","","","","triplet","1261.2000000029802","","","","0","stimuli/stim018_inanimate_tree_2.png","stimuli/stim004_animate_fish_4.png","stimuli/stim013_inanimate_boats_1.png","367"
"html-button-response-mod","379","2182772","0.0-379.0","73555","","","","","","triplet","831.3999999985099","","","","2","stimuli/stim020_inanimate_tree_4.png","stimuli/stim018_inanimate_tree_2.png","stimuli/stim002_animate_fish_2.png","368"
"html-button-response-mod","380","2187020","0.0-380.0","73555","","","","","","triplet","3746.39999999851","","","","2","stimuli/stim011_animate_face_3.png","stimuli/boats_uppercase.png","stimuli/bird_lowercase.png","369"
"html-button-response-mod","381","2193644","0.0-381.0","73555","","","","","","triplet","6119.5","","","","1","stimuli/stim008_animate_bird_4.png","stimuli/face_lowercase.png","stimuli/stim015_inanimate_boats_3.png","370"
"html-button-response-mod","382","2198188","0.0-382.0","73555","","","","","","triplet","4041.89999999851","","","","2","stimuli/stim003_animate_fish_3.png","stimuli/boats_uppercase.png","stimuli/tree_uppercase.png","371"
"html-button-response-mod","383","2201068","0.0-383.0","73555","","","","","","triplet","2377.5","","","","0","stimuli/stim024_inanimate_tools_4.png","stimuli/stim008_animate_bird_4.png","stimuli/tree_uppercase.png","372"
"html-button-response-mod","384","2202964","0.0-384.0","73555","","","","","","triplet","1381.6999999955297","","","","1","stimuli/stim009_animate_face_1.png","stimuli/stim019_inanimate_tree_3.png","stimuli/stim010_animate_face_2.png","373"
"html-button-response-mod","385","2208620","0.0-385.0","73555","","","","","","triplet","5152","","","","1","stimuli/stim006_animate_bird_2.png","stimuli/tools_lowercase.png","stimuli/tree_lowercase.png","374"
"html-button-response-mod","386","2210876","0.0-386.0","73555","","","","","","triplet","1751.6000000014901","","","","0","stimuli/stim023_inanimate_tools_3.png","stimuli/stim011_animate_face_3.png","stimuli/stim008_animate_bird_4.png","375"
"html-button-response-mod","387","2212956","0.0-387.0","73555","","","","","","triplet","1578.7000000029802","","","","1","stimuli/stim016_inanimate_boats_4.png","stimuli/stim018_inanimate_tree_2.png","stimuli/fish_lowercase.png","376"
"html-button-response-mod","388","2217276","0.0-388.0","73555","","","","","","triplet","3804.5","","","","0","stimuli/stim007_animate_bird_3.png","stimuli/tools_lowercase.png","stimuli/stim009_animate_face_1.png","377"
"html-button-response-mod","389","2219804","0.0-389.0","73555","","","","","","triplet","2012.5999999940395","","","","1","stimuli/face_uppercase.png","stimuli/stim001_animate_fish_1.png","stimuli/tree_uppercase.png","378"
"html-button-response-mod","390","2221868","0.0-390.0","73555","","","","","","triplet","1557.1999999955297","","","","0","stimuli/stim012_animate_face_4.png","stimuli/stim022_inanimate_tools_2.png","stimuli/stim018_inanimate_tree_2.png","379"
"html-button-response-mod","391","2225692","0.0-391.0","73555","","","","","","triplet","3316.2000000029802","","","","1","stimuli/fish_uppercase.png","stimuli/stim005_animate_bird_1.png","stimuli/stim002_animate_fish_2.png","380"
"html-button-response-mod","392","2238188","0.0-392.0","73555","","","","","","triplet","11992.69999999553","","","","0","stimuli/tools_lowercase.png","stimuli/fish_lowercase.png","stimuli/stim013_inanimate_boats_1.png","381"
"html-button-response-mod","393","2246924","0.0-393.0","73555","","","","","","triplet","8221.80000000447","","","","1","stimuli/stim016_inanimate_boats_4.png","stimuli/face_lowercase.png","stimuli/stim008_animate_bird_4.png","382"
"html-button-response-mod","394","2249116","0.0-394.0","73555","","","","","","triplet","1682.5","","","","1","stimuli/stim001_animate_fish_1.png","stimuli/face_lowercase.png","stimuli/stim013_inanimate_boats_1.png","383"
"html-button-response-mod","395","2252548","0.0-395.0","73555","","","","","","triplet","2927.8000000044703","","","","2","stimuli/stim001_animate_fish_1.png","stimuli/stim014_inanimate_boats_2.png","stimuli/stim019_inanimate_tree_3.png","384"
"html-button-response-mod","396","2254253","0.0-396.0","73555","","","","","","triplet","1200.1000000014901","","","","0","stimuli/boats_lowercase.png","stimuli/stim007_animate_bird_3.png","stimuli/stim008_animate_bird_4.png","385"
"html-button-response-mod","397","2256388","0.0-397.0","73555","","","","","","triplet","1634","","","","0","stimuli/stim008_animate_bird_4.png","stimuli/stim013_inanimate_boats_1.png","stimuli/stim012_animate_face_4.png","386"
"html-button-response-mod","398","2258085","0.0-398.0","73555","","","","","","triplet","1185.3999999985099","","","","2","stimuli/stim019_inanimate_tree_3.png","stimuli/stim007_animate_bird_3.png","stimuli/face_uppercase.png","387"
"html-button-response-mod","399","2259684","0.0-399.0","73555","","","","","","triplet","1093.8000000044703","","","","0","stimuli/stim021_inanimate_tools_1.png","stimuli/face_uppercase.png","stimuli/stim010_animate_face_2.png","388"
"html-button-response-mod","400","2261620","0.0-400.0","73555","","","","","","triplet","1422.8000000044703","","","","0","stimuli/stim005_animate_bird_1.png","stimuli/stim009_animate_face_1.png","stimuli/face_uppercase.png","389"
"html-button-response-mod","401","2265180","0.0-401.0","73555","","","","","","triplet","3057.60000000149","","","","0","stimuli/tools_uppercase.png","stimuli/stim005_animate_bird_1.png","stimuli/stim012_animate_face_4.png","390"
"html-button-response-mod","402","2277301","0.0-402.0","73555","","","","","","triplet","11618","","","","0","stimuli/stim024_inanimate_tools_4.png","stimuli/stim013_inanimate_boats_1.png","stimuli/bird_lowercase.png","391"
"html-button-response-mod","403","2285100","0.0-403.0","73555","","","","","","triplet","7296.9000000059605","","","","2","stimuli/fish_lowercase.png","stimuli/bird_lowercase.png","stimuli/face_lowercase.png","392"
"html-button-response-mod","404","2287420","0.0-404.0","73555","","","","","","triplet","1818.6000000014901","","","","1","stimuli/bird_lowercase.png","stimuli/stim013_inanimate_boats_1.png","stimuli/stim006_animate_bird_2.png","393"
"html-button-response-mod","405","2299021","0.0-405.0","73555","","","","","","triplet","11088.60000000149","","","","2","stimuli/bird_lowercase.png","stimuli/stim014_inanimate_boats_2.png","stimuli/tools_uppercase.png","394"
"html-button-response-mod","406","2300877","0.0-406.0","73555","","","","","","triplet","1347.3999999985099","","","","1","stimuli/stim019_inanimate_tree_3.png","stimuli/stim004_animate_fish_4.png","stimuli/stim022_inanimate_tools_2.png","395"
"html-button-response-mod","407","2302277","0.0-407.0","73555","","","","","","triplet","898.1999999955297","","","","1","stimuli/face_lowercase.png","stimuli/stim003_animate_fish_3.png","stimuli/stim009_animate_face_1.png","396"
"html-button-response-mod","408","2305516","0.0-408.0","73555","","","","","","triplet","2729.3000000044703","","","","0","stimuli/stim002_animate_fish_2.png","stimuli/stim009_animate_face_1.png","stimuli/stim006_animate_bird_2.png","397"
"html-button-response-mod","409","2308341","0.0-409.0","73555","","","","","","triplet","2319","","","","0","stimuli/stim006_animate_bird_2.png","stimuli/fish_uppercase.png","stimuli/stim014_inanimate_boats_2.png","398"
"html-button-response-mod","410","2310260","0.0-410.0","73555","","","","","","triplet","1418","","","","2","stimuli/fish_lowercase.png","stimuli/stim002_animate_fish_2.png","stimuli/face_lowercase.png","399"
"html-button-response","411","2311653","0.0-411.0","73555","","","","","","break","889.5","<p>BREAK</p><p>Take a break for as long as you need</p><p>Click the button to continue</p>","0","","","","","",""
"survey-text","412","2324164","0.0-412.0","73555","","","","","","data_patterns","12500.29999999702","","{""Q0"":""conceptual connections\n""}","","","","","",""
"survey-text","413","2326996","0.0-413.0","73555","","","","","","age_question","2830.10000000149","","{""Age"":""19""}","","","","","",""
"html-button-response","414","2329580","0.0-414.0","73555","","","","","","gender_question","2583","How would you like your gender to be recorded?","0","","","","","",""
"html-button-response","415","2331404","0.0-415.0","73555","","","","","","debrief","1822.8000000044703","<p> Thank you for participating in this experiment! </p><p> We are investigating the dimensions along which you perceive the world </p><p>The images were all sorted according to whether they are animate or not, and </p><p> whether they are text or images. We are comparing this to some neuroimaging data to see </p> how your conscious classification relates to how your brain classifies the objects automatically. </p>","0","2334371","","","","",""
