"trial_type","trial_index","time_elapsed","internal_node_id","subject","success","timeout","failed_images","failed_audio","failed_video","test_part","rt","stimulus","response","end_time","button_pressed","stim0","stim1","stim2","trialnr"
"pavlovia","0","7","0.0-0.0","76051","","","","","","","","","","","","","","",""
"preload","1","759","0.0-1.0","76051","true","false","[]","[]","[]","preload","","","","","","","","",""
"html-button-response","2","11205","0.0-2.0","76051","","","","","","","10445","<p>Welcome to the experiment. To begin, please read the following and press the button at the bottom of the screen.</p><p></p><p><strong>Project Name: A study on cognitive processes involved in visual perception</p></strong><p></p><p><strong>PARTICIPANT INFORMATION STATEMENT</strong></p><p></p><strong>(1) What is the study about?</strong><br>You are invited to participate in a study that investigates the cognitive processes involved in perceiving and recognizing visual stimuli.If you decide to participate, you will be asked to complete a task in which you will view pictures, letters, numbers, or words presented on a computer screen.<br><strong>(2) Who can participate?</strong><br>Anyone aged 18 years or over with access to a computer (not a phone/tablet)<br><strong>(3) Where is the study located?</strong><br>The study will be conducted in your browser<br><strong>(4) Who is carrying out the study?</strong><br>The study is being conducted by Sophia Shatek from the Computational Cognitive Neuroscience laboratory at the University of Sydney.<br><strong>(5) What does the study involve?</strong><br>In this study, you will be asked to perform tasks where you will see different stimuli appear on the computer screen.You will respond by pressing a key or using a computer mouse.<br><strong>(6) How much time will the study take?</strong><br>The study takes about 30 minutes<br><strong>(7)	Can I withdraw from the study?</strong><br>Being in this study is completely voluntary - you are not under any obligation to consent. You can withdraw at any time without having to give a reason and without penalty.<br><strong>(8) Will anyone else know the results?</strong><br>All aspects of the study, including results, will be strictly confidential and only the researchers will have access to information on participants.The results and data from the study may be submitted for publication or shared with other research labs, but individual participants will not be identifiable.<br><strong>(9) Will the study benefit me?</strong><br>You will be awarded 0.5 credits for your participation.<br><strong>(10) Can I tell other people about the study?</strong><br>Yes, please tell them to contact Dr Thomas Carlson by email at thomas.carlson@sydney.edu.au.<br><strong>(11) What if I require further information about the study or my involvement in it?</strong><br>When you have read this information, the investigator will discuss it with you further and answer any questions you may have.If you would like to know more at any stage, please feel free to contact Dr Thomas Carlson directly by email at thomas.carlson@sydney.edu.au.If you would like to be informed about the outcomes of the study, contact Dr Thomas Carlson directly by email at thomas.carlson@sydney.edu.au.<br><strong>(12) What if I have a complaint or any concerns?</strong><br>Any person with concerns or complaints about the conduct of a research study can contact The Manager,Human Ethics Administration, University of Sydney on +61 2 8627 8176 (Telephone); +61 2 8627 8177 (Facsimile) or ro.humanethics@sydney.edu.au (Email).</p><p></p><strong>By participating in this experiment, you consent to participate in this study and acknowledge that:</strong><br>1. The procedures required for the project and the times involved have been explained to me, and any questions I have about the project have been answered to my satisfaction.<br>2.	I have read the Above Information Statement and have been given the opportunity to discuss the information and my involvement in the project with the researcher/s.<br>3. I understand that allowing my data to be used in research reports is completely voluntary - I am not under any obligation to consent.<br>4. I understand that my involvement is strictly confidential. I understand that any research data gathered from the results of the study may be publishedhowever no information about me will be used in any way that is identifiable.</p><p></p>","0","","","","","",""
"html-button-response","3","13055","0.0-3.0","76051","","","","","","opening_instructions","1847.5","<p>In this experiment, you will see three images appear on the screen.</p><p>You need to click the 'odd one out', or the image </p><p>that LOOKS MOST DIFFERENT to the other two. </p><p>Just go with your intuition, don't spend too long thinking about each one.</p>","0","16730.399999976158","","","","",""
"html-button-response-mod","4","16929","0.0-4.0","76051","","","","","","triplet","3871.5","","","","0","stimuli/tools_lowercase.png","stimuli/stim002_animate_fish_2.png","stimuli/boats_uppercase.png","0"
"html-button-response-mod","5","20768","0.0-5.0","76051","","","","","","triplet","3336.9000000953674","","","","0","stimuli/stim024_inanimate_tools_4.png","stimuli/stim007_animate_bird_3.png","stimuli/stim003_animate_fish_3.png","1"
"html-button-response-mod","6","25328","0.0-6.0","76051","","","","","","triplet","4057.9000000953674","","","","0","stimuli/stim021_inanimate_tools_1.png","stimuli/stim014_inanimate_boats_2.png","stimuli/stim015_inanimate_boats_3.png","2"
"html-button-response-mod","7","28935","0.0-7.0","76051","","","","","","triplet","3091","","","","1","stimuli/stim008_animate_bird_4.png","stimuli/fish_uppercase.png","stimuli/stim019_inanimate_tree_3.png","3"
"html-button-response-mod","8","31990","0.0-8.0","76051","","","","","","triplet","2537.600000023842","","","","0","stimuli/stim011_animate_face_3.png","stimuli/stim003_animate_fish_3.png","stimuli/stim017_inanimate_tree_1.png","4"
"html-button-response-mod","9","35110","0.0-9.0","76051","","","","","","triplet","2603.2000000476837","","","","2","stimuli/bird_uppercase.png","stimuli/stim006_animate_bird_2.png","stimuli/stim016_inanimate_boats_4.png","5"
"html-button-response-mod","10","38186","0.0-10.0","76051","","","","","","triplet","2553.5","","","","2","stimuli/stim021_inanimate_tools_1.png","stimuli/stim017_inanimate_tree_1.png","stimuli/face_lowercase.png","6"
"html-button-response-mod","11","40189","0.0-11.0","76051","","","","","","triplet","1488.3000000715256","","","","1","stimuli/stim020_inanimate_tree_4.png","stimuli/stim016_inanimate_boats_4.png","stimuli/stim018_inanimate_tree_2.png","7"
"html-button-response-mod","12","42860","0.0-12.0","76051","","","","","","triplet","2156","","","","0","stimuli/face_uppercase.png","stimuli/stim007_animate_bird_3.png","stimuli/stim017_inanimate_tree_1.png","8"
"html-button-response-mod","13","45427","0.0-13.0","76051","","","","","","triplet","2049.399999976158","","","","1","stimuli/stim021_inanimate_tools_1.png","stimuli/boats_uppercase.png","stimuli/stim017_inanimate_tree_1.png","9"
"html-button-response-mod","14","48487","0.0-14.0","76051","","","","","","triplet","2538","","","","2","stimuli/stim015_inanimate_boats_3.png","stimuli/stim022_inanimate_tools_2.png","stimuli/stim011_animate_face_3.png","10"
"html-button-response-mod","15","66601","0.0-15.0","76051","","","","","","triplet","17597.299999952316","","","","1","stimuli/stim013_inanimate_boats_1.png","stimuli/face_lowercase.png","stimuli/stim020_inanimate_tree_4.png","11"
"html-button-response-mod","16","71824","0.0-16.0","76051","","","","","","triplet","4704.100000023842","","","","2","stimuli/boats_lowercase.png","stimuli/tools_lowercase.png","stimuli/stim021_inanimate_tools_1.png","12"
"html-button-response-mod","17","76449","0.0-17.0","76051","","","","","","triplet","4108.099999904633","","","","0","stimuli/stim023_inanimate_tools_3.png","stimuli/stim006_animate_bird_2.png","stimuli/stim012_animate_face_4.png","13"
"html-button-response-mod","18","78799","0.0-18.0","76051","","","","","","triplet","1833.1999999284744","","","","0","stimuli/stim010_animate_face_2.png","stimuli/stim003_animate_fish_3.png","stimuli/stim008_animate_bird_4.png","14"
"html-button-response-mod","19","80625","0.0-19.0","76051","","","","","","triplet","1303.0999999046326","","","","0","stimuli/stim009_animate_face_1.png","stimuli/stim019_inanimate_tree_3.png","stimuli/stim024_inanimate_tools_4.png","15"
"html-button-response-mod","20","82443","0.0-20.0","76051","","","","","","triplet","1301.2999999523163","","","","1","stimuli/boats_uppercase.png","stimuli/stim011_animate_face_3.png","stimuli/stim005_animate_bird_1.png","16"
"html-button-response-mod","21","84410","0.0-21.0","76051","","","","","","triplet","1450.3999999761581","","","","1","stimuli/stim006_animate_bird_2.png","stimuli/tools_lowercase.png","stimuli/stim003_animate_fish_3.png","17"
"html-button-response-mod","22","90443","0.0-22.0","76051","","","","","","triplet","5510.100000023842","","","","1","stimuli/stim024_inanimate_tools_4.png","stimuli/stim016_inanimate_boats_4.png","stimuli/stim012_animate_face_4.png","18"
"html-button-response-mod","23","92194","0.0-23.0","76051","","","","","","triplet","1235.2999999523163","","","","2","stimuli/stim020_inanimate_tree_4.png","stimuli/stim019_inanimate_tree_3.png","stimuli/stim005_animate_bird_1.png","19"
"html-button-response-mod","24","93929","0.0-24.0","76051","","","","","","triplet","1218.2000000476837","","","","1","stimuli/stim004_animate_fish_4.png","stimuli/stim009_animate_face_1.png","stimuli/stim006_animate_bird_2.png","20"
"html-button-response-mod","25","95966","0.0-25.0","76051","","","","","","triplet","1519.3999999761581","","","","1","stimuli/bird_lowercase.png","stimuli/stim020_inanimate_tree_4.png","stimuli/fish_uppercase.png","21"
"html-button-response-mod","26","99066","0.0-26.0","76051","","","","","","triplet","2576.7000000476837","","","","1","stimuli/stim009_animate_face_1.png","stimuli/stim004_animate_fish_4.png","stimuli/stim010_animate_face_2.png","22"
"html-button-response-mod","27","100881","0.0-27.0","76051","","","","","","triplet","1304.5999999046326","","","","2","stimuli/fish_uppercase.png","stimuli/bird_lowercase.png","stimuli/stim022_inanimate_tools_2.png","23"
"html-button-response-mod","28","103206","0.0-28.0","76051","","","","","","triplet","1804","","","","0","stimuli/bird_uppercase.png","stimuli/stim009_animate_face_1.png","stimuli/stim022_inanimate_tools_2.png","24"
"html-button-response-mod","29","106375","0.0-29.0","76051","","","","","","triplet","2652.2999999523163","","","","1","stimuli/stim021_inanimate_tools_1.png","stimuli/stim010_animate_face_2.png","stimuli/stim019_inanimate_tree_3.png","25"
"html-button-response-mod","30","113490","0.0-30.0","76051","","","","","","triplet","6596.899999976158","","","","2","stimuli/tree_uppercase.png","stimuli/stim004_animate_fish_4.png","stimuli/stim023_inanimate_tools_3.png","26"
"html-button-response-mod","31","115648","0.0-31.0","76051","","","","","","triplet","1640.8999999761581","","","","2","stimuli/stim002_animate_fish_2.png","stimuli/stim001_animate_fish_1.png","stimuli/boats_uppercase.png","27"
"html-button-response-mod","32","119189","0.0-32.0","76051","","","","","","triplet","3037.2000000476837","","","","2","stimuli/stim007_animate_bird_3.png","stimuli/stim010_animate_face_2.png","stimuli/tree_lowercase.png","28"
"html-button-response-mod","33","127323","0.0-33.0","76051","","","","","","triplet","7617","","","","0","stimuli/boats_lowercase.png","stimuli/stim012_animate_face_4.png","stimuli/stim017_inanimate_tree_1.png","29"
"html-button-response-mod","34","128940","0.0-34.0","76051","","","","","","triplet","1101","","","","2","stimuli/stim017_inanimate_tree_1.png","stimuli/stim021_inanimate_tools_1.png","stimuli/boats_lowercase.png","30"
"html-button-response-mod","35","132649","0.0-35.0","76051","","","","","","triplet","3206.899999976158","","","","2","stimuli/stim011_animate_face_3.png","stimuli/stim002_animate_fish_2.png","stimuli/bird_lowercase.png","31"
"html-button-response-mod","36","135076","0.0-36.0","76051","","","","","","triplet","1903.6000000238419","","","","2","stimuli/tools_lowercase.png","stimuli/boats_lowercase.png","stimuli/tree_uppercase.png","32"
"html-button-response-mod","37","140166","0.0-37.0","76051","","","","","","triplet","4573.799999952316","","","","1","stimuli/stim009_animate_face_1.png","stimuli/stim019_inanimate_tree_3.png","stimuli/stim013_inanimate_boats_1.png","33"
"html-button-response-mod","38","142154","0.0-38.0","76051","","","","","","triplet","1467.6000000238419","","","","0","stimuli/stim013_inanimate_boats_1.png","stimuli/stim009_animate_face_1.png","stimuli/stim011_animate_face_3.png","34"
"html-button-response-mod","39","145544","0.0-39.0","76051","","","","","","triplet","2874.8000000715256","","","","1","stimuli/stim008_animate_bird_4.png","stimuli/tools_lowercase.png","stimuli/stim021_inanimate_tools_1.png","35"
"html-button-response-mod","40","147904","0.0-40.0","76051","","","","","","triplet","1858.7999999523163","","","","2","stimuli/stim009_animate_face_1.png","stimuli/stim007_animate_bird_3.png","stimuli/face_lowercase.png","36"
"html-button-response-mod","41","159174","0.0-41.0","76051","","","","","","triplet","10752","","","","0","stimuli/tree_lowercase.png","stimuli/stim012_animate_face_4.png","stimuli/stim016_inanimate_boats_4.png","37"
"html-button-response-mod","42","162812","0.0-42.0","76051","","","","","","triplet","3124.5","","","","1","stimuli/stim021_inanimate_tools_1.png","stimuli/stim001_animate_fish_1.png","stimuli/tools_lowercase.png","38"
"html-button-response-mod","43","165116","0.0-43.0","76051","","","","","","triplet","1782.2000000476837","","","","1","stimuli/fish_lowercase.png","stimuli/stim017_inanimate_tree_1.png","stimuli/stim003_animate_fish_3.png","39"
"html-button-response-mod","44","172615","0.0-44.0","76051","","","","","","triplet","6975.200000047684","","","","0","stimuli/stim007_animate_bird_3.png","stimuli/bird_uppercase.png","stimuli/bird_lowercase.png","40"
"html-button-response-mod","45","175838","0.0-45.0","76051","","","","","","triplet","2705.5","","","","2","stimuli/bird_lowercase.png","stimuli/stim013_inanimate_boats_1.png","stimuli/stim022_inanimate_tools_2.png","41"
"html-button-response-mod","46","179197","0.0-46.0","76051","","","","","","triplet","2836.100000023842","","","","2","stimuli/fish_uppercase.png","stimuli/stim012_animate_face_4.png","stimuli/stim024_inanimate_tools_4.png","42"
"html-button-response-mod","47","181559","0.0-47.0","76051","","","","","","triplet","1845.1000000238419","","","","1","stimuli/stim004_animate_fish_4.png","stimuli/face_lowercase.png","stimuli/stim008_animate_bird_4.png","43"
"html-button-response-mod","48","185422","0.0-48.0","76051","","","","","","triplet","3351.899999976158","","","","1","stimuli/tree_uppercase.png","stimuli/boats_lowercase.png","stimuli/stim008_animate_bird_4.png","44"
"html-button-response-mod","49","187858","0.0-49.0","76051","","","","","","triplet","1920.1000000238419","","","","2","stimuli/stim019_inanimate_tree_3.png","stimuli/stim006_animate_bird_2.png","stimuli/stim010_animate_face_2.png","45"
"html-button-response-mod","50","191464","0.0-50.0","76051","","","","","","triplet","3099.600000023842","","","","2","stimuli/boats_uppercase.png","stimuli/face_uppercase.png","stimuli/stim012_animate_face_4.png","46"
"html-button-response-mod","51","194494","0.0-51.0","76051","","","","","","triplet","2527.600000023842","","","","2","stimuli/stim011_animate_face_3.png","stimuli/stim006_animate_bird_2.png","stimuli/stim016_inanimate_boats_4.png","47"
"html-button-response-mod","52","196163","0.0-52.0","76051","","","","","","triplet","1151.3000000715256","","","","1","stimuli/stim015_inanimate_boats_3.png","stimuli/tree_uppercase.png","stimuli/stim016_inanimate_boats_4.png","48"
"html-button-response-mod","53","202391","0.0-53.0","76051","","","","","","triplet","5713.100000023842","","","","0","stimuli/stim014_inanimate_boats_2.png","stimuli/boats_lowercase.png","stimuli/bird_lowercase.png","49"
"html-button-response","54","232278","0.0-54.0","76051","","","","","","break","29364.800000071526","<p>BREAK</p><p>Take a break for as long as you need</p><p>Click the button to continue</p>","0","","","","","",""
"html-button-response-mod","55","236630","0.0-55.0","76051","","","","","","triplet","4351.300000071526","","","","1","stimuli/stim018_inanimate_tree_2.png","stimuli/boats_lowercase.png","stimuli/stim021_inanimate_tools_1.png","50"
"html-button-response-mod","56","242310","0.0-56.0","76051","","","","","","triplet","5162.899999976158","","","","0","stimuli/stim024_inanimate_tools_4.png","stimuli/stim002_animate_fish_2.png","stimuli/stim009_animate_face_1.png","51"
"html-button-response-mod","57","244430","0.0-57.0","76051","","","","","","triplet","1603.6999999284744","","","","0","stimuli/face_lowercase.png","stimuli/stim020_inanimate_tree_4.png","stimuli/stim016_inanimate_boats_4.png","52"
"html-button-response-mod","58","246183","0.0-58.0","76051","","","","","","triplet","1235.1999999284744","","","","2","stimuli/stim008_animate_bird_4.png","stimuli/stim017_inanimate_tree_1.png","stimuli/tools_lowercase.png","53"
"html-button-response-mod","59","250727","0.0-59.0","76051","","","","","","triplet","4022.899999976158","","","","0","stimuli/face_uppercase.png","stimuli/fish_lowercase.png","stimuli/stim013_inanimate_boats_1.png","54"
"html-button-response-mod","60","255467","0.0-60.0","76051","","","","","","triplet","4224.100000023842","","","","1","stimuli/stim005_animate_bird_1.png","stimuli/fish_lowercase.png","stimuli/stim019_inanimate_tree_3.png","55"
"html-button-response-mod","61","258095","0.0-61.0","76051","","","","","","triplet","2111.5","","","","1","stimuli/stim018_inanimate_tree_2.png","stimuli/tools_uppercase.png","stimuli/stim013_inanimate_boats_1.png","56"
"html-button-response-mod","62","260529","0.0-62.0","76051","","","","","","triplet","1924.6999999284744","","","","2","stimuli/stim007_animate_bird_3.png","stimuli/stim024_inanimate_tools_4.png","stimuli/face_lowercase.png","57"
"html-button-response-mod","63","263181","0.0-63.0","76051","","","","","","triplet","2149.899999976158","","","","2","stimuli/stim007_animate_bird_3.png","stimuli/stim012_animate_face_4.png","stimuli/stim024_inanimate_tools_4.png","58"
"html-button-response-mod","64","265286","0.0-64.0","76051","","","","","","triplet","1603.9000000953674","","","","0","stimuli/stim016_inanimate_boats_4.png","stimuli/stim008_animate_bird_4.png","stimuli/stim002_animate_fish_2.png","59"
"html-button-response-mod","65","269425","0.0-65.0","76051","","","","","","triplet","3623.5","","","","0","stimuli/bird_uppercase.png","stimuli/stim003_animate_fish_3.png","stimuli/stim023_inanimate_tools_3.png","60"
"html-button-response-mod","66","271493","0.0-66.0","76051","","","","","","triplet","1546.5999999046326","","","","0","stimuli/stim013_inanimate_boats_1.png","stimuli/stim005_animate_bird_1.png","stimuli/stim007_animate_bird_3.png","61"
"html-button-response-mod","67","273955","0.0-67.0","76051","","","","","","triplet","1956","","","","2","stimuli/stim024_inanimate_tools_4.png","stimuli/stim008_animate_bird_4.png","stimuli/tools_lowercase.png","62"
"html-button-response-mod","68","277441","0.0-68.0","76051","","","","","","triplet","2983.399999976158","","","","0","stimuli/stim024_inanimate_tools_4.png","stimuli/stim006_animate_bird_2.png","stimuli/stim002_animate_fish_2.png","63"
"html-button-response-mod","69","281103","0.0-69.0","76051","","","","","","triplet","3159.8000000715256","","","","1","stimuli/stim020_inanimate_tree_4.png","stimuli/tools_lowercase.png","stimuli/bird_lowercase.png","64"
"html-button-response-mod","70","283478","0.0-70.0","76051","","","","","","triplet","1857.9000000953674","","","","2","stimuli/tree_lowercase.png","stimuli/stim017_inanimate_tree_1.png","stimuli/stim012_animate_face_4.png","65"
"html-button-response-mod","71","287105","0.0-71.0","76051","","","","","","triplet","3109.600000023842","","","","0","stimuli/stim012_animate_face_4.png","stimuli/stim015_inanimate_boats_3.png","stimuli/stim004_animate_fish_4.png","66"
"html-button-response-mod","72","290471","0.0-72.0","76051","","","","","","triplet","2849.1999999284744","","","","0","stimuli/stim009_animate_face_1.png","stimuli/stim015_inanimate_boats_3.png","stimuli/stim024_inanimate_tools_4.png","67"
"html-button-response-mod","73","293096","0.0-73.0","76051","","","","","","triplet","2102.1999999284744","","","","1","stimuli/tools_uppercase.png","stimuli/tree_uppercase.png","stimuli/stim024_inanimate_tools_4.png","68"
"html-button-response-mod","74","297464","0.0-74.0","76051","","","","","","triplet","3851.3000000715256","","","","0","stimuli/stim021_inanimate_tools_1.png","stimuli/face_uppercase.png","stimuli/stim010_animate_face_2.png","69"
"html-button-response-mod","75","303027","0.0-75.0","76051","","","","","","triplet","5060","","","","0","stimuli/fish_lowercase.png","stimuli/boats_lowercase.png","stimuli/stim018_inanimate_tree_2.png","70"
"html-button-response-mod","76","306017","0.0-76.0","76051","","","","","","triplet","2473.7000000476837","","","","0","stimuli/stim009_animate_face_1.png","stimuli/stim019_inanimate_tree_3.png","stimuli/stim005_animate_bird_1.png","71"
"html-button-response-mod","77","308700","0.0-77.0","76051","","","","","","triplet","2166.5","","","","1","stimuli/stim009_animate_face_1.png","stimuli/stim024_inanimate_tools_4.png","stimuli/face_lowercase.png","72"
"html-button-response-mod","78","313029","0.0-78.0","76051","","","","","","triplet","3805.7999999523163","","","","1","stimuli/tools_uppercase.png","stimuli/stim020_inanimate_tree_4.png","stimuli/boats_uppercase.png","73"
"html-button-response-mod","79","317973","0.0-79.0","76051","","","","","","triplet","4427.299999952316","","","","0","stimuli/bird_uppercase.png","stimuli/stim021_inanimate_tools_1.png","stimuli/stim012_animate_face_4.png","74"
"html-button-response-mod","80","320211","0.0-80.0","76051","","","","","","triplet","1721","","","","0","stimuli/stim001_animate_fish_1.png","stimuli/tree_lowercase.png","stimuli/tools_uppercase.png","75"
"html-button-response-mod","81","324635","0.0-81.0","76051","","","","","","triplet","3911.7999999523163","","","","1","stimuli/stim007_animate_bird_3.png","stimuli/face_lowercase.png","stimuli/stim012_animate_face_4.png","76"
"html-button-response-mod","82","326361","0.0-82.0","76051","","","","","","triplet","1201.3000000715256","","","","0","stimuli/boats_lowercase.png","stimuli/stim013_inanimate_boats_1.png","stimuli/stim011_animate_face_3.png","77"
"html-button-response-mod","83","328464","0.0-83.0","76051","","","","","","triplet","1585.8999999761581","","","","1","stimuli/tools_uppercase.png","stimuli/stim017_inanimate_tree_1.png","stimuli/tree_lowercase.png","78"
"html-button-response-mod","84","331234","0.0-84.0","76051","","","","","","triplet","2253","","","","2","stimuli/stim021_inanimate_tools_1.png","stimuli/stim011_animate_face_3.png","stimuli/fish_lowercase.png","79"
"html-button-response-mod","85","333037","0.0-85.0","76051","","","","","","triplet","1286.7000000476837","","","","0","stimuli/face_lowercase.png","stimuli/stim015_inanimate_boats_3.png","stimuli/stim022_inanimate_tools_2.png","80"
"html-button-response-mod","86","334824","0.0-86.0","76051","","","","","","triplet","1269.7999999523163","","","","2","stimuli/stim009_animate_face_1.png","stimuli/stim012_animate_face_4.png","stimuli/bird_uppercase.png","81"
"html-button-response-mod","87","337614","0.0-87.0","76051","","","","","","triplet","2273.7000000476837","","","","2","stimuli/face_uppercase.png","stimuli/bird_uppercase.png","stimuli/stim015_inanimate_boats_3.png","82"
"html-button-response-mod","88","339332","0.0-88.0","76051","","","","","","triplet","1201","","","","0","stimuli/bird_uppercase.png","stimuli/stim015_inanimate_boats_3.png","stimuli/stim012_animate_face_4.png","83"
"html-button-response-mod","89","341552","0.0-89.0","76051","","","","","","triplet","1703.8999999761581","","","","1","stimuli/stim020_inanimate_tree_4.png","stimuli/face_uppercase.png","stimuli/stim023_inanimate_tools_3.png","84"
"html-button-response-mod","90","343810","0.0-90.0","76051","","","","","","triplet","1741.5","","","","2","stimuli/stim017_inanimate_tree_1.png","stimuli/stim020_inanimate_tree_4.png","stimuli/stim011_animate_face_3.png","85"
"html-button-response-mod","91","347049","0.0-91.0","76051","","","","","","triplet","2721.600000023842","","","","0","stimuli/stim009_animate_face_1.png","stimuli/stim022_inanimate_tools_2.png","stimuli/stim006_animate_bird_2.png","86"
"html-button-response-mod","92","348706","0.0-92.0","76051","","","","","","triplet","1155","","","","0","stimuli/bird_uppercase.png","stimuli/stim004_animate_fish_4.png","stimuli/stim019_inanimate_tree_3.png","87"
"html-button-response-mod","93","350657","0.0-93.0","76051","","","","","","triplet","1448.8999999761581","","","","0","stimuli/stim014_inanimate_boats_2.png","stimuli/stim006_animate_bird_2.png","stimuli/stim001_animate_fish_1.png","88"
"html-button-response-mod","94","352514","0.0-94.0","76051","","","","","","triplet","1340.2000000476837","","","","2","stimuli/stim019_inanimate_tree_3.png","stimuli/stim003_animate_fish_3.png","stimuli/tree_lowercase.png","89"
"html-button-response-mod","95","355050","0.0-95.0","76051","","","","","","triplet","2019.8999999761581","","","","0","stimuli/stim010_animate_face_2.png","stimuli/face_lowercase.png","stimuli/boats_uppercase.png","90"
"html-button-response-mod","96","356801","0.0-96.0","76051","","","","","","triplet","1248.7000000476837","","","","0","stimuli/boats_uppercase.png","stimuli/stim002_animate_fish_2.png","stimuli/stim005_animate_bird_1.png","91"
"html-button-response-mod","97","358489","0.0-97.0","76051","","","","","","triplet","1185","","","","1","stimuli/stim017_inanimate_tree_1.png","stimuli/tree_uppercase.png","stimuli/stim015_inanimate_boats_3.png","92"
"html-button-response-mod","98","360110","0.0-98.0","76051","","","","","","triplet","1103.7999999523163","","","","1","stimuli/stim004_animate_fish_4.png","stimuli/stim018_inanimate_tree_2.png","stimuli/stim013_inanimate_boats_1.png","93"
"html-button-response-mod","99","362266","0.0-99.0","76051","","","","","","triplet","1633.5","","","","1","stimuli/bird_uppercase.png","stimuli/stim020_inanimate_tree_4.png","stimuli/stim008_animate_bird_4.png","94"
"html-button-response-mod","100","363769","0.0-100.0","76051","","","","","","triplet","986","","","","1","stimuli/stim011_animate_face_3.png","stimuli/face_lowercase.png","stimuli/stim002_animate_fish_2.png","95"
"html-button-response-mod","101","365756","0.0-101.0","76051","","","","","","triplet","1469.5","","","","0","stimuli/tools_lowercase.png","stimuli/stim017_inanimate_tree_1.png","stimuli/stim019_inanimate_tree_3.png","96"
"html-button-response-mod","102","367391","0.0-102.0","76051","","","","","","triplet","1132.3999999761581","","","","1","stimuli/stim009_animate_face_1.png","stimuli/tools_uppercase.png","stimuli/stim015_inanimate_boats_3.png","97"
"html-button-response-mod","103","369047","0.0-103.0","76051","","","","","","triplet","1154.7000000476837","","","","0","stimuli/face_lowercase.png","stimuli/stim010_animate_face_2.png","stimuli/stim016_inanimate_boats_4.png","98"
"html-button-response-mod","104","371167","0.0-104.0","76051","","","","","","triplet","1606.5999999046326","","","","1","stimuli/stim011_animate_face_3.png","stimuli/bird_uppercase.png","stimuli/boats_lowercase.png","99"
"html-button-response","105","445918","0.0-105.0","76051","","","","","","break","74234.20000004768","<p>BREAK</p><p>Take a break for as long as you need</p><p>Click the button to continue</p>","0","","","","","",""
"html-button-response-mod","106","447352","0.0-106.0","76051","","","","","","triplet","1432.8000000715256","","","","2","stimuli/stim005_animate_bird_1.png","stimuli/stim008_animate_bird_4.png","stimuli/stim002_animate_fish_2.png","100"
"html-button-response-mod","107","467916","0.0-107.0","76051","","","","","","triplet","20047.200000047684","","","","0","stimuli/stim001_animate_fish_1.png","stimuli/face_uppercase.png","stimuli/tools_lowercase.png","101"
"html-button-response-mod","108","471769","0.0-108.0","76051","","","","","","triplet","3340.7000000476837","","","","0","stimuli/stim010_animate_face_2.png","stimuli/stim015_inanimate_boats_3.png","stimuli/stim002_animate_fish_2.png","102"
"html-button-response-mod","109","473358","0.0-109.0","76051","","","","","","triplet","1087.1000000238419","","","","1","stimuli/fish_uppercase.png","stimuli/stim007_animate_bird_3.png","stimuli/bird_uppercase.png","103"
"html-button-response-mod","110","475615","0.0-110.0","76051","","","","","","triplet","1754.8999999761581","","","","2","stimuli/stim008_animate_bird_4.png","stimuli/stim002_animate_fish_2.png","stimuli/boats_lowercase.png","104"
"html-button-response-mod","111","477054","0.0-111.0","76051","","","","","","triplet","936.7000000476837","","","","2","stimuli/stim014_inanimate_boats_2.png","stimuli/stim012_animate_face_4.png","stimuli/tools_uppercase.png","105"
"html-button-response-mod","112","478903","0.0-112.0","76051","","","","","","triplet","1338.7000000476837","","","","2","stimuli/face_uppercase.png","stimuli/tree_uppercase.png","stimuli/stim004_animate_fish_4.png","106"
"html-button-response-mod","113","481882","0.0-113.0","76051","","","","","","triplet","2464.2999999523163","","","","0","stimuli/boats_uppercase.png","stimuli/tree_uppercase.png","stimuli/tree_lowercase.png","107"
"html-button-response-mod","114","486817","0.0-114.0","76051","","","","","","triplet","4423.099999904633","","","","2","stimuli/stim002_animate_fish_2.png","stimuli/stim024_inanimate_tools_4.png","stimuli/stim010_animate_face_2.png","108"
"html-button-response-mod","115","488617","0.0-115.0","76051","","","","","","triplet","1287.1000000238419","","","","0","stimuli/face_uppercase.png","stimuli/stim005_animate_bird_1.png","stimuli/stim021_inanimate_tools_1.png","109"
"html-button-response-mod","116","490068","0.0-116.0","76051","","","","","","triplet","940.0999999046326","","","","0","stimuli/face_uppercase.png","stimuli/stim023_inanimate_tools_3.png","stimuli/stim004_animate_fish_4.png","110"
"html-button-response-mod","117","491975","0.0-117.0","76051","","","","","","triplet","1396.3999999761581","","","","2","stimuli/bird_lowercase.png","stimuli/fish_uppercase.png","stimuli/stim006_animate_bird_2.png","111"
"html-button-response-mod","118","493801","0.0-118.0","76051","","","","","","triplet","1314.8999999761581","","","","1","stimuli/stim021_inanimate_tools_1.png","stimuli/boats_lowercase.png","stimuli/stim002_animate_fish_2.png","112"
"html-button-response-mod","119","495351","0.0-119.0","76051","","","","","","triplet","1037.2999999523163","","","","1","stimuli/stim003_animate_fish_3.png","stimuli/bird_uppercase.png","stimuli/stim016_inanimate_boats_4.png","113"
"html-button-response-mod","120","497568","0.0-120.0","76051","","","","","","triplet","1704.7000000476837","","","","2","stimuli/fish_uppercase.png","stimuli/face_uppercase.png","stimuli/stim018_inanimate_tree_2.png","114"
"html-button-response-mod","121","499495","0.0-121.0","76051","","","","","","triplet","1414","","","","2","stimuli/boats_lowercase.png","stimuli/tools_lowercase.png","stimuli/stim018_inanimate_tree_2.png","115"
"html-button-response-mod","122","501711","0.0-122.0","76051","","","","","","triplet","1704.1000000238419","","","","1","stimuli/fish_lowercase.png","stimuli/stim010_animate_face_2.png","stimuli/stim024_inanimate_tools_4.png","116"
"html-button-response-mod","123","506547","0.0-123.0","76051","","","","","","triplet","4324.900000095367","","","","2","stimuli/stim017_inanimate_tree_1.png","stimuli/stim021_inanimate_tools_1.png","stimuli/tools_uppercase.png","117"
"html-button-response-mod","124","509165","0.0-124.0","76051","","","","","","triplet","2104.100000023842","","","","2","stimuli/stim005_animate_bird_1.png","stimuli/stim007_animate_bird_3.png","stimuli/stim017_inanimate_tree_1.png","118"
"html-button-response-mod","125","510916","0.0-125.0","76051","","","","","","triplet","1239.3000000715256","","","","2","stimuli/stim020_inanimate_tree_4.png","stimuli/stim015_inanimate_boats_3.png","stimuli/bird_uppercase.png","119"
"html-button-response-mod","126","513254","0.0-126.0","76051","","","","","","triplet","1822.6000000238419","","","","2","stimuli/stim024_inanimate_tools_4.png","stimuli/bird_lowercase.png","stimuli/face_uppercase.png","120"
"html-button-response-mod","127","514927","0.0-127.0","76051","","","","","","triplet","1170.8000000715256","","","","2","stimuli/stim003_animate_fish_3.png","stimuli/stim023_inanimate_tools_3.png","stimuli/face_uppercase.png","121"
"html-button-response-mod","128","516802","0.0-128.0","76051","","","","","","triplet","1363.3999999761581","","","","1","stimuli/stim024_inanimate_tools_4.png","stimuli/stim018_inanimate_tree_2.png","stimuli/stim013_inanimate_boats_1.png","122"
"html-button-response-mod","129","520118","0.0-129.0","76051","","","","","","triplet","2803.899999976158","","","","2","stimuli/stim020_inanimate_tree_4.png","stimuli/stim011_animate_face_3.png","stimuli/tools_uppercase.png","123"
"html-button-response-mod","130","522692","0.0-130.0","76051","","","","","","triplet","2061.4000000953674","","","","2","stimuli/stim020_inanimate_tree_4.png","stimuli/stim005_animate_bird_1.png","stimuli/stim012_animate_face_4.png","124"
"html-button-response-mod","131","524317","0.0-131.0","76051","","","","","","triplet","1113.5","","","","1","stimuli/stim018_inanimate_tree_2.png","stimuli/boats_uppercase.png","stimuli/stim009_animate_face_1.png","125"
"html-button-response-mod","132","526070","0.0-132.0","76051","","","","","","triplet","1241.1000000238419","","","","2","stimuli/stim017_inanimate_tree_1.png","stimuli/stim015_inanimate_boats_3.png","stimuli/stim002_animate_fish_2.png","126"
"html-button-response-mod","133","527745","0.0-133.0","76051","","","","","","triplet","1162.1000000238419","","","","1","stimuli/stim001_animate_fish_1.png","stimuli/stim024_inanimate_tools_4.png","stimuli/stim002_animate_fish_2.png","127"
"html-button-response-mod","134","529430","0.0-134.0","76051","","","","","","triplet","1175.1000000238419","","","","0","stimuli/bird_uppercase.png","stimuli/stim001_animate_fish_1.png","stimuli/stim012_animate_face_4.png","128"
"html-button-response-mod","135","531629","0.0-135.0","76051","","","","","","triplet","1688.1999999284744","","","","0","stimuli/stim016_inanimate_boats_4.png","stimuli/stim007_animate_bird_3.png","stimuli/stim001_animate_fish_1.png","129"
"html-button-response-mod","136","533336","0.0-136.0","76051","","","","","","triplet","1193.7999999523163","","","","2","stimuli/stim005_animate_bird_1.png","stimuli/stim017_inanimate_tree_1.png","stimuli/tree_uppercase.png","130"
"html-button-response-mod","137","534840","0.0-137.0","76051","","","","","","triplet","991.1000000238419","","","","2","stimuli/stim023_inanimate_tools_3.png","stimuli/stim007_animate_bird_3.png","stimuli/bird_uppercase.png","131"
"html-button-response-mod","138","537214","0.0-138.0","76051","","","","","","triplet","1860.6000000238419","","","","2","stimuli/stim015_inanimate_boats_3.png","stimuli/stim013_inanimate_boats_1.png","stimuli/stim002_animate_fish_2.png","132"
"html-button-response-mod","139","538825","0.0-139.0","76051","","","","","","triplet","1101.3000000715256","","","","2","stimuli/stim019_inanimate_tree_3.png","stimuli/stim014_inanimate_boats_2.png","stimuli/tools_uppercase.png","133"
"html-button-response-mod","140","542648","0.0-140.0","76051","","","","","","triplet","3309.8000000715256","","","","2","stimuli/boats_lowercase.png","stimuli/bird_uppercase.png","stimuli/face_lowercase.png","134"
"html-button-response-mod","141","544755","0.0-141.0","76051","","","","","","triplet","1595","","","","0","stimuli/stim014_inanimate_boats_2.png","stimuli/boats_lowercase.png","stimuli/face_uppercase.png","135"
"html-button-response-mod","142","548695","0.0-142.0","76051","","","","","","triplet","3429.7000000476837","","","","1","stimuli/stim020_inanimate_tree_4.png","stimuli/stim021_inanimate_tools_1.png","stimuli/stim001_animate_fish_1.png","136"
"html-button-response-mod","143","550898","0.0-143.0","76051","","","","","","triplet","1686.5","","","","0","stimuli/tree_lowercase.png","stimuli/stim009_animate_face_1.png","stimuli/stim008_animate_bird_4.png","137"
"html-button-response-mod","144","554579","0.0-144.0","76051","","","","","","triplet","3164.7000000476837","","","","0","stimuli/stim021_inanimate_tools_1.png","stimuli/stim014_inanimate_boats_2.png","stimuli/stim017_inanimate_tree_1.png","138"
"html-button-response-mod","145","556141","0.0-145.0","76051","","","","","","triplet","1051.3000000715256","","","","1","stimuli/stim007_animate_bird_3.png","stimuli/tree_uppercase.png","stimuli/stim017_inanimate_tree_1.png","139"
"html-button-response-mod","146","557630","0.0-146.0","76051","","","","","","triplet","976.1000000238419","","","","0","stimuli/stim020_inanimate_tree_4.png","stimuli/stim012_animate_face_4.png","stimuli/stim008_animate_bird_4.png","140"
"html-button-response-mod","147","559337","0.0-147.0","76051","","","","","","triplet","1193.6000000238419","","","","0","stimuli/stim017_inanimate_tree_1.png","stimuli/stim008_animate_bird_4.png","stimuli/stim015_inanimate_boats_3.png","141"
"html-button-response-mod","148","560823","0.0-148.0","76051","","","","","","triplet","975.8000000715256","","","","0","stimuli/stim012_animate_face_4.png","stimuli/stim018_inanimate_tree_2.png","stimuli/stim024_inanimate_tools_4.png","142"
"html-button-response-mod","149","562822","0.0-149.0","76051","","","","","","triplet","1487.3999999761581","","","","2","stimuli/stim017_inanimate_tree_1.png","stimuli/stim012_animate_face_4.png","stimuli/stim004_animate_fish_4.png","143"
"html-button-response-mod","150","564913","0.0-150.0","76051","","","","","","triplet","1578.3999999761581","","","","0","stimuli/stim010_animate_face_2.png","stimuli/face_uppercase.png","stimuli/boats_uppercase.png","144"
"html-button-response-mod","151","566587","0.0-151.0","76051","","","","","","triplet","1162.8999999761581","","","","2","stimuli/face_lowercase.png","stimuli/fish_lowercase.png","stimuli/stim009_animate_face_1.png","145"
"html-button-response-mod","152","571007","0.0-152.0","76051","","","","","","triplet","3908.2999999523163","","","","2","stimuli/stim013_inanimate_boats_1.png","stimuli/stim015_inanimate_boats_3.png","stimuli/stim007_animate_bird_3.png","146"
"html-button-response-mod","153","574011","0.0-153.0","76051","","","","","","triplet","2488.3000000715256","","","","0","stimuli/stim024_inanimate_tools_4.png","stimuli/stim015_inanimate_boats_3.png","stimuli/stim001_animate_fish_1.png","147"
"html-button-response-mod","154","575653","0.0-154.0","76051","","","","","","triplet","1129.2999999523163","","","","0","stimuli/stim012_animate_face_4.png","stimuli/stim008_animate_bird_4.png","stimuli/stim002_animate_fish_2.png","148"
"html-button-response-mod","155","578121","0.0-155.0","76051","","","","","","triplet","1954.5","","","","0","stimuli/stim010_animate_face_2.png","stimuli/stim005_animate_bird_1.png","stimuli/stim018_inanimate_tree_2.png","149"
"html-button-response","156","581593","0.0-156.0","76051","","","","","","break","2961","<p>BREAK</p><p>Take a break for as long as you need</p><p>Click the button to continue</p>","0","","","","","",""
"html-button-response-mod","157","583380","0.0-157.0","76051","","","","","","triplet","1785.2999999523163","","","","1","stimuli/stim020_inanimate_tree_4.png","stimuli/stim022_inanimate_tools_2.png","stimuli/stim010_animate_face_2.png","150"
"html-button-response-mod","158","586154","0.0-158.0","76051","","","","","","triplet","2262.6999999284744","","","","0","stimuli/stim019_inanimate_tree_3.png","stimuli/bird_uppercase.png","stimuli/tree_lowercase.png","151"
"html-button-response-mod","159","587876","0.0-159.0","76051","","","","","","triplet","1209.3999999761581","","","","0","stimuli/tools_uppercase.png","stimuli/stim023_inanimate_tools_3.png","stimuli/stim014_inanimate_boats_2.png","152"
"html-button-response-mod","160","589459","0.0-160.0","76051","","","","","","triplet","1069.7000000476837","","","","1","stimuli/stim020_inanimate_tree_4.png","stimuli/tree_lowercase.png","stimuli/stim009_animate_face_1.png","153"
"html-button-response-mod","161","590758","0.0-161.0","76051","","","","","","triplet","789.5","","","","1","stimuli/stim016_inanimate_boats_4.png","stimuli/face_uppercase.png","stimuli/stim007_animate_bird_3.png","154"
"html-button-response-mod","162","592430","0.0-162.0","76051","","","","","","triplet","1159.4000000953674","","","","2","stimuli/stim019_inanimate_tree_3.png","stimuli/stim023_inanimate_tools_3.png","stimuli/tree_uppercase.png","155"
"html-button-response-mod","163","594089","0.0-163.0","76051","","","","","","triplet","1147.6000000238419","","","","2","stimuli/face_uppercase.png","stimuli/tools_uppercase.png","stimuli/stim018_inanimate_tree_2.png","156"
"html-button-response-mod","164","595903","0.0-164.0","76051","","","","","","triplet","1304.4000000953674","","","","0","stimuli/stim008_animate_bird_4.png","stimuli/fish_lowercase.png","stimuli/face_lowercase.png","157"
"html-button-response-mod","165","597794","0.0-165.0","76051","","","","","","triplet","1379.8999999761581","","","","0","stimuli/face_lowercase.png","stimuli/stim010_animate_face_2.png","stimuli/stim018_inanimate_tree_2.png","158"
"html-button-response-mod","166","599950","0.0-166.0","76051","","","","","","triplet","1644.1000000238419","","","","1","stimuli/tree_lowercase.png","stimuli/stim009_animate_face_1.png","stimuli/stim016_inanimate_boats_4.png","159"
"html-button-response-mod","167","601735","0.0-167.0","76051","","","","","","triplet","1271.6000000238419","","","","2","stimuli/stim010_animate_face_2.png","stimuli/stim015_inanimate_boats_3.png","stimuli/stim003_animate_fish_3.png","160"
"html-button-response-mod","168","602878","0.0-168.0","76051","","","","","","triplet","634.2999999523163","","","","0","stimuli/stim012_animate_face_4.png","stimuli/stim018_inanimate_tree_2.png","stimuli/stim010_animate_face_2.png","161"
"html-button-response-mod","169","604258","0.0-169.0","76051","","","","","","triplet","867.8999999761581","","","","2","stimuli/stim012_animate_face_4.png","stimuli/bird_uppercase.png","stimuli/stim003_animate_fish_3.png","162"
"html-button-response-mod","170","605374","0.0-170.0","76051","","","","","","triplet","613.5","","","","0","stimuli/tools_uppercase.png","stimuli/stim021_inanimate_tools_1.png","stimuli/tree_lowercase.png","163"
"html-button-response-mod","171","607079","0.0-171.0","76051","","","","","","triplet","1192.1000000238419","","","","1","stimuli/stim018_inanimate_tree_2.png","stimuli/tools_uppercase.png","stimuli/stim006_animate_bird_2.png","164"
"html-button-response-mod","172","608740","0.0-172.0","76051","","","","","","triplet","1150","","","","2","stimuli/stim024_inanimate_tools_4.png","stimuli/stim013_inanimate_boats_1.png","stimuli/stim017_inanimate_tree_1.png","165"
"html-button-response-mod","173","610658","0.0-173.0","76051","","","","","","triplet","1406.3000000715256","","","","2","stimuli/stim017_inanimate_tree_1.png","stimuli/stim006_animate_bird_2.png","stimuli/tree_lowercase.png","166"
"html-button-response-mod","174","613770","0.0-174.0","76051","","","","","","triplet","2596.5","","","","1","stimuli/stim006_animate_bird_2.png","stimuli/fish_uppercase.png","stimuli/face_lowercase.png","167"
"html-button-response-mod","175","615430","0.0-175.0","76051","","","","","","triplet","1147.2999999523163","","","","2","stimuli/boats_uppercase.png","stimuli/fish_lowercase.png","stimuli/stim015_inanimate_boats_3.png","168"
"html-button-response-mod","176","617278","0.0-176.0","76051","","","","","","triplet","1333.6000000238419","","","","2","stimuli/stim019_inanimate_tree_3.png","stimuli/stim014_inanimate_boats_2.png","stimuli/stim012_animate_face_4.png","169"
"html-button-response-mod","177","618655","0.0-177.0","76051","","","","","","triplet","864.2000000476837","","","","0","stimuli/bird_lowercase.png","stimuli/stim005_animate_bird_1.png","stimuli/stim008_animate_bird_4.png","170"
"html-button-response-mod","178","620611","0.0-178.0","76051","","","","","","triplet","1447","","","","2","stimuli/stim007_animate_bird_3.png","stimuli/boats_uppercase.png","stimuli/bird_lowercase.png","171"
"html-button-response-mod","179","622674","0.0-179.0","76051","","","","","","triplet","1552.2999999523163","","","","0","stimuli/tree_lowercase.png","stimuli/stim023_inanimate_tools_3.png","stimuli/stim003_animate_fish_3.png","172"
"html-button-response-mod","180","624609","0.0-180.0","76051","","","","","","triplet","1422.6000000238419","","","","1","stimuli/tools_lowercase.png","stimuli/stim005_animate_bird_1.png","stimuli/bird_uppercase.png","173"
"html-button-response-mod","181","626130","0.0-181.0","76051","","","","","","triplet","1010.2000000476837","","","","2","stimuli/stim004_animate_fish_4.png","stimuli/stim014_inanimate_boats_2.png","stimuli/face_uppercase.png","174"
"html-button-response-mod","182","628464","0.0-182.0","76051","","","","","","triplet","1824.5","","","","0","stimuli/stim023_inanimate_tools_3.png","stimuli/stim003_animate_fish_3.png","stimuli/stim014_inanimate_boats_2.png","175"
"html-button-response-mod","183","630042","0.0-183.0","76051","","","","","","triplet","1067.2000000476837","","","","0","stimuli/fish_lowercase.png","stimuli/stim001_animate_fish_1.png","stimuli/stim005_animate_bird_1.png","176"
"html-button-response-mod","184","631556","0.0-184.0","76051","","","","","","triplet","998.7999999523163","","","","1","stimuli/stim004_animate_fish_4.png","stimuli/boats_lowercase.png","stimuli/stim024_inanimate_tools_4.png","177"
"html-button-response-mod","185","633557","0.0-185.0","76051","","","","","","triplet","1488.1000000238419","","","","1","stimuli/stim008_animate_bird_4.png","stimuli/stim018_inanimate_tree_2.png","stimuli/stim007_animate_bird_3.png","178"
"html-button-response-mod","186","635167","0.0-186.0","76051","","","","","","triplet","1099.1000000238419","","","","1","stimuli/stim002_animate_fish_2.png","stimuli/stim016_inanimate_boats_4.png","stimuli/stim017_inanimate_tree_1.png","179"
"html-button-response-mod","187","636963","0.0-187.0","76051","","","","","","triplet","1282","","","","2","stimuli/stim016_inanimate_boats_4.png","stimuli/stim007_animate_bird_3.png","stimuli/tools_uppercase.png","180"
"html-button-response-mod","188","638800","0.0-188.0","76051","","","","","","triplet","1325.2999999523163","","","","1","stimuli/fish_lowercase.png","stimuli/stim020_inanimate_tree_4.png","stimuli/boats_lowercase.png","181"
"html-button-response-mod","189","647074","0.0-189.0","76051","","","","","","triplet","7758.399999976158","","","","1","stimuli/stim005_animate_bird_1.png","stimuli/face_lowercase.png","stimuli/stim024_inanimate_tools_4.png","182"
"html-button-response-mod","190","648423","0.0-190.0","76051","","","","","","triplet","836.1999999284744","","","","1","stimuli/stim010_animate_face_2.png","stimuli/stim023_inanimate_tools_3.png","stimuli/boats_uppercase.png","183"
"html-button-response-mod","191","649771","0.0-191.0","76051","","","","","","triplet","837.5","","","","1","stimuli/stim011_animate_face_3.png","stimuli/tools_uppercase.png","stimuli/stim005_animate_bird_1.png","184"
"html-button-response-mod","192","650904","0.0-192.0","76051","","","","","","triplet","621.7000000476837","","","","1","stimuli/stim016_inanimate_boats_4.png","stimuli/fish_lowercase.png","stimuli/bird_lowercase.png","185"
"html-button-response-mod","193","652577","0.0-193.0","76051","","","","","","triplet","1161.1999999284744","","","","1","stimuli/stim002_animate_fish_2.png","stimuli/stim005_animate_bird_1.png","stimuli/stim022_inanimate_tools_2.png","186"
"html-button-response-mod","194","654438","0.0-194.0","76051","","","","","","triplet","1346.5999999046326","","","","1","stimuli/stim002_animate_fish_2.png","stimuli/stim006_animate_bird_2.png","stimuli/stim010_animate_face_2.png","187"
"html-button-response-mod","195","655817","0.0-195.0","76051","","","","","","triplet","867.1999999284744","","","","0","stimuli/stim014_inanimate_boats_2.png","stimuli/stim010_animate_face_2.png","stimuli/tools_uppercase.png","188"
"html-button-response-mod","196","657383","0.0-196.0","76051","","","","","","triplet","1053.5","","","","1","stimuli/stim001_animate_fish_1.png","stimuli/stim019_inanimate_tree_3.png","stimuli/stim002_animate_fish_2.png","189"
"html-button-response-mod","197","661733","0.0-197.0","76051","","","","","","triplet","3839.3000000715256","","","","1","stimuli/stim022_inanimate_tools_2.png","stimuli/bird_uppercase.png","stimuli/boats_uppercase.png","190"
"html-button-response-mod","198","666493","0.0-198.0","76051","","","","","","triplet","4251","","","","1","stimuli/tools_lowercase.png","stimuli/boats_lowercase.png","stimuli/stim005_animate_bird_1.png","191"
"html-button-response-mod","199","668300","0.0-199.0","76051","","","","","","triplet","1298.7999999523163","","","","2","stimuli/boats_uppercase.png","stimuli/fish_uppercase.png","stimuli/stim018_inanimate_tree_2.png","192"
"html-button-response-mod","200","670284","0.0-200.0","76051","","","","","","triplet","1471.2000000476837","","","","2","stimuli/stim012_animate_face_4.png","stimuli/stim007_animate_bird_3.png","stimuli/fish_lowercase.png","193"
"html-button-response-mod","201","672255","0.0-201.0","76051","","","","","","triplet","1459.1999999284744","","","","0","stimuli/stim008_animate_bird_4.png","stimuli/stim003_animate_fish_3.png","stimuli/stim001_animate_fish_1.png","194"
"html-button-response-mod","202","673822","0.0-202.0","76051","","","","","","triplet","1057","","","","1","stimuli/stim004_animate_fish_4.png","stimuli/face_uppercase.png","stimuli/stim015_inanimate_boats_3.png","195"
"html-button-response-mod","203","675899","0.0-203.0","76051","","","","","","triplet","1563.5","","","","2","stimuli/stim019_inanimate_tree_3.png","stimuli/stim005_animate_bird_1.png","stimuli/stim015_inanimate_boats_3.png","196"
"html-button-response-mod","204","678223","0.0-204.0","76051","","","","","","triplet","1812.5","","","","2","stimuli/stim002_animate_fish_2.png","stimuli/stim020_inanimate_tree_4.png","stimuli/stim013_inanimate_boats_1.png","197"
"html-button-response-mod","205","679724","0.0-205.0","76051","","","","","","triplet","991.2999999523163","","","","0","stimuli/face_uppercase.png","stimuli/stim024_inanimate_tools_4.png","stimuli/stim006_animate_bird_2.png","198"
"html-button-response-mod","206","681485","0.0-206.0","76051","","","","","","triplet","1249.5","","","","0","stimuli/stim021_inanimate_tools_1.png","stimuli/face_lowercase.png","stimuli/boats_uppercase.png","199"
"html-button-response","207","708840","0.0-207.0","76051","","","","","","break","26843.899999976158","<p>BREAK</p><p>Take a break for as long as you need</p><p>Click the button to continue</p>","0","","","","","",""
"html-button-response-mod","208","710131","0.0-208.0","76051","","","","","","triplet","1288.8000000715256","","","","2","stimuli/stim021_inanimate_tools_1.png","stimuli/stim018_inanimate_tree_2.png","stimuli/stim011_animate_face_3.png","200"
"html-button-response-mod","209","711932","0.0-209.0","76051","","","","","","triplet","1288.5","","","","2","stimuli/bird_uppercase.png","stimuli/fish_lowercase.png","stimuli/stim006_animate_bird_2.png","201"
"html-button-response-mod","210","713489","0.0-210.0","76051","","","","","","triplet","1047.2000000476837","","","","2","stimuli/tools_uppercase.png","stimuli/tree_uppercase.png","stimuli/stim010_animate_face_2.png","202"
"html-button-response-mod","211","715916","0.0-211.0","76051","","","","","","triplet","1918.3999999761581","","","","1","stimuli/stim014_inanimate_boats_2.png","stimuli/stim005_animate_bird_1.png","stimuli/stim013_inanimate_boats_1.png","203"
"html-button-response-mod","212","718451","0.0-212.0","76051","","","","","","triplet","2017.8999999761581","","","","1","stimuli/stim004_animate_fish_4.png","stimuli/stim016_inanimate_boats_4.png","stimuli/stim020_inanimate_tree_4.png","204"
"html-button-response-mod","213","720033","0.0-213.0","76051","","","","","","triplet","1069.2999999523163","","","","2","stimuli/stim017_inanimate_tree_1.png","stimuli/stim006_animate_bird_2.png","stimuli/bird_uppercase.png","205"
"html-button-response-mod","214","721478","0.0-214.0","76051","","","","","","triplet","930.7000000476837","","","","2","stimuli/stim005_animate_bird_1.png","stimuli/stim021_inanimate_tools_1.png","stimuli/tools_uppercase.png","206"
"html-button-response-mod","215","722970","0.0-215.0","76051","","","","","","triplet","979.3999999761581","","","","0","stimuli/bird_lowercase.png","stimuli/stim013_inanimate_boats_1.png","stimuli/stim024_inanimate_tools_4.png","207"
"html-button-response-mod","216","724564","0.0-216.0","76051","","","","","","triplet","1082","","","","2","stimuli/face_lowercase.png","stimuli/bird_lowercase.png","stimuli/stim013_inanimate_boats_1.png","208"
"html-button-response-mod","217","726141","0.0-217.0","76051","","","","","","triplet","1067","","","","1","stimuli/stim009_animate_face_1.png","stimuli/fish_uppercase.png","stimuli/stim004_animate_fish_4.png","209"
"html-button-response-mod","218","727537","0.0-218.0","76051","","","","","","triplet","885.0999999046326","","","","0","stimuli/fish_lowercase.png","stimuli/stim020_inanimate_tree_4.png","stimuli/stim007_animate_bird_3.png","210"
"html-button-response-mod","219","729953","0.0-219.0","76051","","","","","","triplet","1901.3999999761581","","","","0","stimuli/stim024_inanimate_tools_4.png","stimuli/stim011_animate_face_3.png","stimuli/stim013_inanimate_boats_1.png","211"
"html-button-response-mod","220","732037","0.0-220.0","76051","","","","","","triplet","1567.2000000476837","","","","0","stimuli/bird_lowercase.png","stimuli/stim016_inanimate_boats_4.png","stimuli/stim024_inanimate_tools_4.png","212"
"html-button-response-mod","221","733559","0.0-221.0","76051","","","","","","triplet","1020.1000000238419","","","","2","stimuli/stim005_animate_bird_1.png","stimuli/stim012_animate_face_4.png","stimuli/face_lowercase.png","213"
"html-button-response-mod","222","735109","0.0-222.0","76051","","","","","","triplet","1037","","","","0","stimuli/tree_uppercase.png","stimuli/stim016_inanimate_boats_4.png","stimuli/stim023_inanimate_tools_3.png","214"
"html-button-response-mod","223","737402","0.0-223.0","76051","","","","","","triplet","1783.7000000476837","","","","1","stimuli/stim018_inanimate_tree_2.png","stimuli/stim023_inanimate_tools_3.png","stimuli/stim002_animate_fish_2.png","215"
"html-button-response-mod","224","740552","0.0-224.0","76051","","","","","","triplet","2636.399999976158","","","","0","stimuli/bird_uppercase.png","stimuli/stim018_inanimate_tree_2.png","stimuli/stim012_animate_face_4.png","216"
"html-button-response-mod","225","742684","0.0-225.0","76051","","","","","","triplet","1622.2999999523163","","","","2","stimuli/stim009_animate_face_1.png","stimuli/stim020_inanimate_tree_4.png","stimuli/tree_uppercase.png","217"
"html-button-response-mod","226","744929","0.0-226.0","76051","","","","","","triplet","1733","","","","2","stimuli/face_lowercase.png","stimuli/fish_uppercase.png","stimuli/stim023_inanimate_tools_3.png","218"
"html-button-response-mod","227","746418","0.0-227.0","76051","","","","","","triplet","975.8999999761581","","","","0","stimuli/tools_uppercase.png","stimuli/stim001_animate_fish_1.png","stimuli/stim021_inanimate_tools_1.png","219"
"html-button-response-mod","228","747889","0.0-228.0","76051","","","","","","triplet","957.9000000953674","","","","2","stimuli/stim015_inanimate_boats_3.png","stimuli/stim019_inanimate_tree_3.png","stimuli/tree_lowercase.png","220"
"html-button-response-mod","229","751203","0.0-229.0","76051","","","","","","triplet","2800.7999999523163","","","","1","stimuli/stim024_inanimate_tools_4.png","stimuli/stim010_animate_face_2.png","stimuli/stim021_inanimate_tools_1.png","221"
"html-button-response-mod","230","753493","0.0-230.0","76051","","","","","","triplet","1783.6000000238419","","","","2","stimuli/stim012_animate_face_4.png","stimuli/stim022_inanimate_tools_2.png","stimuli/bird_uppercase.png","222"
"html-button-response-mod","231","756046","0.0-231.0","76051","","","","","","triplet","2041","","","","1","stimuli/face_uppercase.png","stimuli/stim003_animate_fish_3.png","stimuli/tools_lowercase.png","223"
"html-button-response-mod","232","757923","0.0-232.0","76051","","","","","","triplet","1364.3000000715256","","","","1","stimuli/stim024_inanimate_tools_4.png","stimuli/fish_uppercase.png","stimuli/stim014_inanimate_boats_2.png","224"
"html-button-response-mod","233","759456","0.0-233.0","76051","","","","","","triplet","1021.3999999761581","","","","1","stimuli/stim005_animate_bird_1.png","stimuli/boats_uppercase.png","stimuli/stim019_inanimate_tree_3.png","225"
"html-button-response-mod","234","761503","0.0-234.0","76051","","","","","","triplet","1534.8999999761581","","","","1","stimuli/stim008_animate_bird_4.png","stimuli/stim010_animate_face_2.png","stimuli/stim007_animate_bird_3.png","226"
"html-button-response-mod","235","763078","0.0-235.0","76051","","","","","","triplet","1065.3999999761581","","","","2","stimuli/stim021_inanimate_tools_1.png","stimuli/stim016_inanimate_boats_4.png","stimuli/tree_uppercase.png","227"
"html-button-response-mod","236","764828","0.0-236.0","76051","","","","","","triplet","1239.8999999761581","","","","0","stimuli/stim023_inanimate_tools_3.png","stimuli/stim020_inanimate_tree_4.png","stimuli/stim019_inanimate_tree_3.png","228"
"html-button-response-mod","237","766268","0.0-237.0","76051","","","","","","triplet","929.8999999761581","","","","2","stimuli/stim004_animate_fish_4.png","stimuli/stim020_inanimate_tree_4.png","stimuli/tree_lowercase.png","229"
"html-button-response-mod","238","768495","0.0-238.0","76051","","","","","","triplet","1715.8000000715256","","","","1","stimuli/boats_uppercase.png","stimuli/stim008_animate_bird_4.png","stimuli/tools_uppercase.png","230"
"html-button-response-mod","239","770090","0.0-239.0","76051","","","","","","triplet","1083","","","","2","stimuli/stim022_inanimate_tools_2.png","stimuli/stim016_inanimate_boats_4.png","stimuli/bird_lowercase.png","231"
"html-button-response-mod","240","771607","0.0-240.0","76051","","","","","","triplet","1003.8999999761581","","","","2","stimuli/stim019_inanimate_tree_3.png","stimuli/stim018_inanimate_tree_2.png","stimuli/tree_uppercase.png","232"
"html-button-response-mod","241","773356","0.0-241.0","76051","","","","","","triplet","1238.3999999761581","","","","2","stimuli/stim003_animate_fish_3.png","stimuli/stim010_animate_face_2.png","stimuli/face_uppercase.png","233"
"html-button-response-mod","242","774948","0.0-242.0","76051","","","","","","triplet","1081.7999999523163","","","","2","stimuli/stim005_animate_bird_1.png","stimuli/stim024_inanimate_tools_4.png","stimuli/bird_lowercase.png","234"
"html-button-response-mod","243","776496","0.0-243.0","76051","","","","","","triplet","1038","","","","1","stimuli/stim019_inanimate_tree_3.png","stimuli/stim012_animate_face_4.png","stimuli/stim017_inanimate_tree_1.png","235"
"html-button-response-mod","244","777956","0.0-244.0","76051","","","","","","triplet","946.5","","","","2","stimuli/stim007_animate_bird_3.png","stimuli/stim023_inanimate_tools_3.png","stimuli/tools_lowercase.png","236"
"html-button-response-mod","245","779565","0.0-245.0","76051","","","","","","triplet","1097.7999999523163","","","","1","stimuli/stim013_inanimate_boats_1.png","stimuli/fish_lowercase.png","stimuli/stim023_inanimate_tools_3.png","237"
"html-button-response-mod","246","782425","0.0-246.0","76051","","","","","","triplet","2352.0999999046326","","","","1","stimuli/stim016_inanimate_boats_4.png","stimuli/stim011_animate_face_3.png","stimuli/stim002_animate_fish_2.png","238"
"html-button-response-mod","247","783892","0.0-247.0","76051","","","","","","triplet","954.1999999284744","","","","2","stimuli/stim016_inanimate_boats_4.png","stimuli/stim003_animate_fish_3.png","stimuli/tree_lowercase.png","239"
"html-button-response-mod","248","785336","0.0-248.0","76051","","","","","","triplet","927.6000000238419","","","","0","stimuli/bird_lowercase.png","stimuli/stim016_inanimate_boats_4.png","stimuli/stim003_animate_fish_3.png","240"
"html-button-response-mod","249","786783","0.0-249.0","76051","","","","","","triplet","931.2999999523163","","","","0","stimuli/tools_uppercase.png","stimuli/stim005_animate_bird_1.png","stimuli/stim008_animate_bird_4.png","241"
"html-button-response-mod","250","788395","0.0-250.0","76051","","","","","","triplet","1098.2000000476837","","","","0","stimuli/boats_uppercase.png","stimuli/stim004_animate_fish_4.png","stimuli/stim013_inanimate_boats_1.png","242"
"html-button-response-mod","251","789538","0.0-251.0","76051","","","","","","triplet","634.2000000476837","","","","0","stimuli/boats_uppercase.png","stimuli/stim023_inanimate_tools_3.png","stimuli/tree_uppercase.png","243"
"html-button-response-mod","252","791306","0.0-252.0","76051","","","","","","triplet","1255.7999999523163","","","","0","stimuli/stim009_animate_face_1.png","stimuli/stim003_animate_fish_3.png","stimuli/stim005_animate_bird_1.png","244"
"html-button-response-mod","253","793320","0.0-253.0","76051","","","","","","triplet","1501.7999999523163","","","","2","stimuli/stim014_inanimate_boats_2.png","stimuli/stim022_inanimate_tools_2.png","stimuli/fish_uppercase.png","245"
"html-button-response-mod","254","797266","0.0-254.0","76051","","","","","","triplet","3435","","","","2","stimuli/bird_uppercase.png","stimuli/face_uppercase.png","stimuli/tools_uppercase.png","246"
"html-button-response-mod","255","800445","0.0-255.0","76051","","","","","","triplet","2666.2999999523163","","","","1","stimuli/tools_uppercase.png","stimuli/stim009_animate_face_1.png","stimuli/boats_lowercase.png","247"
"html-button-response-mod","256","802227","0.0-256.0","76051","","","","","","triplet","1271.1000000238419","","","","1","stimuli/boats_lowercase.png","stimuli/stim021_inanimate_tools_1.png","stimuli/tree_lowercase.png","248"
"html-button-response-mod","257","804273","0.0-257.0","76051","","","","","","triplet","1537.1999999284744","","","","2","stimuli/stim022_inanimate_tools_2.png","stimuli/stim015_inanimate_boats_3.png","stimuli/tools_lowercase.png","249"
"html-button-response","258","805821","0.0-258.0","76051","","","","","","break","1038.1000000238419","<p>BREAK</p><p>Take a break for as long as you need</p><p>Click the button to continue</p>","0","","","","","",""
"html-button-response-mod","259","807747","0.0-259.0","76051","","","","","","triplet","1924.9000000953674","","","","1","stimuli/face_lowercase.png","stimuli/fish_lowercase.png","stimuli/stim012_animate_face_4.png","250"
"html-button-response-mod","260","809761","0.0-260.0","76051","","","","","","triplet","1499.1000000238419","","","","2","stimuli/tools_lowercase.png","stimuli/stim022_inanimate_tools_2.png","stimuli/stim013_inanimate_boats_1.png","251"
"html-button-response-mod","261","811508","0.0-261.0","76051","","","","","","triplet","1232.0999999046326","","","","1","stimuli/stim013_inanimate_boats_1.png","stimuli/stim011_animate_face_3.png","stimuli/stim014_inanimate_boats_2.png","252"
"html-button-response-mod","262","813324","0.0-262.0","76051","","","","","","triplet","1304.6000000238419","","","","2","stimuli/boats_lowercase.png","stimuli/stim013_inanimate_boats_1.png","stimuli/stim004_animate_fish_4.png","253"
"html-button-response-mod","263","815217","0.0-263.0","76051","","","","","","triplet","1382","","","","2","stimuli/bird_lowercase.png","stimuli/stim008_animate_bird_4.png","stimuli/stim003_animate_fish_3.png","254"
"html-button-response-mod","264","817230","0.0-264.0","76051","","","","","","triplet","1501.6999999284744","","","","1","stimuli/tree_uppercase.png","stimuli/stim012_animate_face_4.png","stimuli/stim017_inanimate_tree_1.png","255"
"html-button-response-mod","265","819420","0.0-265.0","76051","","","","","","triplet","1676.9000000953674","","","","2","stimuli/stim020_inanimate_tree_4.png","stimuli/tree_lowercase.png","stimuli/stim023_inanimate_tools_3.png","256"
"html-button-response-mod","266","821142","0.0-266.0","76051","","","","","","triplet","1205.7000000476837","","","","1","stimuli/stim004_animate_fish_4.png","stimuli/stim010_animate_face_2.png","stimuli/stim002_animate_fish_2.png","257"
"html-button-response-mod","267","825294","0.0-267.0","76051","","","","","","triplet","3634.7000000476837","","","","2","stimuli/bird_uppercase.png","stimuli/stim009_animate_face_1.png","stimuli/stim024_inanimate_tools_4.png","258"
"html-button-response-mod","268","828483","0.0-268.0","76051","","","","","","triplet","2677.2000000476837","","","","2","stimuli/stim004_animate_fish_4.png","stimuli/stim010_animate_face_2.png","stimuli/tree_lowercase.png","259"
"html-button-response-mod","269","830485","0.0-269.0","76051","","","","","","triplet","1490.8000000715256","","","","1","stimuli/fish_lowercase.png","stimuli/stim016_inanimate_boats_4.png","stimuli/bird_uppercase.png","260"
"html-button-response-mod","270","833460","0.0-270.0","76051","","","","","","triplet","2464.600000023842","","","","0","stimuli/stim015_inanimate_boats_3.png","stimuli/stim004_animate_fish_4.png","stimuli/stim006_animate_bird_2.png","261"
"html-button-response-mod","271","835476","0.0-271.0","76051","","","","","","triplet","1503.5999999046326","","","","1","stimuli/tools_lowercase.png","stimuli/stim003_animate_fish_3.png","stimuli/tools_uppercase.png","262"
"html-button-response-mod","272","837773","0.0-272.0","76051","","","","","","triplet","1785.1000000238419","","","","2","stimuli/tree_lowercase.png","stimuli/stim010_animate_face_2.png","stimuli/stim003_animate_fish_3.png","263"
"html-button-response-mod","273","839557","0.0-273.0","76051","","","","","","triplet","1269.6999999284744","","","","0","stimuli/bird_lowercase.png","stimuli/stim019_inanimate_tree_3.png","stimuli/stim015_inanimate_boats_3.png","264"
"html-button-response-mod","274","841678","0.0-274.0","76051","","","","","","triplet","1608","","","","1","stimuli/boats_uppercase.png","stimuli/stim021_inanimate_tools_1.png","stimuli/face_uppercase.png","265"
"html-button-response-mod","275","843413","0.0-275.0","76051","","","","","","triplet","1225.1000000238419","","","","2","stimuli/stim010_animate_face_2.png","stimuli/stim015_inanimate_boats_3.png","stimuli/tree_uppercase.png","266"
"html-button-response-mod","276","844951","0.0-276.0","76051","","","","","","triplet","1026","","","","1","stimuli/stim010_animate_face_2.png","stimuli/bird_lowercase.png","stimuli/stim024_inanimate_tools_4.png","267"
"html-button-response-mod","277","846635","0.0-277.0","76051","","","","","","triplet","1171.8000000715256","","","","2","stimuli/stim019_inanimate_tree_3.png","stimuli/stim017_inanimate_tree_1.png","stimuli/stim002_animate_fish_2.png","268"
"html-button-response-mod","278","848528","0.0-278.0","76051","","","","","","triplet","1380.2000000476837","","","","2","stimuli/stim018_inanimate_tree_2.png","stimuli/stim012_animate_face_4.png","stimuli/tools_uppercase.png","269"
"html-button-response-mod","279","849953","0.0-279.0","76051","","","","","","triplet","913.8999999761581","","","","2","stimuli/stim023_inanimate_tools_3.png","stimuli/stim021_inanimate_tools_1.png","stimuli/fish_lowercase.png","270"
"html-button-response-mod","280","851535","0.0-280.0","76051","","","","","","triplet","1070.8999999761581","","","","1","stimuli/stim022_inanimate_tools_2.png","stimuli/tools_lowercase.png","stimuli/stim006_animate_bird_2.png","271"
"html-button-response-mod","281","854064","0.0-281.0","76051","","","","","","triplet","2017.1000000238419","","","","1","stimuli/stim014_inanimate_boats_2.png","stimuli/stim019_inanimate_tree_3.png","stimuli/stim013_inanimate_boats_1.png","272"
"html-button-response-mod","282","857317","0.0-282.0","76051","","","","","","triplet","2750.9000000953674","","","","1","stimuli/stim018_inanimate_tree_2.png","stimuli/stim024_inanimate_tools_4.png","stimuli/stim003_animate_fish_3.png","273"
"html-button-response-mod","283","860365","0.0-283.0","76051","","","","","","triplet","2537.3000000715256","","","","0","stimuli/stim016_inanimate_boats_4.png","stimuli/boats_uppercase.png","stimuli/tree_lowercase.png","274"
"html-button-response-mod","284","864146","0.0-284.0","76051","","","","","","triplet","3268.7000000476837","","","","0","stimuli/stim016_inanimate_boats_4.png","stimuli/stim007_animate_bird_3.png","stimuli/stim018_inanimate_tree_2.png","275"
"html-button-response-mod","285","865882","0.0-285.0","76051","","","","","","triplet","1225.3000000715256","","","","1","stimuli/stim006_animate_bird_2.png","stimuli/tools_lowercase.png","stimuli/stim002_animate_fish_2.png","276"
"html-button-response-mod","286","867282","0.0-286.0","76051","","","","","","triplet","885.3999999761581","","","","0","stimuli/bird_lowercase.png","stimuli/stim007_animate_bird_3.png","stimuli/stim012_animate_face_4.png","277"
"html-button-response-mod","287","868679","0.0-287.0","76051","","","","","","triplet","885.8000000715256","","","","1","stimuli/stim006_animate_bird_2.png","stimuli/bird_lowercase.png","stimuli/stim003_animate_fish_3.png","278"
"html-button-response-mod","288","870109","0.0-288.0","76051","","","","","","triplet","917.5","","","","1","stimuli/stim003_animate_fish_3.png","stimuli/tools_uppercase.png","stimuli/stim004_animate_fish_4.png","279"
"html-button-response-mod","289","871949","0.0-289.0","76051","","","","","","triplet","1330.9000000953674","","","","1","stimuli/stim002_animate_fish_2.png","stimuli/stim017_inanimate_tree_1.png","stimuli/stim003_animate_fish_3.png","280"
"html-button-response-mod","290","874118","0.0-290.0","76051","","","","","","triplet","1658.6000000238419","","","","0","stimuli/stim014_inanimate_boats_2.png","stimuli/stim003_animate_fish_3.png","stimuli/stim001_animate_fish_1.png","281"
"html-button-response-mod","291","875680","0.0-291.0","76051","","","","","","triplet","1049.5","","","","2","stimuli/stim004_animate_fish_4.png","stimuli/stim015_inanimate_boats_3.png","stimuli/tree_uppercase.png","282"
"html-button-response-mod","292","877294","0.0-292.0","76051","","","","","","triplet","1100.7999999523163","","","","1","stimuli/stim016_inanimate_boats_4.png","stimuli/stim024_inanimate_tools_4.png","stimuli/stim014_inanimate_boats_2.png","283"
"html-button-response-mod","293","878754","0.0-293.0","76051","","","","","","triplet","946.9000000953674","","","","1","stimuli/stim009_animate_face_1.png","stimuli/face_uppercase.png","stimuli/stim005_animate_bird_1.png","284"
"html-button-response-mod","294","880304","0.0-294.0","76051","","","","","","triplet","1038","","","","2","stimuli/stim007_animate_bird_3.png","stimuli/stim017_inanimate_tree_1.png","stimuli/fish_uppercase.png","285"
"html-button-response-mod","295","881861","0.0-295.0","76051","","","","","","triplet","1041.7000000476837","","","","1","stimuli/stim015_inanimate_boats_3.png","stimuli/stim021_inanimate_tools_1.png","stimuli/stim003_animate_fish_3.png","286"
"html-button-response-mod","296","883380","0.0-296.0","76051","","","","","","triplet","1006.2000000476837","","","","2","stimuli/stim022_inanimate_tools_2.png","stimuli/stim006_animate_bird_2.png","stimuli/face_uppercase.png","287"
"html-button-response-mod","297","884915","0.0-297.0","76051","","","","","","triplet","1025.7000000476837","","","","2","stimuli/stim017_inanimate_tree_1.png","stimuli/stim018_inanimate_tree_2.png","stimuli/face_lowercase.png","288"
"html-button-response-mod","298","886232","0.0-298.0","76051","","","","","","triplet","805.2999999523163","","","","2","stimuli/stim006_animate_bird_2.png","stimuli/stim015_inanimate_boats_3.png","stimuli/bird_lowercase.png","289"
"html-button-response-mod","299","888118","0.0-299.0","76051","","","","","","triplet","1376.1000000238419","","","","1","stimuli/boats_lowercase.png","stimuli/stim009_animate_face_1.png","stimuli/fish_uppercase.png","290"
"html-button-response-mod","300","889873","0.0-300.0","76051","","","","","","triplet","1240.6000000238419","","","","1","stimuli/bird_uppercase.png","stimuli/stim021_inanimate_tools_1.png","stimuli/boats_uppercase.png","291"
"html-button-response-mod","301","892399","0.0-301.0","76051","","","","","","triplet","2012.8000000715256","","","","1","stimuli/bird_uppercase.png","stimuli/tools_lowercase.png","stimuli/face_uppercase.png","292"
"html-button-response-mod","302","894492","0.0-302.0","76051","","","","","","triplet","1582.2999999523163","","","","1","stimuli/stim002_animate_fish_2.png","stimuli/stim010_animate_face_2.png","stimuli/stim020_inanimate_tree_4.png","293"
"html-button-response-mod","303","896180","0.0-303.0","76051","","","","","","triplet","1174.1000000238419","","","","2","stimuli/boats_lowercase.png","stimuli/tools_uppercase.png","stimuli/stim024_inanimate_tools_4.png","294"
"html-button-response-mod","304","897731","0.0-304.0","76051","","","","","","triplet","1038.7000000476837","","","","0","stimuli/stim001_animate_fish_1.png","stimuli/tools_lowercase.png","stimuli/fish_lowercase.png","295"
"html-button-response-mod","305","899192","0.0-305.0","76051","","","","","","triplet","948.3999999761581","","","","2","stimuli/tools_uppercase.png","stimuli/bird_uppercase.png","stimuli/stim005_animate_bird_1.png","296"
"html-button-response-mod","306","901332","0.0-306.0","76051","","","","","","triplet","1627.2999999523163","","","","0","stimuli/stim018_inanimate_tree_2.png","stimuli/fish_lowercase.png","stimuli/stim024_inanimate_tools_4.png","297"
"html-button-response-mod","307","903634","0.0-307.0","76051","","","","","","triplet","1784.6999999284744","","","","1","stimuli/stim020_inanimate_tree_4.png","stimuli/stim001_animate_fish_1.png","stimuli/stim019_inanimate_tree_3.png","298"
"html-button-response-mod","308","905101","0.0-308.0","76051","","","","","","triplet","957.2000000476837","","","","1","stimuli/stim019_inanimate_tree_3.png","stimuli/fish_uppercase.png","stimuli/stim017_inanimate_tree_1.png","299"
"html-button-response","309","910407","0.0-309.0","76051","","","","","","break","4792.800000071526","<p>BREAK</p><p>Take a break for as long as you need</p><p>Click the button to continue</p>","0","","","","","",""
"html-button-response-mod","310","911759","0.0-310.0","76051","","","","","","triplet","1351.1999999284744","","","","0","stimuli/boats_lowercase.png","stimuli/stim013_inanimate_boats_1.png","stimuli/stim020_inanimate_tree_4.png","300"
"html-button-response-mod","311","920238","0.0-311.0","76051","","","","","","triplet","7977.300000071526","","","","2","stimuli/stim012_animate_face_4.png","stimuli/stim004_animate_fish_4.png","stimuli/stim019_inanimate_tree_3.png","301"
"html-button-response-mod","312","922607","0.0-312.0","76051","","","","","","triplet","1858.8000000715256","","","","2","stimuli/face_uppercase.png","stimuli/face_lowercase.png","stimuli/stim009_animate_face_1.png","302"
"html-button-response-mod","313","924164","0.0-313.0","76051","","","","","","triplet","1047.3999999761581","","","","0","stimuli/stim011_animate_face_3.png","stimuli/bird_uppercase.png","stimuli/tools_lowercase.png","303"
"html-button-response-mod","314","925638","0.0-314.0","76051","","","","","","triplet","959.4000000953674","","","","2","stimuli/tree_lowercase.png","stimuli/tree_uppercase.png","stimuli/stim010_animate_face_2.png","304"
"html-button-response-mod","315","927373","0.0-315.0","76051","","","","","","triplet","1224.3000000715256","","","","1","stimuli/stim006_animate_bird_2.png","stimuli/fish_lowercase.png","stimuli/stim002_animate_fish_2.png","305"
"html-button-response-mod","316","928845","0.0-316.0","76051","","","","","","triplet","960.5","","","","2","stimuli/stim019_inanimate_tree_3.png","stimuli/stim021_inanimate_tools_1.png","stimuli/tree_lowercase.png","306"
"html-button-response-mod","317","930489","0.0-317.0","76051","","","","","","triplet","1132.4000000953674","","","","0","stimuli/stim018_inanimate_tree_2.png","stimuli/stim016_inanimate_boats_4.png","stimuli/stim003_animate_fish_3.png","307"
"html-button-response-mod","318","932140","0.0-318.0","76051","","","","","","triplet","1138.7999999523163","","","","1","stimuli/stim008_animate_bird_4.png","stimuli/stim009_animate_face_1.png","stimuli/stim006_animate_bird_2.png","308"
"html-button-response-mod","319","934187","0.0-319.0","76051","","","","","","triplet","1536.1999999284744","","","","2","stimuli/stim011_animate_face_3.png","stimuli/face_uppercase.png","stimuli/boats_lowercase.png","309"
"html-button-response-mod","320","935735","0.0-320.0","76051","","","","","","triplet","1038.3999999761581","","","","0","stimuli/tools_lowercase.png","stimuli/stim014_inanimate_boats_2.png","stimuli/stim015_inanimate_boats_3.png","310"
"html-button-response-mod","321","938946","0.0-321.0","76051","","","","","","triplet","2695.399999976158","","","","2","stimuli/stim019_inanimate_tree_3.png","stimuli/stim007_animate_bird_3.png","stimuli/stim001_animate_fish_1.png","311"
"html-button-response-mod","322","940420","0.0-322.0","76051","","","","","","triplet","961.8999999761581","","","","0","stimuli/tree_lowercase.png","stimuli/stim009_animate_face_1.png","stimuli/stim011_animate_face_3.png","312"
"html-button-response-mod","323","943784","0.0-323.0","76051","","","","","","triplet","2852.1999999284744","","","","1","stimuli/stim011_animate_face_3.png","stimuli/stim022_inanimate_tools_2.png","stimuli/stim008_animate_bird_4.png","313"
"html-button-response-mod","324","945472","0.0-324.0","76051","","","","","","triplet","1176.3999999761581","","","","1","stimuli/stim002_animate_fish_2.png","stimuli/stim009_animate_face_1.png","stimuli/stim008_animate_bird_4.png","314"
"html-button-response-mod","325","947458","0.0-325.0","76051","","","","","","triplet","1471.7999999523163","","","","0","stimuli/stim016_inanimate_boats_4.png","stimuli/stim005_animate_bird_1.png","stimuli/stim023_inanimate_tools_3.png","315"
"html-button-response-mod","326","951383","0.0-326.0","76051","","","","","","triplet","3414.0999999046326","","","","2","stimuli/tree_lowercase.png","stimuli/fish_uppercase.png","stimuli/stim001_animate_fish_1.png","316"
"html-button-response-mod","327","953073","0.0-327.0","76051","","","","","","triplet","1176.7999999523163","","","","1","stimuli/boats_uppercase.png","stimuli/stim002_animate_fish_2.png","stimuli/face_lowercase.png","317"
"html-button-response-mod","328","954530","0.0-328.0","76051","","","","","","triplet","946.1000000238419","","","","2","stimuli/boats_uppercase.png","stimuli/tools_uppercase.png","stimuli/stim001_animate_fish_1.png","318"
"html-button-response-mod","329","957420","0.0-329.0","76051","","","","","","triplet","2376.2000000476837","","","","2","stimuli/stim016_inanimate_boats_4.png","stimuli/stim008_animate_bird_4.png","stimuli/stim018_inanimate_tree_2.png","319"
"html-button-response-mod","330","959991","0.0-330.0","76051","","","","","","triplet","2060.2999999523163","","","","1","stimuli/fish_lowercase.png","stimuli/fish_uppercase.png","stimuli/stim002_animate_fish_2.png","320"
"html-button-response-mod","331","961461","0.0-331.0","76051","","","","","","triplet","958","","","","2","stimuli/stim001_animate_fish_1.png","stimuli/stim013_inanimate_boats_1.png","stimuli/stim018_inanimate_tree_2.png","321"
"html-button-response-mod","332","963007","0.0-332.0","76051","","","","","","triplet","1036.2000000476837","","","","2","stimuli/stim015_inanimate_boats_3.png","stimuli/stim003_animate_fish_3.png","stimuli/fish_uppercase.png","322"
"html-button-response-mod","333","965116","0.0-333.0","76051","","","","","","triplet","1596.8999999761581","","","","1","stimuli/stim001_animate_fish_1.png","stimuli/stim010_animate_face_2.png","stimuli/stim005_animate_bird_1.png","323"
"html-button-response-mod","334","966714","0.0-334.0","76051","","","","","","triplet","1085.2999999523163","","","","2","stimuli/stim020_inanimate_tree_4.png","stimuli/stim024_inanimate_tools_4.png","stimuli/boats_uppercase.png","324"
"html-button-response-mod","335","968190","0.0-335.0","76051","","","","","","triplet","962.2000000476837","","","","0","stimuli/tree_lowercase.png","stimuli/stim002_animate_fish_2.png","stimuli/stim012_animate_face_4.png","325"
"html-button-response-mod","336","969675","0.0-336.0","76051","","","","","","triplet","973.2999999523163","","","","0","stimuli/face_uppercase.png","stimuli/stim014_inanimate_boats_2.png","stimuli/stim024_inanimate_tools_4.png","326"
"html-button-response-mod","337","971896","0.0-337.0","76051","","","","","","triplet","1706.8000000715256","","","","2","stimuli/stim004_animate_fish_4.png","stimuli/stim001_animate_fish_1.png","stimuli/stim023_inanimate_tools_3.png","327"
"html-button-response-mod","338","975898","0.0-338.0","76051","","","","","","triplet","3489.899999976158","","","","0","stimuli/boats_uppercase.png","stimuli/tools_lowercase.png","stimuli/bird_lowercase.png","328"
"html-button-response-mod","339","977493","0.0-339.0","76051","","","","","","triplet","1083","","","","2","stimuli/stim022_inanimate_tools_2.png","stimuli/stim019_inanimate_tree_3.png","stimuli/tree_uppercase.png","329"
"html-button-response-mod","340","978794","0.0-340.0","76051","","","","","","triplet","789.5","","","","2","stimuli/stim006_animate_bird_2.png","stimuli/stim009_animate_face_1.png","stimuli/tools_lowercase.png","330"
"html-button-response-mod","341","980578","0.0-341.0","76051","","","","","","triplet","1271.7000000476837","","","","0","stimuli/stim005_animate_bird_1.png","stimuli/fish_uppercase.png","stimuli/bird_lowercase.png","331"
"html-button-response-mod","342","982108","0.0-342.0","76051","","","","","","triplet","1021.0999999046326","","","","0","stimuli/fish_lowercase.png","stimuli/stim002_animate_fish_2.png","stimuli/stim020_inanimate_tree_4.png","332"
"html-button-response-mod","343","983968","0.0-343.0","76051","","","","","","triplet","1346.7000000476837","","","","2","stimuli/stim012_animate_face_4.png","stimuli/stim023_inanimate_tools_3.png","stimuli/tree_uppercase.png","333"
"html-button-response-mod","344","986186","0.0-344.0","76051","","","","","","triplet","1703.7000000476837","","","","0","stimuli/stim015_inanimate_boats_3.png","stimuli/stim018_inanimate_tree_2.png","stimuli/stim022_inanimate_tools_2.png","334"
"html-button-response-mod","345","987533","0.0-345.0","76051","","","","","","triplet","836.5","","","","0","stimuli/stim003_animate_fish_3.png","stimuli/bird_lowercase.png","stimuli/tools_uppercase.png","335"
"html-button-response-mod","346","990136","0.0-346.0","76051","","","","","","triplet","2090.899999976158","","","","1","stimuli/stim024_inanimate_tools_4.png","stimuli/stim011_animate_face_3.png","stimuli/stim014_inanimate_boats_2.png","336"
"html-button-response-mod","347","992248","0.0-347.0","76051","","","","","","triplet","1599.3999999761581","","","","2","stimuli/stim007_animate_bird_3.png","stimuli/stim018_inanimate_tree_2.png","stimuli/stim010_animate_face_2.png","337"
"html-button-response-mod","348","993743","0.0-348.0","76051","","","","","","triplet","978.2999999523163","","","","1","stimuli/stim001_animate_fish_1.png","stimuli/bird_lowercase.png","stimuli/stim008_animate_bird_4.png","338"
"html-button-response-mod","349","995184","0.0-349.0","76051","","","","","","triplet","930.1999999284744","","","","0","stimuli/face_lowercase.png","stimuli/bird_uppercase.png","stimuli/stim007_animate_bird_3.png","339"
"html-button-response-mod","350","997771","0.0-350.0","76051","","","","","","triplet","2074.399999976158","","","","2","stimuli/fish_uppercase.png","stimuli/boats_lowercase.png","stimuli/stim022_inanimate_tools_2.png","340"
"html-button-response-mod","351","999177","0.0-351.0","76051","","","","","","triplet","894.5","","","","1","stimuli/bird_uppercase.png","stimuli/stim005_animate_bird_1.png","stimuli/tree_lowercase.png","341"
"html-button-response-mod","352","1000534","0.0-352.0","76051","","","","","","triplet","845.7000000476837","","","","1","stimuli/bird_uppercase.png","stimuli/stim019_inanimate_tree_3.png","stimuli/stim016_inanimate_boats_4.png","342"
"html-button-response-mod","353","1002538","0.0-353.0","76051","","","","","","triplet","1488.3999999761581","","","","2","stimuli/stim009_animate_face_1.png","stimuli/stim011_animate_face_3.png","stimuli/stim023_inanimate_tools_3.png","343"
"html-button-response-mod","354","1003977","0.0-354.0","76051","","","","","","triplet","930.3000000715256","","","","0","stimuli/stim023_inanimate_tools_3.png","stimuli/stim007_animate_bird_3.png","stimuli/stim012_animate_face_4.png","344"
"html-button-response-mod","355","1005560","0.0-355.0","76051","","","","","","triplet","1072.1000000238419","","","","0","stimuli/stim019_inanimate_tree_3.png","stimuli/stim006_animate_bird_2.png","stimuli/stim011_animate_face_3.png","345"
"html-button-response-mod","356","1007726","0.0-356.0","76051","","","","","","triplet","1655.9000000953674","","","","2","stimuli/stim002_animate_fish_2.png","stimuli/stim009_animate_face_1.png","stimuli/bird_lowercase.png","346"
"html-button-response-mod","357","1010109","0.0-357.0","76051","","","","","","triplet","1871.6000000238419","","","","2","stimuli/stim003_animate_fish_3.png","stimuli/stim015_inanimate_boats_3.png","stimuli/stim012_animate_face_4.png","347"
"html-button-response-mod","358","1011654","0.0-358.0","76051","","","","","","triplet","1036.3999999761581","","","","0","stimuli/face_uppercase.png","stimuli/stim020_inanimate_tree_4.png","stimuli/stim003_animate_fish_3.png","348"
"html-button-response-mod","359","1013423","0.0-359.0","76051","","","","","","triplet","1258.5","","","","2","stimuli/stim010_animate_face_2.png","stimuli/stim004_animate_fish_4.png","stimuli/stim007_animate_bird_3.png","349"
"html-button-response","360","1015113","0.0-360.0","76051","","","","","","break","1175.1000000238419","<p>BREAK</p><p>Take a break for as long as you need</p><p>Click the button to continue</p>","0","","","","","",""
"html-button-response-mod","361","1016707","0.0-361.0","76051","","","","","","triplet","1593.1000000238419","","","","2","stimuli/bird_lowercase.png","stimuli/tree_uppercase.png","stimuli/stim018_inanimate_tree_2.png","350"
"html-button-response-mod","362","1018147","0.0-362.0","76051","","","","","","triplet","927.7000000476837","","","","0","stimuli/bird_uppercase.png","stimuli/stim016_inanimate_boats_4.png","stimuli/stim022_inanimate_tools_2.png","351"
"html-button-response-mod","363","1019616","0.0-363.0","76051","","","","","","triplet","957.6999999284744","","","","2","stimuli/stim014_inanimate_boats_2.png","stimuli/stim019_inanimate_tree_3.png","stimuli/boats_uppercase.png","352"
"html-button-response-mod","364","1020965","0.0-364.0","76051","","","","","","triplet","835.6000000238419","","","","0","stimuli/tree_lowercase.png","stimuli/stim013_inanimate_boats_1.png","stimuli/stim019_inanimate_tree_3.png","353"
"html-button-response-mod","365","1022619","0.0-365.0","76051","","","","","","triplet","1144.2999999523163","","","","1","stimuli/tree_uppercase.png","stimuli/face_uppercase.png","stimuli/boats_uppercase.png","354"
"html-button-response-mod","366","1024105","0.0-366.0","76051","","","","","","triplet","973.5","","","","0","stimuli/fish_uppercase.png","stimuli/stim003_animate_fish_3.png","stimuli/stim006_animate_bird_2.png","355"
"html-button-response-mod","367","1026065","0.0-367.0","76051","","","","","","triplet","1449.9000000953674","","","","1","stimuli/tools_lowercase.png","stimuli/stim008_animate_bird_4.png","stimuli/boats_lowercase.png","356"
"html-button-response-mod","368","1030293","0.0-368.0","76051","","","","","","triplet","3717.3000000715256","","","","1","stimuli/bird_lowercase.png","stimuli/face_lowercase.png","stimuli/boats_lowercase.png","357"
"html-button-response-mod","369","1031841","0.0-369.0","76051","","","","","","triplet","1036.3999999761581","","","","0","stimuli/tree_uppercase.png","stimuli/stim016_inanimate_boats_4.png","stimuli/stim004_animate_fish_4.png","358"
"html-button-response-mod","370","1033717","0.0-370.0","76051","","","","","","triplet","1360.7999999523163","","","","0","stimuli/stim010_animate_face_2.png","stimuli/stim021_inanimate_tools_1.png","stimuli/stim020_inanimate_tree_4.png","359"
"html-button-response-mod","371","1036335","0.0-371.0","76051","","","","","","triplet","2104.2999999523163","","","","2","stimuli/tree_uppercase.png","stimuli/boats_uppercase.png","stimuli/stim013_inanimate_boats_1.png","360"
"html-button-response-mod","372","1041238","0.0-372.0","76051","","","","","","triplet","4392.600000023842","","","","0","stimuli/stim009_animate_face_1.png","stimuli/tree_lowercase.png","stimuli/fish_uppercase.png","361"
"html-button-response-mod","373","1043174","0.0-373.0","76051","","","","","","triplet","1423","","","","2","stimuli/stim002_animate_fish_2.png","stimuli/stim015_inanimate_boats_3.png","stimuli/bird_lowercase.png","362"
"html-button-response-mod","374","1045030","0.0-374.0","76051","","","","","","triplet","1344.6000000238419","","","","0","stimuli/bird_uppercase.png","stimuli/stim007_animate_bird_3.png","stimuli/stim016_inanimate_boats_4.png","363"
"html-button-response-mod","375","1046644","0.0-375.0","76051","","","","","","triplet","1102.2999999523163","","","","0","stimuli/tools_lowercase.png","stimuli/stim009_animate_face_1.png","stimuli/stim012_animate_face_4.png","364"
"html-button-response-mod","376","1048383","0.0-376.0","76051","","","","","","triplet","1226.4000000953674","","","","1","stimuli/boats_uppercase.png","stimuli/stim012_animate_face_4.png","stimuli/tools_lowercase.png","365"
"html-button-response-mod","377","1052570","0.0-377.0","76051","","","","","","triplet","3674.399999976158","","","","2","stimuli/stim021_inanimate_tools_1.png","stimuli/stim008_animate_bird_4.png","stimuli/stim014_inanimate_boats_2.png","366"
"html-button-response-mod","378","1054182","0.0-378.0","76051","","","","","","triplet","1100.6000000238419","","","","0","stimuli/boats_uppercase.png","stimuli/stim016_inanimate_boats_4.png","stimuli/stim004_animate_fish_4.png","367"
"html-button-response-mod","379","1059737","0.0-379.0","76051","","","","","","triplet","5041.700000047684","","","","1","stimuli/stim022_inanimate_tools_2.png","stimuli/stim010_animate_face_2.png","stimuli/stim018_inanimate_tree_2.png","368"
"html-button-response-mod","380","1069327","0.0-380.0","76051","","","","","","triplet","9078","","","","1","stimuli/boats_uppercase.png","stimuli/stim009_animate_face_1.png","stimuli/face_uppercase.png","369"
"html-button-response-mod","381","1071625","0.0-381.0","76051","","","","","","triplet","1786.6999999284744","","","","2","stimuli/bird_uppercase.png","stimuli/fish_uppercase.png","stimuli/boats_lowercase.png","370"
"html-button-response-mod","382","1073083","0.0-382.0","76051","","","","","","triplet","945.6999999284744","","","","1","stimuli/fish_uppercase.png","stimuli/stim013_inanimate_boats_1.png","stimuli/stim024_inanimate_tools_4.png","371"
"html-button-response-mod","383","1077608","0.0-383.0","76051","","","","","","triplet","4011.899999976158","","","","1","stimuli/stim004_animate_fish_4.png","stimuli/stim023_inanimate_tools_3.png","stimuli/stim016_inanimate_boats_4.png","372"
"html-button-response-mod","384","1079263","0.0-384.0","76051","","","","","","triplet","1144.2999999523163","","","","1","stimuli/stim006_animate_bird_2.png","stimuli/stim016_inanimate_boats_4.png","stimuli/stim002_animate_fish_2.png","373"
"html-button-response-mod","385","1081619","0.0-385.0","76051","","","","","","triplet","1840.3999999761581","","","","2","stimuli/stim024_inanimate_tools_4.png","stimuli/stim013_inanimate_boats_1.png","stimuli/stim016_inanimate_boats_4.png","374"
"html-button-response-mod","386","1083285","0.0-386.0","76051","","","","","","triplet","1149","","","","2","stimuli/stim019_inanimate_tree_3.png","stimuli/stim018_inanimate_tree_2.png","stimuli/boats_lowercase.png","375"
"html-button-response-mod","387","1085287","0.0-387.0","76051","","","","","","triplet","1490.8999999761581","","","","2","stimuli/tools_lowercase.png","stimuli/bird_uppercase.png","stimuli/stim001_animate_fish_1.png","376"
"html-button-response-mod","388","1087867","0.0-388.0","76051","","","","","","triplet","2071.5","","","","1","stimuli/stim009_animate_face_1.png","stimuli/stim010_animate_face_2.png","stimuli/stim008_animate_bird_4.png","377"
"html-button-response-mod","389","1090847","0.0-389.0","76051","","","","","","triplet","2468.5999999046326","","","","0","stimuli/stim007_animate_bird_3.png","stimuli/stim004_animate_fish_4.png","stimuli/stim001_animate_fish_1.png","378"
"html-button-response-mod","390","1092601","0.0-390.0","76051","","","","","","triplet","1242.8000000715256","","","","1","stimuli/stim017_inanimate_tree_1.png","stimuli/bird_uppercase.png","stimuli/stim021_inanimate_tools_1.png","379"
"html-button-response-mod","391","1094677","0.0-391.0","76051","","","","","","triplet","1562.5","","","","0","stimuli/tools_uppercase.png","stimuli/stim020_inanimate_tree_4.png","stimuli/stim012_animate_face_4.png","380"
"html-button-response-mod","392","1097174","0.0-392.0","76051","","","","","","triplet","1982","","","","1","stimuli/stim012_animate_face_4.png","stimuli/stim024_inanimate_tools_4.png","stimuli/stim009_animate_face_1.png","381"
"html-button-response-mod","393","1098647","0.0-393.0","76051","","","","","","triplet","960.3999999761581","","","","1","stimuli/stim024_inanimate_tools_4.png","stimuli/face_uppercase.png","stimuli/stim010_animate_face_2.png","382"
"html-button-response-mod","394","1100674","0.0-394.0","76051","","","","","","triplet","1515.2999999523163","","","","0","stimuli/stim015_inanimate_boats_3.png","stimuli/tools_lowercase.png","stimuli/tree_uppercase.png","383"
"html-button-response-mod","395","1102491","0.0-395.0","76051","","","","","","triplet","1303.5999999046326","","","","2","stimuli/stim022_inanimate_tools_2.png","stimuli/stim002_animate_fish_2.png","stimuli/stim003_animate_fish_3.png","384"
"html-button-response-mod","396","1104027","0.0-396.0","76051","","","","","","triplet","1023.7999999523163","","","","1","stimuli/fish_lowercase.png","stimuli/tree_lowercase.png","stimuli/bird_uppercase.png","385"
"html-button-response-mod","397","1105715","0.0-397.0","76051","","","","","","triplet","1174.6999999284744","","","","0","stimuli/stim005_animate_bird_1.png","stimuli/tree_uppercase.png","stimuli/bird_uppercase.png","386"
"html-button-response-mod","398","1107298","0.0-398.0","76051","","","","","","triplet","1071","","","","2","stimuli/stim023_inanimate_tools_3.png","stimuli/stim001_animate_fish_1.png","stimuli/stim010_animate_face_2.png","387"
"html-button-response-mod","399","1108895","0.0-399.0","76051","","","","","","triplet","1083.8999999761581","","","","1","stimuli/stim014_inanimate_boats_2.png","stimuli/bird_uppercase.png","stimuli/stim017_inanimate_tree_1.png","388"
"html-button-response-mod","400","1110474","0.0-400.0","76051","","","","","","triplet","1066.4000000953674","","","","2","stimuli/boats_uppercase.png","stimuli/bird_lowercase.png","stimuli/stim005_animate_bird_1.png","389"
"html-button-response-mod","401","1112089","0.0-401.0","76051","","","","","","triplet","1102.3000000715256","","","","1","stimuli/stim002_animate_fish_2.png","stimuli/stim024_inanimate_tools_4.png","stimuli/stim016_inanimate_boats_4.png","390"
"html-button-response-mod","402","1114120","0.0-402.0","76051","","","","","","triplet","1519.1000000238419","","","","0","stimuli/tools_uppercase.png","stimuli/stim024_inanimate_tools_4.png","stimuli/stim021_inanimate_tools_1.png","391"
"html-button-response-mod","403","1115309","0.0-403.0","76051","","","","","","triplet","678.5","","","","0","stimuli/fish_uppercase.png","stimuli/stim021_inanimate_tools_1.png","stimuli/stim008_animate_bird_4.png","392"
"html-button-response-mod","404","1116969","0.0-404.0","76051","","","","","","triplet","1148","","","","2","stimuli/stim022_inanimate_tools_2.png","stimuli/stim013_inanimate_boats_1.png","stimuli/tree_uppercase.png","393"
"html-button-response-mod","405","1118706","0.0-405.0","76051","","","","","","triplet","1226","","","","0","stimuli/stim004_animate_fish_4.png","stimuli/tree_uppercase.png","stimuli/tools_uppercase.png","394"
"html-button-response-mod","406","1120504","0.0-406.0","76051","","","","","","triplet","1285.2999999523163","","","","1","stimuli/stim019_inanimate_tree_3.png","stimuli/boats_uppercase.png","stimuli/stim023_inanimate_tools_3.png","395"
"html-button-response-mod","407","1122554","0.0-407.0","76051","","","","","","triplet","1535.5999999046326","","","","1","stimuli/stim002_animate_fish_2.png","stimuli/stim009_animate_face_1.png","stimuli/stim011_animate_face_3.png","396"
"html-button-response-mod","408","1124093","0.0-408.0","76051","","","","","","triplet","1022.9000000953674","","","","0","stimuli/face_lowercase.png","stimuli/stim008_animate_bird_4.png","stimuli/stim002_animate_fish_2.png","397"
"html-button-response-mod","409","1125911","0.0-409.0","76051","","","","","","triplet","1305.5","","","","1","stimuli/stim014_inanimate_boats_2.png","stimuli/stim012_animate_face_4.png","stimuli/stim021_inanimate_tools_1.png","398"
"html-button-response-mod","410","1127365","0.0-410.0","76051","","","","","","triplet","942.8999999761581","","","","0","stimuli/fish_lowercase.png","stimuli/stim022_inanimate_tools_2.png","stimuli/stim003_animate_fish_3.png","399"
"html-button-response","411","1130851","0.0-411.0","76051","","","","","","break","2973.100000023842","<p>BREAK</p><p>Take a break for as long as you need</p><p>Click the button to continue</p>","0","","","","","",""
"survey-text","412","1174960","0.0-412.0","76051","","","","","","data_patterns","44102.5","","{""Q0"":""words with words \npictures with pictures \nliving beings with living beings \ncapitalized words with capitalized words""}","","","","","",""
"survey-text","413","1177508","0.0-413.0","76051","","","","","","age_question","2545.899999976158","","{""Age"":""23""}","","","","","",""
"html-button-response","414","1179213","0.0-414.0","76051","","","","","","gender_question","1703.3999999761581","How would you like your gender to be recorded?","1","","","","","",""
