"trial_type","trial_index","time_elapsed","internal_node_id","subject","success","timeout","failed_images","failed_audio","failed_video","test_part","rt","stimulus","response","end_time","button_pressed","stim0","stim1","stim2","trialnr"
"pavlovia","0","11","0.0-0.0","73708","","","","","","","","","","","","","","",""
"preload","1","1791","0.0-1.0","73708","true","false","[]","[]","[]","preload","","","","","","","","",""
"html-button-response","2","3874","0.0-2.0","73708","","","","","","","2081.5","<p>Welcome to the experiment. To begin, please read the following and press the button at the bottom of the screen.</p><p></p><p><strong>Project Name: A study on cognitive processes involved in visual perception</p></strong><p></p><p><strong>PARTICIPANT INFORMATION STATEMENT</strong></p><p></p><strong>(1) What is the study about?</strong><br>You are invited to participate in a study that investigates the cognitive processes involved in perceiving and recognizing visual stimuli.If you decide to participate, you will be asked to complete a task in which you will view pictures, letters, numbers, or words presented on a computer screen.<br><strong>(2) Who can participate?</strong><br>Anyone aged 18 years or over with access to a computer (not a phone/tablet)<br><strong>(3) Where is the study located?</strong><br>The study will be conducted in your browser<br><strong>(4) Who is carrying out the study?</strong><br>The study is being conducted by Sophia Shatek from the Computational Cognitive Neuroscience laboratory at the University of Sydney.<br><strong>(5) What does the study involve?</strong><br>In this study, you will be asked to perform tasks where you will see different stimuli appear on the computer screen.You will respond by pressing a key or using a computer mouse.<br><strong>(6) How much time will the study take?</strong><br>The study takes about 30 minutes<br><strong>(7)	Can I withdraw from the study?</strong><br>Being in this study is completely voluntary - you are not under any obligation to consent. You can withdraw at any time without having to give a reason and without penalty.<br><strong>(8) Will anyone else know the results?</strong><br>All aspects of the study, including results, will be strictly confidential and only the researchers will have access to information on participants.The results and data from the study may be submitted for publication or shared with other research labs, but individual participants will not be identifiable.<br><strong>(9) Will the study benefit me?</strong><br>You will be awarded 0.5 credits for your participation.<br><strong>(10) Can I tell other people about the study?</strong><br>Yes, please tell them to contact Dr Thomas Carlson by email at thomas.carlson@sydney.edu.au.<br><strong>(11) What if I require further information about the study or my involvement in it?</strong><br>When you have read this information, the investigator will discuss it with you further and answer any questions you may have.If you would like to know more at any stage, please feel free to contact Dr Thomas Carlson directly by email at thomas.carlson@sydney.edu.au.If you would like to be informed about the outcomes of the study, contact Dr Thomas Carlson directly by email at thomas.carlson@sydney.edu.au.<br><strong>(12) What if I have a complaint or any concerns?</strong><br>Any person with concerns or complaints about the conduct of a research study can contact The Manager,Human Ethics Administration, University of Sydney on +61 2 8627 8176 (Telephone); +61 2 8627 8177 (Facsimile) or ro.humanethics@sydney.edu.au (Email).</p><p></p><strong>By participating in this experiment, you consent to participate in this study and acknowledge that:</strong><br>1. The procedures required for the project and the times involved have been explained to me, and any questions I have about the project have been answered to my satisfaction.<br>2.	I have read the Above Information Statement and have been given the opportunity to discuss the information and my involvement in the project with the researcher/s.<br>3. I understand that allowing my data to be used in research reports is completely voluntary - I am not under any obligation to consent.<br>4. I understand that my involvement is strictly confidential. I understand that any research data gathered from the results of the study may be publishedhowever no information about me will be used in any way that is identifiable.</p><p></p>","0","","","","","",""
"html-button-response","3","4991","0.0-3.0","73708","","","","","","opening_instructions","1114.9000000059605","<p>In this experiment, you will see three images appear on the screen.</p><p>You need to click the 'odd one out', or the image </p><p>that LOOKS MOST DIFFERENT to the other two. </p><p>Just go with your intuition, don't spend too long thinking about each one.</p>","0","8507.200000017881","","","","",""
"html-button-response-mod","4","6640","0.0-4.0","73708","","","","","","triplet","1645.5999999940395","","","","0","stimuli/bird_uppercase.png","stimuli/stim009_animate_face_1.png","stimuli/stim016_inanimate_boats_4.png","0"
"html-button-response-mod","5","7808","0.0-5.0","73708","","","","","","triplet","663.3000000119209","","","","0","stimuli/stim004_animate_fish_4.png","stimuli/stim020_inanimate_tree_4.png","stimuli/stim023_inanimate_tools_3.png","1"
"html-button-response-mod","6","9275","0.0-6.0","73708","","","","","","triplet","963.5999999940395","","","","1","stimuli/boats_uppercase.png","stimuli/stim008_animate_bird_4.png","stimuli/tools_uppercase.png","2"
"html-button-response-mod","7","10841","0.0-7.0","73708","","","","","","triplet","1062.9000000059605","","","","1","stimuli/stim001_animate_fish_1.png","stimuli/fish_uppercase.png","stimuli/stim004_animate_fish_4.png","3"
"html-button-response-mod","8","12175","0.0-8.0","73708","","","","","","triplet","828.9000000059605","","","","2","stimuli/stim003_animate_fish_3.png","stimuli/stim001_animate_fish_1.png","stimuli/bird_lowercase.png","4"
"html-button-response-mod","9","13425","0.0-9.0","73708","","","","","","triplet","745.2999999821186","","","","1","stimuli/stim001_animate_fish_1.png","stimuli/boats_uppercase.png","stimuli/stim012_animate_face_4.png","5"
"html-button-response-mod","10","14891","0.0-10.0","73708","","","","","","triplet","962.6999999880791","","","","1","stimuli/stim021_inanimate_tools_1.png","stimuli/face_uppercase.png","stimuli/stim014_inanimate_boats_2.png","6"
"html-button-response-mod","11","16057","0.0-11.0","73708","","","","","","triplet","659","","","","2","stimuli/stim003_animate_fish_3.png","stimuli/stim022_inanimate_tools_2.png","stimuli/face_uppercase.png","7"
"html-button-response-mod","12","16990","0.0-12.0","73708","","","","","","triplet","427.80000001192093","","","","1","stimuli/stim010_animate_face_2.png","stimuli/face_uppercase.png","stimuli/stim021_inanimate_tools_1.png","8"
"html-button-response-mod","13","18741","0.0-13.0","73708","","","","","","triplet","1246.2000000178814","","","","2","stimuli/face_lowercase.png","stimuli/tree_lowercase.png","stimuli/boats_uppercase.png","9"
"html-button-response-mod","14","19608","0.0-14.0","73708","","","","","","triplet","363.39999997615814","","","","2","stimuli/fish_uppercase.png","stimuli/fish_lowercase.png","stimuli/boats_uppercase.png","10"
"html-button-response-mod","15","20525","0.0-15.0","73708","","","","","","triplet","412.40000000596046","","","","1","stimuli/stim004_animate_fish_4.png","stimuli/stim012_animate_face_4.png","stimuli/fish_lowercase.png","11"
"html-button-response-mod","16","21941","0.0-16.0","73708","","","","","","triplet","911.7999999821186","","","","1","stimuli/stim008_animate_bird_4.png","stimuli/stim023_inanimate_tools_3.png","stimuli/stim020_inanimate_tree_4.png","12"
"html-button-response-mod","17","23224","0.0-17.0","73708","","","","","","triplet","779.9000000059605","","","","2","stimuli/tree_uppercase.png","stimuli/boats_lowercase.png","stimuli/stim018_inanimate_tree_2.png","13"
"html-button-response-mod","18","24342","0.0-18.0","73708","","","","","","triplet","612.5999999940395","","","","1","stimuli/tree_lowercase.png","stimuli/stim008_animate_bird_4.png","stimuli/boats_lowercase.png","14"
"html-button-response-mod","19","25675","0.0-19.0","73708","","","","","","triplet","829.9000000059605","","","","0","stimuli/stim003_animate_fish_3.png","stimuli/tree_lowercase.png","stimuli/stim002_animate_fish_2.png","15"
"html-button-response-mod","20","26707","0.0-20.0","73708","","","","","","triplet","529.1999999880791","","","","2","stimuli/fish_uppercase.png","stimuli/stim014_inanimate_boats_2.png","stimuli/bird_lowercase.png","16"
"html-button-response-mod","21","27558","0.0-21.0","73708","","","","","","triplet","347.60000002384186","","","","0","stimuli/tools_lowercase.png","stimuli/stim007_animate_bird_3.png","stimuli/fish_uppercase.png","17"
"html-button-response-mod","22","28825","0.0-22.0","73708","","","","","","triplet","762.9000000059605","","","","2","stimuli/stim022_inanimate_tools_2.png","stimuli/stim005_animate_bird_1.png","stimuli/bird_uppercase.png","18"
"html-button-response-mod","23","30769","0.0-23.0","73708","","","","","","triplet","1438.6000000238419","","","","0","stimuli/stim011_animate_face_3.png","stimuli/stim009_animate_face_1.png","stimuli/stim019_inanimate_tree_3.png","19"
"html-button-response-mod","24","31625","0.0-24.0","73708","","","","","","triplet","352.2000000178814","","","","2","stimuli/stim016_inanimate_boats_4.png","stimuli/stim010_animate_face_2.png","stimuli/stim014_inanimate_boats_2.png","20"
"html-button-response-mod","25","32774","0.0-25.0","73708","","","","","","triplet","645.3999999761581","","","","1","stimuli/stim005_animate_bird_1.png","stimuli/stim013_inanimate_boats_1.png","stimuli/boats_uppercase.png","21"
"html-button-response-mod","26","33725","0.0-26.0","73708","","","","","","triplet","445.7999999821186","","","","0","stimuli/stim001_animate_fish_1.png","stimuli/fish_lowercase.png","stimuli/stim012_animate_face_4.png","22"
"html-button-response-mod","27","34658","0.0-27.0","73708","","","","","","triplet","428.7999999821186","","","","1","stimuli/stim018_inanimate_tree_2.png","stimuli/boats_lowercase.png","stimuli/tools_uppercase.png","23"
"html-button-response-mod","28","35541","0.0-28.0","73708","","","","","","triplet","378.69999998807907","","","","2","stimuli/stim016_inanimate_boats_4.png","stimuli/stim010_animate_face_2.png","stimuli/stim009_animate_face_1.png","24"
"html-button-response-mod","29","36425","0.0-29.0","73708","","","","","","triplet","378.80000001192093","","","","0","stimuli/fish_lowercase.png","stimuli/tools_lowercase.png","stimuli/stim007_animate_bird_3.png","25"
"html-button-response-mod","30","37140","0.0-30.0","73708","","","","","","triplet","212.2999999821186","","","","2","stimuli/stim020_inanimate_tree_4.png","stimuli/stim004_animate_fish_4.png","stimuli/stim022_inanimate_tools_2.png","26"
"html-button-response-mod","31","37974","0.0-31.0","73708","","","","","","triplet","329.40000000596046","","","","0","stimuli/face_lowercase.png","stimuli/tree_uppercase.png","stimuli/stim004_animate_fish_4.png","27"
"html-button-response-mod","32","38690","0.0-32.0","73708","","","","","","triplet","212.59999999403954","","","","2","stimuli/tools_uppercase.png","stimuli/stim010_animate_face_2.png","stimuli/stim024_inanimate_tools_4.png","28"
"html-button-response-mod","33","40091","0.0-33.0","73708","","","","","","triplet","896.5999999940395","","","","0","stimuli/stim014_inanimate_boats_2.png","stimuli/stim024_inanimate_tools_4.png","stimuli/tree_uppercase.png","29"
"html-button-response-mod","34","40957","0.0-34.0","73708","","","","","","triplet","362.30000001192093","","","","2","stimuli/stim010_animate_face_2.png","stimuli/stim006_animate_bird_2.png","stimuli/fish_lowercase.png","30"
"html-button-response-mod","35","42140","0.0-35.0","73708","","","","","","triplet","679.1999999880791","","","","1","stimuli/tree_uppercase.png","stimuli/boats_lowercase.png","stimuli/tools_lowercase.png","31"
"html-button-response-mod","36","43008","0.0-36.0","73708","","","","","","triplet","364.5","","","","1","stimuli/stim015_inanimate_boats_3.png","stimuli/tools_lowercase.png","stimuli/stim020_inanimate_tree_4.png","32"
"html-button-response-mod","37","43974","0.0-37.0","73708","","","","","","triplet","461.7999999821186","","","","2","stimuli/stim001_animate_fish_1.png","stimuli/stim022_inanimate_tools_2.png","stimuli/tools_uppercase.png","33"
"html-button-response-mod","38","44857","0.0-38.0","73708","","","","","","triplet","379.30000001192093","","","","0","stimuli/stim006_animate_bird_2.png","stimuli/stim001_animate_fish_1.png","stimuli/fish_lowercase.png","34"
"html-button-response-mod","39","46491","0.0-39.0","73708","","","","","","triplet","1130.4000000059605","","","","0","stimuli/stim018_inanimate_tree_2.png","stimuli/stim004_animate_fish_4.png","stimuli/stim016_inanimate_boats_4.png","35"
"html-button-response-mod","40","47240","0.0-40.0","73708","","","","","","triplet","246","","","","1","stimuli/stim024_inanimate_tools_4.png","stimuli/stim022_inanimate_tools_2.png","stimuli/stim006_animate_bird_2.png","36"
"html-button-response-mod","41","47941","0.0-41.0","73708","","","","","","triplet","195.7000000178814","","","","2","stimuli/tree_lowercase.png","stimuli/stim021_inanimate_tools_1.png","stimuli/stim001_animate_fish_1.png","37"
"html-button-response-mod","42","48690","0.0-42.0","73708","","","","","","triplet","246.09999999403954","","","","1","stimuli/stim024_inanimate_tools_4.png","stimuli/stim020_inanimate_tree_4.png","stimuli/stim007_animate_bird_3.png","38"
"html-button-response-mod","43","49424","0.0-43.0","73708","","","","","","triplet","229","","","","0","stimuli/tools_lowercase.png","stimuli/stim010_animate_face_2.png","stimuli/stim005_animate_bird_1.png","39"
"html-button-response-mod","44","50092","0.0-44.0","73708","","","","","","triplet","163.80000001192093","","","","2","stimuli/stim011_animate_face_3.png","stimuli/boats_uppercase.png","stimuli/stim021_inanimate_tools_1.png","40"
"html-button-response-mod","45","50808","0.0-45.0","73708","","","","","","triplet","213.5","","","","0","stimuli/face_lowercase.png","stimuli/bird_lowercase.png","stimuli/stim018_inanimate_tree_2.png","41"
"html-button-response-mod","46","51458","0.0-46.0","73708","","","","","","triplet","144.80000001192093","","","","2","stimuli/stim004_animate_fish_4.png","stimuli/stim001_animate_fish_1.png","stimuli/stim009_animate_face_1.png","42"
"html-button-response-mod","47","52341","0.0-47.0","73708","","","","","","triplet","378.69999998807907","","","","2","stimuli/stim020_inanimate_tree_4.png","stimuli/stim004_animate_fish_4.png","stimuli/boats_lowercase.png","43"
"html-button-response-mod","48","53024","0.0-48.0","73708","","","","","","triplet","179.19999998807907","","","","0","stimuli/stim002_animate_fish_2.png","stimuli/stim023_inanimate_tools_3.png","stimuli/stim020_inanimate_tree_4.png","44"
"html-button-response-mod","49","53691","0.0-49.0","73708","","","","","","triplet","163.2000000178814","","","","2","stimuli/stim003_animate_fish_3.png","stimuli/stim021_inanimate_tools_1.png","stimuli/stim017_inanimate_tree_1.png","45"
"html-button-response-mod","50","55674","0.0-50.0","73708","","","","","","triplet","1479","","","","1","stimuli/tools_uppercase.png","stimuli/stim013_inanimate_boats_1.png","stimuli/boats_lowercase.png","46"
"html-button-response-mod","51","57176","0.0-51.0","73708","","","","","","triplet","997.3999999761581","","","","0","stimuli/stim003_animate_fish_3.png","stimuli/stim011_animate_face_3.png","stimuli/stim019_inanimate_tree_3.png","47"
"html-button-response-mod","52","58107","0.0-52.0","73708","","","","","","triplet","426.59999999403954","","","","1","stimuli/boats_lowercase.png","stimuli/stim009_animate_face_1.png","stimuli/bird_lowercase.png","48"
"html-button-response-mod","53","58941","0.0-53.0","73708","","","","","","triplet","328.59999999403954","","","","0","stimuli/boats_lowercase.png","stimuli/tree_uppercase.png","stimuli/stim024_inanimate_tools_4.png","49"
"html-button-response","54","60474","0.0-54.0","73708","","","","","","break","1030","<p>BREAK</p><p>Take a break for as long as you need</p><p>Click the button to continue</p>","0","","","","","",""
"html-button-response-mod","55","61107","0.0-55.0","73708","","","","","","triplet","630.0999999940395","","","","0","stimuli/stim010_animate_face_2.png","stimuli/stim008_animate_bird_4.png","stimuli/fish_lowercase.png","50"
"html-button-response-mod","56","61958","0.0-56.0","73708","","","","","","triplet","347.5","","","","1","stimuli/stim005_animate_bird_1.png","stimuli/stim014_inanimate_boats_2.png","stimuli/stim007_animate_bird_3.png","51"
"html-button-response-mod","57","62824","0.0-57.0","73708","","","","","","triplet","361.2000000178814","","","","0","stimuli/bird_uppercase.png","stimuli/fish_lowercase.png","stimuli/stim003_animate_fish_3.png","52"
"html-button-response-mod","58","63875","0.0-58.0","73708","","","","","","triplet","547.5999999940395","","","","2","stimuli/stim020_inanimate_tree_4.png","stimuli/bird_lowercase.png","stimuli/stim017_inanimate_tree_1.png","53"
"html-button-response-mod","59","64657","0.0-59.0","73708","","","","","","triplet","273.89999997615814","","","","0","stimuli/stim018_inanimate_tree_2.png","stimuli/stim020_inanimate_tree_4.png","stimuli/stim017_inanimate_tree_1.png","54"
"html-button-response-mod","60","65408","0.0-60.0","73708","","","","","","triplet","247.69999998807907","","","","2","stimuli/bird_uppercase.png","stimuli/stim002_animate_fish_2.png","stimuli/face_uppercase.png","55"
"html-button-response-mod","61","66308","0.0-61.0","73708","","","","","","triplet","394.09999999403954","","","","0","stimuli/stim015_inanimate_boats_3.png","stimuli/fish_uppercase.png","stimuli/stim016_inanimate_boats_4.png","56"
"html-button-response-mod","62","67024","0.0-62.0","73708","","","","","","triplet","212.10000002384186","","","","2","stimuli/stim004_animate_fish_4.png","stimuli/bird_lowercase.png","stimuli/fish_uppercase.png","57"
"html-button-response-mod","63","67723","0.0-63.0","73708","","","","","","triplet","195.19999998807907","","","","2","stimuli/stim021_inanimate_tools_1.png","stimuli/tools_uppercase.png","stimuli/tree_uppercase.png","58"
"html-button-response-mod","64","68458","0.0-64.0","73708","","","","","","triplet","229.5","","","","2","stimuli/tree_lowercase.png","stimuli/stim005_animate_bird_1.png","stimuli/tools_lowercase.png","59"
"html-button-response-mod","65","69225","0.0-65.0","73708","","","","","","triplet","263.30000001192093","","","","1","stimuli/stim019_inanimate_tree_3.png","stimuli/stim006_animate_bird_2.png","stimuli/stim011_animate_face_3.png","60"
"html-button-response-mod","66","69990","0.0-66.0","73708","","","","","","triplet","260","","","","2","stimuli/tree_lowercase.png","stimuli/stim019_inanimate_tree_3.png","stimuli/face_uppercase.png","61"
"html-button-response-mod","67","70959","0.0-67.0","73708","","","","","","triplet","463.5","","","","0","stimuli/stim007_animate_bird_3.png","stimuli/boats_lowercase.png","stimuli/tree_lowercase.png","62"
"html-button-response-mod","68","71742","0.0-68.0","73708","","","","","","triplet","277.80000001192093","","","","1","stimuli/fish_uppercase.png","stimuli/tools_uppercase.png","stimuli/stim004_animate_fish_4.png","63"
"html-button-response-mod","69","72457","0.0-69.0","73708","","","","","","triplet","210.7999999821186","","","","2","stimuli/stim002_animate_fish_2.png","stimuli/stim008_animate_bird_4.png","stimuli/stim017_inanimate_tree_1.png","64"
"html-button-response-mod","70","73191","0.0-70.0","73708","","","","","","triplet","230.90000000596046","","","","1","stimuli/stim021_inanimate_tools_1.png","stimuli/tools_uppercase.png","stimuli/stim004_animate_fish_4.png","65"
"html-button-response-mod","71","73940","0.0-71.0","73708","","","","","","triplet","245","","","","2","stimuli/bird_uppercase.png","stimuli/stim015_inanimate_boats_3.png","stimuli/stim018_inanimate_tree_2.png","66"
"html-button-response-mod","72","74673","0.0-72.0","73708","","","","","","triplet","230.7000000178814","","","","1","stimuli/boats_lowercase.png","stimuli/stim014_inanimate_boats_2.png","stimuli/face_uppercase.png","67"
"html-button-response-mod","73","75357","0.0-73.0","73708","","","","","","triplet","179.10000002384186","","","","2","stimuli/stim018_inanimate_tree_2.png","stimuli/stim001_animate_fish_1.png","stimuli/stim008_animate_bird_4.png","68"
"html-button-response-mod","74","76108","0.0-74.0","73708","","","","","","triplet","246.5","","","","2","stimuli/fish_lowercase.png","stimuli/boats_uppercase.png","stimuli/stim018_inanimate_tree_2.png","69"
"html-button-response-mod","75","76807","0.0-75.0","73708","","","","","","triplet","191.7999999821186","","","","2","stimuli/tree_uppercase.png","stimuli/fish_lowercase.png","stimuli/stim018_inanimate_tree_2.png","70"
"html-button-response-mod","76","77690","0.0-76.0","73708","","","","","","triplet","379.30000001192093","","","","0","stimuli/tree_lowercase.png","stimuli/tools_lowercase.png","stimuli/stim018_inanimate_tree_2.png","71"
"html-button-response-mod","77","78541","0.0-77.0","73708","","","","","","triplet","345.7999999821186","","","","2","stimuli/stim020_inanimate_tree_4.png","stimuli/stim018_inanimate_tree_2.png","stimuli/face_lowercase.png","72"
"html-button-response-mod","78","79291","0.0-78.0","73708","","","","","","triplet","247.39999997615814","","","","1","stimuli/stim007_animate_bird_3.png","stimuli/stim022_inanimate_tools_2.png","stimuli/stim020_inanimate_tree_4.png","73"
"html-button-response-mod","79","80040","0.0-79.0","73708","","","","","","triplet","245.5","","","","2","stimuli/tree_lowercase.png","stimuli/stim007_animate_bird_3.png","stimuli/stim010_animate_face_2.png","74"
"html-button-response-mod","80","80726","0.0-80.0","73708","","","","","","triplet","182.40000000596046","","","","1","stimuli/boats_uppercase.png","stimuli/stim011_animate_face_3.png","stimuli/tree_uppercase.png","75"
"html-button-response-mod","81","81458","0.0-81.0","73708","","","","","","triplet","229.19999998807907","","","","2","stimuli/stim003_animate_fish_3.png","stimuli/tools_uppercase.png","stimuli/stim018_inanimate_tree_2.png","76"
"html-button-response-mod","82","82140","0.0-82.0","73708","","","","","","triplet","173.19999998807907","","","","0","stimuli/stim015_inanimate_boats_3.png","stimuli/boats_lowercase.png","stimuli/stim004_animate_fish_4.png","77"
"html-button-response-mod","83","82807","0.0-83.0","73708","","","","","","triplet","162.89999997615814","","","","1","stimuli/bird_uppercase.png","stimuli/stim015_inanimate_boats_3.png","stimuli/stim013_inanimate_boats_1.png","78"
"html-button-response-mod","84","83991","0.0-84.0","73708","","","","","","triplet","680.3000000119209","","","","1","stimuli/fish_uppercase.png","stimuli/stim019_inanimate_tree_3.png","stimuli/fish_lowercase.png","79"
"html-button-response-mod","85","84757","0.0-85.0","73708","","","","","","triplet","260.80000001192093","","","","2","stimuli/stim019_inanimate_tree_3.png","stimuli/stim012_animate_face_4.png","stimuli/fish_lowercase.png","80"
"html-button-response-mod","86","85641","0.0-86.0","73708","","","","","","triplet","379.90000000596046","","","","2","stimuli/stim006_animate_bird_2.png","stimuli/face_uppercase.png","stimuli/stim009_animate_face_1.png","81"
"html-button-response-mod","87","86474","0.0-87.0","73708","","","","","","triplet","329.7999999821186","","","","2","stimuli/stim004_animate_fish_4.png","stimuli/stim003_animate_fish_3.png","stimuli/fish_lowercase.png","82"
"html-button-response-mod","88","87841","0.0-88.0","73708","","","","","","triplet","862.9000000059605","","","","1","stimuli/stim015_inanimate_boats_3.png","stimuli/tools_lowercase.png","stimuli/stim017_inanimate_tree_1.png","83"
"html-button-response-mod","89","88608","0.0-89.0","73708","","","","","","triplet","262.59999999403954","","","","2","stimuli/fish_lowercase.png","stimuli/tree_lowercase.png","stimuli/stim023_inanimate_tools_3.png","84"
"html-button-response-mod","90","89424","0.0-90.0","73708","","","","","","triplet","313.09999999403954","","","","1","stimuli/stim018_inanimate_tree_2.png","stimuli/stim017_inanimate_tree_1.png","stimuli/stim014_inanimate_boats_2.png","85"
"html-button-response-mod","91","90174","0.0-91.0","73708","","","","","","triplet","245.7999999821186","","","","2","stimuli/stim007_animate_bird_3.png","stimuli/tree_uppercase.png","stimuli/boats_lowercase.png","86"
"html-button-response-mod","92","90973","0.0-92.0","73708","","","","","","triplet","295.90000000596046","","","","0","stimuli/stim006_animate_bird_2.png","stimuli/stim012_animate_face_4.png","stimuli/stim016_inanimate_boats_4.png","87"
"html-button-response-mod","93","91807","0.0-93.0","73708","","","","","","triplet","329.30000001192093","","","","2","stimuli/stim011_animate_face_3.png","stimuli/stim005_animate_bird_1.png","stimuli/stim002_animate_fish_2.png","88"
"html-button-response-mod","94","92490","0.0-94.0","73708","","","","","","triplet","179.2000000178814","","","","1","stimuli/boats_lowercase.png","stimuli/stim007_animate_bird_3.png","stimuli/stim018_inanimate_tree_2.png","89"
"html-button-response-mod","95","93291","0.0-95.0","73708","","","","","","triplet","295.5","","","","2","stimuli/fish_uppercase.png","stimuli/face_uppercase.png","stimuli/tools_lowercase.png","90"
"html-button-response-mod","96","94024","0.0-96.0","73708","","","","","","triplet","229","","","","1","stimuli/stim009_animate_face_1.png","stimuli/stim017_inanimate_tree_1.png","stimuli/stim021_inanimate_tools_1.png","91"
"html-button-response-mod","97","94741","0.0-97.0","73708","","","","","","triplet","213.2000000178814","","","","2","stimuli/bird_lowercase.png","stimuli/stim021_inanimate_tools_1.png","stimuli/bird_uppercase.png","92"
"html-button-response-mod","98","95658","0.0-98.0","73708","","","","","","triplet","409.59999999403954","","","","2","stimuli/stim003_animate_fish_3.png","stimuli/bird_uppercase.png","stimuli/stim007_animate_bird_3.png","93"
"html-button-response-mod","99","96857","0.0-99.0","73708","","","","","","triplet","695.2000000178814","","","","2","stimuli/tools_lowercase.png","stimuli/stim011_animate_face_3.png","stimuli/face_uppercase.png","94"
"html-button-response-mod","100","97758","0.0-100.0","73708","","","","","","triplet","396.2999999821186","","","","0","stimuli/stim023_inanimate_tools_3.png","stimuli/stim019_inanimate_tree_3.png","stimuli/boats_lowercase.png","95"
"html-button-response-mod","101","123590","0.0-101.0","73708","","","","","","triplet","25329.5","","","","0","stimuli/stim008_animate_bird_4.png","stimuli/boats_lowercase.png","stimuli/bird_lowercase.png","96"
"html-button-response-mod","102","126074","0.0-102.0","73708","","","","","","triplet","1975.2000000178814","","","","2","stimuli/stim021_inanimate_tools_1.png","stimuli/stim022_inanimate_tools_2.png","stimuli/stim012_animate_face_4.png","97"
"html-button-response-mod","103","127707","0.0-103.0","73708","","","","","","triplet","1127.9000000059605","","","","0","stimuli/face_lowercase.png","stimuli/stim022_inanimate_tools_2.png","stimuli/stim007_animate_bird_3.png","98"
"html-button-response-mod","104","129140","0.0-104.0","73708","","","","","","triplet","927.6999999880791","","","","0","stimuli/stim016_inanimate_boats_4.png","stimuli/boats_lowercase.png","stimuli/tree_uppercase.png","99"
"html-button-response","105","130640","0.0-105.0","73708","","","","","","break","993.6999999880791","<p>BREAK</p><p>Take a break for as long as you need</p><p>Click the button to continue</p>","0","","","","","",""
"html-button-response-mod","106","131790","0.0-106.0","73708","","","","","","triplet","1148.0999999940395","","","","0","stimuli/fish_lowercase.png","stimuli/stim019_inanimate_tree_3.png","stimuli/stim016_inanimate_boats_4.png","100"
"html-button-response-mod","107","132973","0.0-107.0","73708","","","","","","triplet","675.3000000119209","","","","0","stimuli/boats_uppercase.png","stimuli/stim019_inanimate_tree_3.png","stimuli/stim021_inanimate_tools_1.png","101"
"html-button-response-mod","108","134173","0.0-108.0","73708","","","","","","triplet","694.1999999880791","","","","1","stimuli/boats_lowercase.png","stimuli/stim002_animate_fish_2.png","stimuli/face_lowercase.png","102"
"html-button-response-mod","109","139557","0.0-109.0","73708","","","","","","triplet","4878.0999999940395","","","","2","stimuli/stim020_inanimate_tree_4.png","stimuli/stim022_inanimate_tools_2.png","stimuli/bird_lowercase.png","103"
"html-button-response-mod","110","141058","0.0-110.0","73708","","","","","","triplet","997.8999999761581","","","","1","stimuli/stim021_inanimate_tools_1.png","stimuli/stim019_inanimate_tree_3.png","stimuli/stim023_inanimate_tools_3.png","104"
"html-button-response-mod","111","142007","0.0-111.0","73708","","","","","","triplet","443.40000000596046","","","","0","stimuli/stim020_inanimate_tree_4.png","stimuli/stim010_animate_face_2.png","stimuli/stim004_animate_fish_4.png","105"
"html-button-response-mod","112","142974","0.0-112.0","73708","","","","","","triplet","460.09999999403954","","","","0","stimuli/tools_uppercase.png","stimuli/stim003_animate_fish_3.png","stimuli/tree_lowercase.png","106"
"html-button-response-mod","113","143708","0.0-113.0","73708","","","","","","triplet","230.40000000596046","","","","1","stimuli/stim019_inanimate_tree_3.png","stimuli/stim002_animate_fish_2.png","stimuli/tools_lowercase.png","107"
"html-button-response-mod","114","144474","0.0-114.0","73708","","","","","","triplet","262.19999998807907","","","","2","stimuli/stim024_inanimate_tools_4.png","stimuli/stim008_animate_bird_4.png","stimuli/stim021_inanimate_tools_1.png","108"
"html-button-response-mod","115","145258","0.0-115.0","73708","","","","","","triplet","281.60000002384186","","","","0","stimuli/stim013_inanimate_boats_1.png","stimuli/boats_uppercase.png","stimuli/stim003_animate_fish_3.png","109"
"html-button-response-mod","116","146007","0.0-116.0","73708","","","","","","triplet","245.10000002384186","","","","1","stimuli/tools_uppercase.png","stimuli/stim024_inanimate_tools_4.png","stimuli/stim005_animate_bird_1.png","110"
"html-button-response-mod","117","146939","0.0-117.0","73708","","","","","","triplet","424","","","","2","stimuli/bird_uppercase.png","stimuli/stim002_animate_fish_2.png","stimuli/tree_uppercase.png","111"
"html-button-response-mod","118","147707","0.0-118.0","73708","","","","","","triplet","263.39999997615814","","","","0","stimuli/stim024_inanimate_tools_4.png","stimuli/stim006_animate_bird_2.png","stimuli/fish_uppercase.png","112"
"html-button-response-mod","119","149558","0.0-119.0","73708","","","","","","triplet","1347.5999999940395","","","","2","stimuli/stim012_animate_face_4.png","stimuli/stim022_inanimate_tools_2.png","stimuli/stim018_inanimate_tree_2.png","113"
"html-button-response-mod","120","150890","0.0-120.0","73708","","","","","","triplet","829.3000000119209","","","","0","stimuli/stim010_animate_face_2.png","stimuli/stim020_inanimate_tree_4.png","stimuli/stim019_inanimate_tree_3.png","114"
"html-button-response-mod","121","152558","0.0-121.0","73708","","","","","","triplet","1164","","","","2","stimuli/stim013_inanimate_boats_1.png","stimuli/stim001_animate_fish_1.png","stimuli/tree_uppercase.png","115"
"html-button-response-mod","122","153792","0.0-122.0","73708","","","","","","triplet","729.5999999940395","","","","2","stimuli/face_lowercase.png","stimuli/fish_lowercase.png","stimuli/boats_uppercase.png","116"
"html-button-response-mod","123","155107","0.0-123.0","73708","","","","","","triplet","809.7999999821186","","","","2","stimuli/stim002_animate_fish_2.png","stimuli/stim001_animate_fish_1.png","stimuli/stim024_inanimate_tools_4.png","117"
"html-button-response-mod","124","156208","0.0-124.0","73708","","","","","","triplet","597.7000000178814","","","","0","stimuli/tree_lowercase.png","stimuli/stim017_inanimate_tree_1.png","stimuli/stim020_inanimate_tree_4.png","118"
"html-button-response-mod","125","157574","0.0-125.0","73708","","","","","","triplet","857.3999999761581","","","","0","stimuli/boats_lowercase.png","stimuli/stim015_inanimate_boats_3.png","stimuli/stim016_inanimate_boats_4.png","119"
"html-button-response-mod","126","159124","0.0-126.0","73708","","","","","","triplet","1043.300000011921","","","","0","stimuli/face_uppercase.png","stimuli/stim012_animate_face_4.png","stimuli/stim017_inanimate_tree_1.png","120"
"html-button-response-mod","127","160341","0.0-127.0","73708","","","","","","triplet","713.5999999940395","","","","0","stimuli/stim021_inanimate_tools_1.png","stimuli/tree_uppercase.png","stimuli/stim019_inanimate_tree_3.png","121"
"html-button-response-mod","128","161724","0.0-128.0","73708","","","","","","triplet","874.8000000119209","","","","2","stimuli/stim017_inanimate_tree_1.png","stimuli/stim018_inanimate_tree_2.png","stimuli/stim008_animate_bird_4.png","122"
"html-button-response-mod","129","162708","0.0-129.0","73708","","","","","","triplet","477.19999998807907","","","","2","stimuli/fish_uppercase.png","stimuli/face_lowercase.png","stimuli/stim008_animate_bird_4.png","123"
"html-button-response-mod","130","164108","0.0-130.0","73708","","","","","","triplet","891.1000000238419","","","","0","stimuli/fish_lowercase.png","stimuli/stim013_inanimate_boats_1.png","stimuli/stim024_inanimate_tools_4.png","124"
"html-button-response-mod","131","165890","0.0-131.0","73708","","","","","","triplet","1275.9000000059605","","","","0","stimuli/stim018_inanimate_tree_2.png","stimuli/stim011_animate_face_3.png","stimuli/stim023_inanimate_tools_3.png","125"
"html-button-response-mod","132","166823","0.0-132.0","73708","","","","","","triplet","429.59999999403954","","","","1","stimuli/stim013_inanimate_boats_1.png","stimuli/stim006_animate_bird_2.png","stimuli/stim014_inanimate_boats_2.png","126"
"html-button-response-mod","133","168690","0.0-133.0","73708","","","","","","triplet","1364.5999999940395","","","","2","stimuli/stim017_inanimate_tree_1.png","stimuli/stim022_inanimate_tools_2.png","stimuli/stim008_animate_bird_4.png","127"
"html-button-response-mod","134","169641","0.0-134.0","73708","","","","","","triplet","446.59999999403954","","","","1","stimuli/bird_uppercase.png","stimuli/tools_lowercase.png","stimuli/stim003_animate_fish_3.png","128"
"html-button-response-mod","135","171157","0.0-135.0","73708","","","","","","triplet","1008.9000000059605","","","","1","stimuli/stim007_animate_bird_3.png","stimuli/stim005_animate_bird_1.png","stimuli/stim010_animate_face_2.png","129"
"html-button-response-mod","136","172791","0.0-136.0","73708","","","","","","triplet","1126","","","","1","stimuli/stim008_animate_bird_4.png","stimuli/bird_uppercase.png","stimuli/stim009_animate_face_1.png","130"
"html-button-response-mod","137","173675","0.0-137.0","73708","","","","","","triplet","379.5","","","","0","stimuli/stim007_animate_bird_3.png","stimuli/tools_lowercase.png","stimuli/stim016_inanimate_boats_4.png","131"
"html-button-response-mod","138","174626","0.0-138.0","73708","","","","","","triplet","444.7000000178814","","","","2","stimuli/tools_uppercase.png","stimuli/stim019_inanimate_tree_3.png","stimuli/stim023_inanimate_tools_3.png","132"
"html-button-response-mod","139","175475","0.0-139.0","73708","","","","","","triplet","343.09999999403954","","","","1","stimuli/stim024_inanimate_tools_4.png","stimuli/fish_uppercase.png","stimuli/bird_lowercase.png","133"
"html-button-response-mod","140","176692","0.0-140.0","73708","","","","","","triplet","709.1000000238419","","","","0","stimuli/stim016_inanimate_boats_4.png","stimuli/face_lowercase.png","stimuli/stim006_animate_bird_2.png","134"
"html-button-response-mod","141","177542","0.0-141.0","73708","","","","","","triplet","346.09999999403954","","","","1","stimuli/stim015_inanimate_boats_3.png","stimuli/bird_lowercase.png","stimuli/stim008_animate_bird_4.png","135"
"html-button-response-mod","142","178324","0.0-142.0","73708","","","","","","triplet","274.90000000596046","","","","2","stimuli/stim005_animate_bird_1.png","stimuli/stim014_inanimate_boats_2.png","stimuli/bird_lowercase.png","136"
"html-button-response-mod","143","179140","0.0-143.0","73708","","","","","","triplet","311.30000001192093","","","","2","stimuli/stim022_inanimate_tools_2.png","stimuli/stim011_animate_face_3.png","stimuli/stim010_animate_face_2.png","137"
"html-button-response-mod","144","179907","0.0-144.0","73708","","","","","","triplet","261.09999999403954","","","","2","stimuli/tree_uppercase.png","stimuli/stim023_inanimate_tools_3.png","stimuli/stim017_inanimate_tree_1.png","138"
"html-button-response-mod","145","181140","0.0-145.0","73708","","","","","","triplet","725.8000000119209","","","","2","stimuli/bird_lowercase.png","stimuli/stim010_animate_face_2.png","stimuli/fish_lowercase.png","139"
"html-button-response-mod","146","182641","0.0-146.0","73708","","","","","","triplet","995.3000000119209","","","","1","stimuli/stim020_inanimate_tree_4.png","stimuli/stim006_animate_bird_2.png","stimuli/stim022_inanimate_tools_2.png","140"
"html-button-response-mod","147","185574","0.0-147.0","73708","","","","","","triplet","2427.300000011921","","","","2","stimuli/bird_uppercase.png","stimuli/stim015_inanimate_boats_3.png","stimuli/fish_lowercase.png","141"
"html-button-response-mod","148","187073","0.0-148.0","73708","","","","","","triplet","990.1999999880791","","","","2","stimuli/face_uppercase.png","stimuli/stim010_animate_face_2.png","stimuli/stim012_animate_face_4.png","142"
"html-button-response-mod","149","189173","0.0-149.0","73708","","","","","","triplet","1597.2000000178814","","","","2","stimuli/stim006_animate_bird_2.png","stimuli/fish_uppercase.png","stimuli/tools_lowercase.png","143"
"html-button-response-mod","150","190339","0.0-150.0","73708","","","","","","triplet","662.5999999940395","","","","0","stimuli/stim005_animate_bird_1.png","stimuli/tools_uppercase.png","stimuli/stim013_inanimate_boats_1.png","144"
"html-button-response-mod","151","192027","0.0-151.0","73708","","","","","","triplet","1185.1000000238419","","","","0","stimuli/tools_lowercase.png","stimuli/stim009_animate_face_1.png","stimuli/stim006_animate_bird_2.png","145"
"html-button-response-mod","152","193191","0.0-152.0","73708","","","","","","triplet","660.3000000119209","","","","1","stimuli/fish_lowercase.png","stimuli/stim018_inanimate_tree_2.png","stimuli/bird_uppercase.png","146"
"html-button-response-mod","153","194041","0.0-153.0","73708","","","","","","triplet","347.2999999821186","","","","2","stimuli/stim021_inanimate_tools_1.png","stimuli/stim006_animate_bird_2.png","stimuli/stim022_inanimate_tools_2.png","147"
"html-button-response-mod","154","195824","0.0-154.0","73708","","","","","","triplet","1274.3999999761581","","","","2","stimuli/stim013_inanimate_boats_1.png","stimuli/stim022_inanimate_tools_2.png","stimuli/tools_lowercase.png","148"
"html-button-response-mod","155","197158","0.0-155.0","73708","","","","","","triplet","826.5999999940395","","","","2","stimuli/stim020_inanimate_tree_4.png","stimuli/stim015_inanimate_boats_3.png","stimuli/tree_uppercase.png","149"
"html-button-response","156","199457","0.0-156.0","73708","","","","","","break","1793.5","<p>BREAK</p><p>Take a break for as long as you need</p><p>Click the button to continue</p>","0","","","","","",""
"html-button-response-mod","157","200157","0.0-157.0","73708","","","","","","triplet","698.4000000059605","","","","0","stimuli/stim005_animate_bird_1.png","stimuli/tools_uppercase.png","stimuli/face_uppercase.png","150"
"html-button-response-mod","158","201057","0.0-158.0","73708","","","","","","triplet","395.40000000596046","","","","1","stimuli/bird_lowercase.png","stimuli/boats_lowercase.png","stimuli/tools_lowercase.png","151"
"html-button-response-mod","159","201757","0.0-159.0","73708","","","","","","triplet","195.80000001192093","","","","2","stimuli/stim002_animate_fish_2.png","stimuli/stim018_inanimate_tree_2.png","stimuli/tools_lowercase.png","152"
"html-button-response-mod","160","203324","0.0-160.0","73708","","","","","","triplet","1064","","","","1","stimuli/stim008_animate_bird_4.png","stimuli/face_lowercase.png","stimuli/stim003_animate_fish_3.png","153"
"html-button-response-mod","161","204206","0.0-161.0","73708","","","","","","triplet","378.59999999403954","","","","2","stimuli/stim017_inanimate_tree_1.png","stimuli/tools_lowercase.png","stimuli/stim014_inanimate_boats_2.png","154"
"html-button-response-mod","162","205107","0.0-162.0","73708","","","","","","triplet","394.69999998807907","","","","0","stimuli/stim019_inanimate_tree_3.png","stimuli/stim005_animate_bird_1.png","stimuli/stim001_animate_fish_1.png","155"
"html-button-response-mod","163","206724","0.0-163.0","73708","","","","","","triplet","1110.6000000238419","","","","0","stimuli/tools_uppercase.png","stimuli/fish_lowercase.png","stimuli/stim014_inanimate_boats_2.png","156"
"html-button-response-mod","164","207790","0.0-164.0","73708","","","","","","triplet","563","","","","1","stimuli/stim020_inanimate_tree_4.png","stimuli/bird_uppercase.png","stimuli/stim008_animate_bird_4.png","157"
"html-button-response-mod","165","208888","0.0-165.0","73708","","","","","","triplet","594.8999999761581","","","","2","stimuli/bird_lowercase.png","stimuli/stim019_inanimate_tree_3.png","stimuli/stim022_inanimate_tools_2.png","158"
"html-button-response-mod","166","210090","0.0-166.0","73708","","","","","","triplet","697.3000000119209","","","","2","stimuli/stim009_animate_face_1.png","stimuli/stim003_animate_fish_3.png","stimuli/tools_lowercase.png","159"
"html-button-response-mod","167","211274","0.0-167.0","73708","","","","","","triplet","679.8000000119209","","","","1","stimuli/face_lowercase.png","stimuli/stim005_animate_bird_1.png","stimuli/stim009_animate_face_1.png","160"
"html-button-response-mod","168","213125","0.0-168.0","73708","","","","","","triplet","1342.0999999940395","","","","0","stimuli/stim020_inanimate_tree_4.png","stimuli/fish_uppercase.png","stimuli/stim024_inanimate_tools_4.png","161"
"html-button-response-mod","169","218241","0.0-169.0","73708","","","","","","triplet","4607.5999999940395","","","","2","stimuli/face_lowercase.png","stimuli/stim007_animate_bird_3.png","stimuli/stim024_inanimate_tools_4.png","162"
"html-button-response-mod","170","220191","0.0-170.0","73708","","","","","","triplet","1441.5999999940395","","","","0","stimuli/stim011_animate_face_3.png","stimuli/tree_lowercase.png","stimuli/stim006_animate_bird_2.png","163"
"html-button-response-mod","171","221223","0.0-171.0","73708","","","","","","triplet","528.5999999940395","","","","1","stimuli/stim010_animate_face_2.png","stimuli/stim022_inanimate_tools_2.png","stimuli/stim020_inanimate_tree_4.png","164"
"html-button-response-mod","172","222523","0.0-172.0","73708","","","","","","triplet","796.2999999821186","","","","2","stimuli/stim002_animate_fish_2.png","stimuli/bird_uppercase.png","stimuli/stim015_inanimate_boats_3.png","165"
"html-button-response-mod","173","223507","0.0-173.0","73708","","","","","","triplet","480.30000001192093","","","","1","stimuli/stim019_inanimate_tree_3.png","stimuli/tools_lowercase.png","stimuli/stim001_animate_fish_1.png","166"
"html-button-response-mod","174","224624","0.0-174.0","73708","","","","","","triplet","612.5999999940395","","","","2","stimuli/stim019_inanimate_tree_3.png","stimuli/face_uppercase.png","stimuli/stim003_animate_fish_3.png","167"
"html-button-response-mod","175","226023","0.0-175.0","73708","","","","","","triplet","890","","","","0","stimuli/stim008_animate_bird_4.png","stimuli/stim012_animate_face_4.png","stimuli/stim007_animate_bird_3.png","168"
"html-button-response-mod","176","227157","0.0-176.0","73708","","","","","","triplet","629.1999999880791","","","","2","stimuli/stim003_animate_fish_3.png","stimuli/tree_lowercase.png","stimuli/boats_uppercase.png","169"
"html-button-response-mod","177","228090","0.0-177.0","73708","","","","","","triplet","429.30000001192093","","","","0","stimuli/stim015_inanimate_boats_3.png","stimuli/stim023_inanimate_tools_3.png","stimuli/stim022_inanimate_tools_2.png","170"
"html-button-response-mod","178","228774","0.0-178.0","73708","","","","","","triplet","180.09999999403954","","","","0","stimuli/stim004_animate_fish_4.png","stimuli/stim014_inanimate_boats_2.png","stimuli/fish_uppercase.png","171"
"html-button-response-mod","179","229774","0.0-179.0","73708","","","","","","triplet","494.7000000178814","","","","0","stimuli/face_uppercase.png","stimuli/face_lowercase.png","stimuli/stim003_animate_fish_3.png","172"
"html-button-response-mod","180","231558","0.0-180.0","73708","","","","","","triplet","1276.800000011921","","","","2","stimuli/stim019_inanimate_tree_3.png","stimuli/stim017_inanimate_tree_1.png","stimuli/stim024_inanimate_tools_4.png","173"
"html-button-response-mod","181","232924","0.0-181.0","73708","","","","","","triplet","860.5","","","","2","stimuli/stim001_animate_fish_1.png","stimuli/stim024_inanimate_tools_4.png","stimuli/stim014_inanimate_boats_2.png","174"
"html-button-response-mod","182","235024","0.0-182.0","73708","","","","","","triplet","1591.5999999940395","","","","2","stimuli/stim002_animate_fish_2.png","stimuli/stim022_inanimate_tools_2.png","stimuli/stim018_inanimate_tree_2.png","175"
"html-button-response-mod","183","237191","0.0-183.0","73708","","","","","","triplet","1661.7000000178814","","","","1","stimuli/stim007_animate_bird_3.png","stimuli/stim019_inanimate_tree_3.png","stimuli/stim011_animate_face_3.png","176"
"html-button-response-mod","184","240174","0.0-184.0","73708","","","","","","triplet","2475.7999999821186","","","","0","stimuli/tools_lowercase.png","stimuli/stim015_inanimate_boats_3.png","stimuli/stim007_animate_bird_3.png","177"
"html-button-response-mod","185","244740","0.0-185.0","73708","","","","","","triplet","4063","","","","2","stimuli/stim019_inanimate_tree_3.png","stimuli/stim008_animate_bird_4.png","stimuli/stim022_inanimate_tools_2.png","178"
"html-button-response-mod","186","245941","0.0-186.0","73708","","","","","","triplet","694","","","","2","stimuli/stim007_animate_bird_3.png","stimuli/stim003_animate_fish_3.png","stimuli/stim012_animate_face_4.png","179"
"html-button-response-mod","187","247107","0.0-187.0","73708","","","","","","triplet","662.2999999821186","","","","1","stimuli/tools_lowercase.png","stimuli/stim004_animate_fish_4.png","stimuli/stim007_animate_bird_3.png","180"
"html-button-response-mod","188","248056","0.0-188.0","73708","","","","","","triplet","444.40000000596046","","","","1","stimuli/stim019_inanimate_tree_3.png","stimuli/bird_uppercase.png","stimuli/stim001_animate_fish_1.png","181"
"html-button-response-mod","189","249057","0.0-189.0","73708","","","","","","triplet","497.89999997615814","","","","2","stimuli/stim018_inanimate_tree_2.png","stimuli/tools_uppercase.png","stimuli/stim015_inanimate_boats_3.png","182"
"html-button-response-mod","190","250091","0.0-190.0","73708","","","","","","triplet","530.5999999940395","","","","2","stimuli/stim018_inanimate_tree_2.png","stimuli/stim003_animate_fish_3.png","stimuli/stim021_inanimate_tools_1.png","183"
"html-button-response-mod","191","251174","0.0-191.0","73708","","","","","","triplet","575","","","","1","stimuli/stim024_inanimate_tools_4.png","stimuli/face_uppercase.png","stimuli/stim019_inanimate_tree_3.png","184"
"html-button-response-mod","192","252123","0.0-192.0","73708","","","","","","triplet","445.09999999403954","","","","2","stimuli/fish_lowercase.png","stimuli/stim017_inanimate_tree_1.png","stimuli/face_lowercase.png","185"
"html-button-response-mod","193","253140","0.0-193.0","73708","","","","","","triplet","512.8000000119209","","","","2","stimuli/stim022_inanimate_tools_2.png","stimuli/stim014_inanimate_boats_2.png","stimuli/stim005_animate_bird_1.png","186"
"html-button-response-mod","194","254157","0.0-194.0","73708","","","","","","triplet","514.5999999940395","","","","1","stimuli/fish_uppercase.png","stimuli/tree_uppercase.png","stimuli/face_uppercase.png","187"
"html-button-response-mod","195","255124","0.0-195.0","73708","","","","","","triplet","463.90000000596046","","","","1","stimuli/stim015_inanimate_boats_3.png","stimuli/fish_lowercase.png","stimuli/tools_lowercase.png","188"
"html-button-response-mod","196","255941","0.0-196.0","73708","","","","","","triplet","313.19999998807907","","","","1","stimuli/boats_uppercase.png","stimuli/stim021_inanimate_tools_1.png","stimuli/stim003_animate_fish_3.png","189"
"html-button-response-mod","197","256874","0.0-197.0","73708","","","","","","triplet","430.2999999821186","","","","0","stimuli/boats_uppercase.png","stimuli/stim016_inanimate_boats_4.png","stimuli/stim003_animate_fish_3.png","190"
"html-button-response-mod","198","257840","0.0-198.0","73708","","","","","","triplet","459.09999999403954","","","","1","stimuli/stim004_animate_fish_4.png","stimuli/stim003_animate_fish_3.png","stimuli/stim002_animate_fish_2.png","191"
"html-button-response-mod","199","258907","0.0-199.0","73708","","","","","","triplet","563.0999999940395","","","","1","stimuli/bird_uppercase.png","stimuli/face_uppercase.png","stimuli/stim017_inanimate_tree_1.png","192"
"html-button-response-mod","200","260056","0.0-200.0","73708","","","","","","triplet","646","","","","0","stimuli/tree_lowercase.png","stimuli/stim002_animate_fish_2.png","stimuli/face_uppercase.png","193"
"html-button-response-mod","201","261623","0.0-201.0","73708","","","","","","triplet","1062.8999999761581","","","","2","stimuli/stim021_inanimate_tools_1.png","stimuli/stim023_inanimate_tools_3.png","stimuli/tree_lowercase.png","194"
"html-button-response-mod","202","268040","0.0-202.0","73708","","","","","","triplet","5914","","","","2","stimuli/stim003_animate_fish_3.png","stimuli/stim010_animate_face_2.png","stimuli/stim013_inanimate_boats_1.png","195"
"html-button-response-mod","203","269523","0.0-203.0","73708","","","","","","triplet","974.0999999940395","","","","0","stimuli/stim007_animate_bird_3.png","stimuli/stim006_animate_bird_2.png","stimuli/boats_lowercase.png","196"
"html-button-response-mod","204","270741","0.0-204.0","73708","","","","","","triplet","714.2000000178814","","","","2","stimuli/stim024_inanimate_tools_4.png","stimuli/stim003_animate_fish_3.png","stimuli/stim007_animate_bird_3.png","197"
"html-button-response-mod","205","274457","0.0-205.0","73708","","","","","","triplet","3207.5","","","","1","stimuli/stim014_inanimate_boats_2.png","stimuli/stim007_animate_bird_3.png","stimuli/stim024_inanimate_tools_4.png","198"
"html-button-response-mod","206","276507","0.0-206.0","73708","","","","","","triplet","1541.6000000238419","","","","0","stimuli/stim022_inanimate_tools_2.png","stimuli/face_uppercase.png","stimuli/stim005_animate_bird_1.png","199"
"html-button-response","207","280408","0.0-207.0","73708","","","","","","break","3392.199999988079","<p>BREAK</p><p>Take a break for as long as you need</p><p>Click the button to continue</p>","0","","","","","",""
"html-button-response-mod","208","283073","0.0-208.0","73708","","","","","","triplet","2663.0999999940395","","","","2","stimuli/stim018_inanimate_tree_2.png","stimuli/face_lowercase.png","stimuli/stim006_animate_bird_2.png","200"
"html-button-response-mod","209","285073","0.0-209.0","73708","","","","","","triplet","1494.5","","","","2","stimuli/stim018_inanimate_tree_2.png","stimuli/tree_lowercase.png","stimuli/boats_uppercase.png","201"
"html-button-response-mod","210","287308","0.0-210.0","73708","","","","","","triplet","1728.699999988079","","","","2","stimuli/stim015_inanimate_boats_3.png","stimuli/stim001_animate_fish_1.png","stimuli/fish_uppercase.png","202"
"html-button-response-mod","211","288775","0.0-211.0","73708","","","","","","triplet","959.0999999940395","","","","1","stimuli/stim012_animate_face_4.png","stimuli/tools_lowercase.png","stimuli/boats_uppercase.png","203"
"html-button-response-mod","212","294121","0.0-212.0","73708","","","","","","triplet","4839.5","","","","1","stimuli/fish_uppercase.png","stimuli/stim020_inanimate_tree_4.png","stimuli/stim013_inanimate_boats_1.png","204"
"html-button-response-mod","213","296307","0.0-213.0","73708","","","","","","triplet","1680.0999999940395","","","","2","stimuli/boats_lowercase.png","stimuli/stim019_inanimate_tree_3.png","stimuli/tools_lowercase.png","205"
"html-button-response-mod","214","297640","0.0-214.0","73708","","","","","","triplet","825.5999999940395","","","","2","stimuli/stim021_inanimate_tools_1.png","stimuli/tools_uppercase.png","stimuli/stim009_animate_face_1.png","206"
"html-button-response-mod","215","300090","0.0-215.0","73708","","","","","","triplet","1944.2000000178814","","","","2","stimuli/stim018_inanimate_tree_2.png","stimuli/tools_lowercase.png","stimuli/fish_lowercase.png","207"
"html-button-response-mod","216","302239","0.0-216.0","73708","","","","","","triplet","1640.5","","","","1","stimuli/stim015_inanimate_boats_3.png","stimuli/tree_lowercase.png","stimuli/stim021_inanimate_tools_1.png","208"
"html-button-response-mod","217","304873","0.0-217.0","73708","","","","","","triplet","2129","","","","1","stimuli/stim020_inanimate_tree_4.png","stimuli/stim014_inanimate_boats_2.png","stimuli/tools_lowercase.png","209"
"html-button-response-mod","218","309507","0.0-218.0","73708","","","","","","triplet","4128.100000023842","","","","0","stimuli/tools_lowercase.png","stimuli/stim005_animate_bird_1.png","stimuli/stim021_inanimate_tools_1.png","210"
"html-button-response-mod","219","310723","0.0-219.0","73708","","","","","","triplet","707","","","","0","stimuli/tools_lowercase.png","stimuli/bird_uppercase.png","stimuli/fish_lowercase.png","211"
"html-button-response-mod","220","311724","0.0-220.0","73708","","","","","","triplet","495.40000000596046","","","","1","stimuli/stim007_animate_bird_3.png","stimuli/stim006_animate_bird_2.png","stimuli/stim013_inanimate_boats_1.png","212"
"html-button-response-mod","221","312923","0.0-221.0","73708","","","","","","triplet","694.9000000059605","","","","0","stimuli/stim019_inanimate_tree_3.png","stimuli/stim024_inanimate_tools_4.png","stimuli/fish_lowercase.png","213"
"html-button-response-mod","222","313924","0.0-222.0","73708","","","","","","triplet","497.19999998807907","","","","2","stimuli/boats_uppercase.png","stimuli/stim011_animate_face_3.png","stimuli/boats_lowercase.png","214"
"html-button-response-mod","223","316023","0.0-223.0","73708","","","","","","triplet","1595.6000000238419","","","","2","stimuli/stim016_inanimate_boats_4.png","stimuli/tools_lowercase.png","stimuli/bird_lowercase.png","215"
"html-button-response-mod","224","318989","0.0-224.0","73708","","","","","","triplet","2462.4000000059605","","","","2","stimuli/bird_uppercase.png","stimuli/stim009_animate_face_1.png","stimuli/boats_uppercase.png","216"
"html-button-response-mod","225","320607","0.0-225.0","73708","","","","","","triplet","1112.7999999821186","","","","2","stimuli/stim011_animate_face_3.png","stimuli/face_uppercase.png","stimuli/stim002_animate_fish_2.png","217"
"html-button-response-mod","226","322673","0.0-226.0","73708","","","","","","triplet","1561.699999988079","","","","1","stimuli/bird_uppercase.png","stimuli/stim023_inanimate_tools_3.png","stimuli/face_lowercase.png","218"
"html-button-response-mod","227","324356","0.0-227.0","73708","","","","","","triplet","1176","","","","1","stimuli/stim021_inanimate_tools_1.png","stimuli/stim015_inanimate_boats_3.png","stimuli/stim014_inanimate_boats_2.png","219"
"html-button-response-mod","228","325374","0.0-228.0","73708","","","","","","triplet","513.6999999880791","","","","2","stimuli/stim023_inanimate_tools_3.png","stimuli/bird_lowercase.png","stimuli/stim016_inanimate_boats_4.png","220"
"html-button-response-mod","229","326357","0.0-229.0","73708","","","","","","triplet","480.09999999403954","","","","0","stimuli/face_lowercase.png","stimuli/stim014_inanimate_boats_2.png","stimuli/bird_uppercase.png","221"
"html-button-response-mod","230","329507","0.0-230.0","73708","","","","","","triplet","2645.9000000059605","","","","2","stimuli/stim013_inanimate_boats_1.png","stimuli/face_lowercase.png","stimuli/tools_lowercase.png","222"
"html-button-response-mod","231","330623","0.0-231.0","73708","","","","","","triplet","608","","","","1","stimuli/stim006_animate_bird_2.png","stimuli/stim023_inanimate_tools_3.png","stimuli/stim011_animate_face_3.png","223"
"html-button-response-mod","232","332356","0.0-232.0","73708","","","","","","triplet","1227.800000011921","","","","2","stimuli/stim013_inanimate_boats_1.png","stimuli/stim006_animate_bird_2.png","stimuli/stim022_inanimate_tools_2.png","224"
"html-button-response-mod","233","333423","0.0-233.0","73708","","","","","","triplet","562.4000000059605","","","","2","stimuli/stim018_inanimate_tree_2.png","stimuli/stim003_animate_fish_3.png","stimuli/stim005_animate_bird_1.png","225"
"html-button-response-mod","234","334424","0.0-234.0","73708","","","","","","triplet","497.90000000596046","","","","2","stimuli/stim002_animate_fish_2.png","stimuli/boats_lowercase.png","stimuli/stim019_inanimate_tree_3.png","226"
"html-button-response-mod","235","335391","0.0-235.0","73708","","","","","","triplet","463.19999998807907","","","","2","stimuli/tools_lowercase.png","stimuli/stim014_inanimate_boats_2.png","stimuli/stim024_inanimate_tools_4.png","227"
"html-button-response-mod","236","336407","0.0-236.0","73708","","","","","","triplet","511.90000000596046","","","","1","stimuli/stim023_inanimate_tools_3.png","stimuli/tools_uppercase.png","stimuli/boats_lowercase.png","228"
"html-button-response-mod","237","337440","0.0-237.0","73708","","","","","","triplet","528.1000000238419","","","","0","stimuli/boats_uppercase.png","stimuli/stim009_animate_face_1.png","stimuli/tree_lowercase.png","229"
"html-button-response-mod","238","338372","0.0-238.0","73708","","","","","","triplet","426.30000001192093","","","","0","stimuli/stim022_inanimate_tools_2.png","stimuli/stim008_animate_bird_4.png","stimuli/face_lowercase.png","230"
"html-button-response-mod","239","339340","0.0-239.0","73708","","","","","","triplet","462.09999999403954","","","","0","stimuli/stim015_inanimate_boats_3.png","stimuli/boats_uppercase.png","stimuli/tree_lowercase.png","231"
"html-button-response-mod","240","340424","0.0-240.0","73708","","","","","","triplet","580.0999999940395","","","","2","stimuli/tools_lowercase.png","stimuli/stim004_animate_fish_4.png","stimuli/stim009_animate_face_1.png","232"
"html-button-response-mod","241","341474","0.0-241.0","73708","","","","","","triplet","545.3000000119209","","","","2","stimuli/stim018_inanimate_tree_2.png","stimuli/fish_lowercase.png","stimuli/stim016_inanimate_boats_4.png","233"
"html-button-response-mod","242","342423","0.0-242.0","73708","","","","","","triplet","443.90000000596046","","","","1","stimuli/stim020_inanimate_tree_4.png","stimuli/stim002_animate_fish_2.png","stimuli/stim011_animate_face_3.png","234"
"html-button-response-mod","243","343306","0.0-243.0","73708","","","","","","triplet","378.09999999403954","","","","2","stimuli/stim012_animate_face_4.png","stimuli/stim022_inanimate_tools_2.png","stimuli/stim015_inanimate_boats_3.png","235"
"html-button-response-mod","244","344224","0.0-244.0","73708","","","","","","triplet","413.40000000596046","","","","2","stimuli/stim008_animate_bird_4.png","stimuli/tree_lowercase.png","stimuli/stim015_inanimate_boats_3.png","236"
"html-button-response-mod","245","345140","0.0-245.0","73708","","","","","","triplet","410.80000001192093","","","","2","stimuli/stim017_inanimate_tree_1.png","stimuli/face_uppercase.png","stimuli/stim019_inanimate_tree_3.png","237"
"html-button-response-mod","246","346089","0.0-246.0","73708","","","","","","triplet","444.09999999403954","","","","2","stimuli/tree_lowercase.png","stimuli/stim023_inanimate_tools_3.png","stimuli/stim017_inanimate_tree_1.png","238"
"html-button-response-mod","247","346990","0.0-247.0","73708","","","","","","triplet","395.60000002384186","","","","2","stimuli/stim001_animate_fish_1.png","stimuli/stim005_animate_bird_1.png","stimuli/stim008_animate_bird_4.png","239"
"html-button-response-mod","248","348157","0.0-248.0","73708","","","","","","triplet","663.2000000178814","","","","0","stimuli/stim011_animate_face_3.png","stimuli/tools_uppercase.png","stimuli/stim019_inanimate_tree_3.png","240"
"html-button-response-mod","249","349674","0.0-249.0","73708","","","","","","triplet","1012.5","","","","1","stimuli/stim011_animate_face_3.png","stimuli/stim021_inanimate_tools_1.png","stimuli/stim008_animate_bird_4.png","241"
"html-button-response-mod","250","350557","0.0-250.0","73708","","","","","","triplet","374.40000000596046","","","","0","stimuli/tools_lowercase.png","stimuli/stim021_inanimate_tools_1.png","stimuli/stim001_animate_fish_1.png","242"
"html-button-response-mod","251","351539","0.0-251.0","73708","","","","","","triplet","476.7999999821186","","","","2","stimuli/tree_uppercase.png","stimuli/bird_uppercase.png","stimuli/tools_lowercase.png","243"
"html-button-response-mod","252","352458","0.0-252.0","73708","","","","","","triplet","412.60000002384186","","","","2","stimuli/bird_lowercase.png","stimuli/stim015_inanimate_boats_3.png","stimuli/stim023_inanimate_tools_3.png","244"
"html-button-response-mod","253","353440","0.0-253.0","73708","","","","","","triplet","477.09999999403954","","","","1","stimuli/tree_uppercase.png","stimuli/stim003_animate_fish_3.png","stimuli/stim014_inanimate_boats_2.png","245"
"html-button-response-mod","254","354490","0.0-254.0","73708","","","","","","triplet","546.3999999761581","","","","2","stimuli/stim010_animate_face_2.png","stimuli/face_lowercase.png","stimuli/stim011_animate_face_3.png","246"
"html-button-response-mod","255","355357","0.0-255.0","73708","","","","","","triplet","363.10000002384186","","","","0","stimuli/stim009_animate_face_1.png","stimuli/fish_lowercase.png","stimuli/stim003_animate_fish_3.png","247"
"html-button-response-mod","256","356740","0.0-256.0","73708","","","","","","triplet","879.7999999821186","","","","0","stimuli/stim009_animate_face_1.png","stimuli/stim017_inanimate_tree_1.png","stimuli/face_uppercase.png","248"
"html-button-response-mod","257","357707","0.0-257.0","73708","","","","","","triplet","458.59999999403954","","","","1","stimuli/bird_lowercase.png","stimuli/stim010_animate_face_2.png","stimuli/stim014_inanimate_boats_2.png","249"
"html-button-response","258","360923","0.0-258.0","73708","","","","","","break","2712.2999999821186","<p>BREAK</p><p>Take a break for as long as you need</p><p>Click the button to continue</p>","0","","","","","",""
"html-button-response-mod","259","361924","0.0-259.0","73708","","","","","","triplet","998.2999999821186","","","","2","stimuli/stim024_inanimate_tools_4.png","stimuli/stim017_inanimate_tree_1.png","stimuli/face_lowercase.png","250"
"html-button-response-mod","260","363024","0.0-260.0","73708","","","","","","triplet","595.4000000059605","","","","0","stimuli/stim004_animate_fish_4.png","stimuli/stim009_animate_face_1.png","stimuli/face_uppercase.png","251"
"html-button-response-mod","261","364440","0.0-261.0","73708","","","","","","triplet","912.4000000059605","","","","2","stimuli/tools_uppercase.png","stimuli/stim014_inanimate_boats_2.png","stimuli/tools_lowercase.png","252"
"html-button-response-mod","262","365439","0.0-262.0","73708","","","","","","triplet","496.5","","","","0","stimuli/stim013_inanimate_boats_1.png","stimuli/fish_lowercase.png","stimuli/stim021_inanimate_tools_1.png","253"
"html-button-response-mod","263","366345","0.0-263.0","73708","","","","","","triplet","402.30000001192093","","","","2","stimuli/tree_lowercase.png","stimuli/stim024_inanimate_tools_4.png","stimuli/stim011_animate_face_3.png","254"
"html-button-response-mod","264","367389","0.0-264.0","73708","","","","","","triplet","538.9000000059605","","","","2","stimuli/stim004_animate_fish_4.png","stimuli/fish_lowercase.png","stimuli/stim008_animate_bird_4.png","255"
"html-button-response-mod","265","368322","0.0-265.0","73708","","","","","","triplet","428.30000001192093","","","","1","stimuli/stim016_inanimate_boats_4.png","stimuli/stim014_inanimate_boats_2.png","stimuli/tools_uppercase.png","256"
"html-button-response-mod","266","369289","0.0-266.0","73708","","","","","","triplet","461.2999999821186","","","","2","stimuli/bird_uppercase.png","stimuli/boats_lowercase.png","stimuli/stim021_inanimate_tools_1.png","257"
"html-button-response-mod","267","371739","0.0-267.0","73708","","","","","","triplet","1947.0999999940395","","","","2","stimuli/tree_lowercase.png","stimuli/stim013_inanimate_boats_1.png","stimuli/stim014_inanimate_boats_2.png","258"
"html-button-response-mod","268","372640","0.0-268.0","73708","","","","","","triplet","397","","","","1","stimuli/stim004_animate_fish_4.png","stimuli/stim012_animate_face_4.png","stimuli/boats_uppercase.png","259"
"html-button-response-mod","269","373556","0.0-269.0","73708","","","","","","triplet","408.80000001192093","","","","2","stimuli/stim015_inanimate_boats_3.png","stimuli/tools_uppercase.png","stimuli/bird_uppercase.png","260"
"html-button-response-mod","270","374491","0.0-270.0","73708","","","","","","triplet","431.09999999403954","","","","2","stimuli/stim004_animate_fish_4.png","stimuli/stim007_animate_bird_3.png","stimuli/stim003_animate_fish_3.png","261"
"html-button-response-mod","271","376007","0.0-271.0","73708","","","","","","triplet","1011.8000000119209","","","","1","stimuli/tools_lowercase.png","stimuli/tree_uppercase.png","stimuli/boats_uppercase.png","262"
"html-button-response-mod","272","376906","0.0-272.0","73708","","","","","","triplet","395","","","","1","stimuli/stim021_inanimate_tools_1.png","stimuli/bird_lowercase.png","stimuli/stim015_inanimate_boats_3.png","263"
"html-button-response-mod","273","377790","0.0-273.0","73708","","","","","","triplet","380.09999999403954","","","","2","stimuli/stim006_animate_bird_2.png","stimuli/stim021_inanimate_tools_1.png","stimuli/stim001_animate_fish_1.png","264"
"html-button-response-mod","274","378657","0.0-274.0","73708","","","","","","triplet","362","","","","1","stimuli/stim021_inanimate_tools_1.png","stimuli/stim002_animate_fish_2.png","stimuli/stim012_animate_face_4.png","265"
"html-button-response-mod","275","379723","0.0-275.0","73708","","","","","","triplet","561.5","","","","1","stimuli/stim012_animate_face_4.png","stimuli/stim024_inanimate_tools_4.png","stimuli/fish_lowercase.png","266"
"html-button-response-mod","276","380556","0.0-276.0","73708","","","","","","triplet","324.80000001192093","","","","1","stimuli/stim006_animate_bird_2.png","stimuli/stim015_inanimate_boats_3.png","stimuli/stim019_inanimate_tree_3.png","267"
"html-button-response-mod","277","381839","0.0-277.0","73708","","","","","","triplet","774.2000000178814","","","","2","stimuli/stim017_inanimate_tree_1.png","stimuli/tree_uppercase.png","stimuli/stim016_inanimate_boats_4.png","268"
"html-button-response-mod","278","386690","0.0-278.0","73708","","","","","","triplet","4345.5999999940395","","","","2","stimuli/stim023_inanimate_tools_3.png","stimuli/boats_uppercase.png","stimuli/stim003_animate_fish_3.png","269"
"html-button-response-mod","279","388791","0.0-279.0","73708","","","","","","triplet","1592.699999988079","","","","1","stimuli/stim012_animate_face_4.png","stimuli/tools_lowercase.png","stimuli/tree_lowercase.png","270"
"html-button-response-mod","280","389740","0.0-280.0","73708","","","","","","triplet","446","","","","0","stimuli/stim005_animate_bird_1.png","stimuli/stim018_inanimate_tree_2.png","stimuli/stim017_inanimate_tree_1.png","271"
"html-button-response-mod","281","391573","0.0-281.0","73708","","","","","","triplet","1325.4000000059605","","","","0","stimuli/boats_lowercase.png","stimuli/stim013_inanimate_boats_1.png","stimuli/stim015_inanimate_boats_3.png","272"
"html-button-response-mod","282","393939","0.0-282.0","73708","","","","","","triplet","1857.5","","","","0","stimuli/stim024_inanimate_tools_4.png","stimuli/stim011_animate_face_3.png","stimuli/face_uppercase.png","273"
"html-button-response-mod","283","397007","0.0-283.0","73708","","","","","","triplet","2559.5","","","","1","stimuli/boats_uppercase.png","stimuli/stim019_inanimate_tree_3.png","stimuli/tools_lowercase.png","274"
"html-button-response-mod","284","398789","0.0-284.0","73708","","","","","","triplet","1276.8999999761581","","","","1","stimuli/boats_lowercase.png","stimuli/stim021_inanimate_tools_1.png","stimuli/tools_lowercase.png","275"
"html-button-response-mod","285","399975","0.0-285.0","73708","","","","","","triplet","676.9000000059605","","","","0","stimuli/stim018_inanimate_tree_2.png","stimuli/stim003_animate_fish_3.png","stimuli/stim019_inanimate_tree_3.png","276"
"html-button-response-mod","286","400906","0.0-286.0","73708","","","","","","triplet","426","","","","1","stimuli/fish_uppercase.png","stimuli/stim013_inanimate_boats_1.png","stimuli/stim019_inanimate_tree_3.png","277"
"html-button-response-mod","287","401689","0.0-287.0","73708","","","","","","triplet","278.30000001192093","","","","2","stimuli/tools_lowercase.png","stimuli/tools_uppercase.png","stimuli/stim009_animate_face_1.png","278"
"html-button-response-mod","288","402507","0.0-288.0","73708","","","","","","triplet","312.59999999403954","","","","1","stimuli/stim016_inanimate_boats_4.png","stimuli/stim004_animate_fish_4.png","stimuli/fish_lowercase.png","279"
"html-button-response-mod","289","404073","0.0-289.0","73708","","","","","","triplet","1061.0999999940395","","","","1","stimuli/stim022_inanimate_tools_2.png","stimuli/face_lowercase.png","stimuli/tree_uppercase.png","280"
"html-button-response-mod","290","405023","0.0-290.0","73708","","","","","","triplet","445.30000001192093","","","","0","stimuli/stim021_inanimate_tools_1.png","stimuli/stim012_animate_face_4.png","stimuli/stim016_inanimate_boats_4.png","281"
"html-button-response-mod","291","405924","0.0-291.0","73708","","","","","","triplet","397.7999999821186","","","","2","stimuli/stim010_animate_face_2.png","stimuli/bird_lowercase.png","stimuli/bird_uppercase.png","282"
"html-button-response-mod","292","406755","0.0-292.0","73708","","","","","","triplet","327.90000000596046","","","","2","stimuli/bird_lowercase.png","stimuli/stim019_inanimate_tree_3.png","stimuli/stim017_inanimate_tree_1.png","283"
"html-button-response-mod","293","408040","0.0-293.0","73708","","","","","","triplet","779.0999999940395","","","","2","stimuli/stim001_animate_fish_1.png","stimuli/stim014_inanimate_boats_2.png","stimuli/stim023_inanimate_tools_3.png","284"
"html-button-response-mod","294","409206","0.0-294.0","73708","","","","","","triplet","661.5999999940395","","","","2","stimuli/tree_lowercase.png","stimuli/stim017_inanimate_tree_1.png","stimuli/stim010_animate_face_2.png","285"
"html-button-response-mod","295","410272","0.0-295.0","73708","","","","","","triplet","562.3000000119209","","","","2","stimuli/stim016_inanimate_boats_4.png","stimuli/stim006_animate_bird_2.png","stimuli/stim022_inanimate_tools_2.png","286"
"html-button-response-mod","296","411772","0.0-296.0","73708","","","","","","triplet","992.1999999880791","","","","2","stimuli/stim012_animate_face_4.png","stimuli/stim008_animate_bird_4.png","stimuli/stim013_inanimate_boats_1.png","287"
"html-button-response-mod","297","412989","0.0-297.0","73708","","","","","","triplet","712.9000000059605","","","","2","stimuli/tree_lowercase.png","stimuli/stim012_animate_face_4.png","stimuli/bird_uppercase.png","288"
"html-button-response-mod","298","413890","0.0-298.0","73708","","","","","","triplet","395.80000001192093","","","","2","stimuli/stim002_animate_fish_2.png","stimuli/stim017_inanimate_tree_1.png","stimuli/stim010_animate_face_2.png","289"
"html-button-response-mod","299","421956","0.0-299.0","73708","","","","","","triplet","7562","","","","2","stimuli/stim007_animate_bird_3.png","stimuli/stim018_inanimate_tree_2.png","stimuli/tree_lowercase.png","290"
"html-button-response-mod","300","423573","0.0-300.0","73708","","","","","","triplet","1110.1000000238419","","","","2","stimuli/stim021_inanimate_tools_1.png","stimuli/stim016_inanimate_boats_4.png","stimuli/stim024_inanimate_tools_4.png","291"
"html-button-response-mod","301","427840","0.0-301.0","73708","","","","","","triplet","3762.4000000059605","","","","2","stimuli/bird_uppercase.png","stimuli/boats_lowercase.png","stimuli/stim012_animate_face_4.png","292"
"html-button-response-mod","302","429172","0.0-302.0","73708","","","","","","triplet","826.8000000119209","","","","2","stimuli/stim016_inanimate_boats_4.png","stimuli/stim018_inanimate_tree_2.png","stimuli/fish_uppercase.png","293"
"html-button-response-mod","303","431323","0.0-303.0","73708","","","","","","triplet","1646.800000011921","","","","2","stimuli/stim010_animate_face_2.png","stimuli/stim006_animate_bird_2.png","stimuli/stim003_animate_fish_3.png","294"
"html-button-response-mod","304","433206","0.0-304.0","73708","","","","","","triplet","1378.4000000059605","","","","1","stimuli/stim005_animate_bird_1.png","stimuli/stim002_animate_fish_2.png","stimuli/boats_uppercase.png","295"
"html-button-response-mod","305","434990","0.0-305.0","73708","","","","","","triplet","1277.1000000238419","","","","1","stimuli/stim014_inanimate_boats_2.png","stimuli/stim008_animate_bird_4.png","stimuli/stim001_animate_fish_1.png","296"
"html-button-response-mod","306","435956","0.0-306.0","73708","","","","","","triplet","461","","","","2","stimuli/stim014_inanimate_boats_2.png","stimuli/face_lowercase.png","stimuli/stim015_inanimate_boats_3.png","297"
"html-button-response-mod","307","437455","0.0-307.0","73708","","","","","","triplet","995.5999999940395","","","","2","stimuli/stim016_inanimate_boats_4.png","stimuli/stim004_animate_fish_4.png","stimuli/tree_uppercase.png","298"
"html-button-response-mod","308","442090","0.0-308.0","73708","","","","","","triplet","4127.5","","","","2","stimuli/fish_lowercase.png","stimuli/stim015_inanimate_boats_3.png","stimuli/tree_lowercase.png","299"
"html-button-response","309","464506","0.0-309.0","73708","","","","","","break","21911.5","<p>BREAK</p><p>Take a break for as long as you need</p><p>Click the button to continue</p>","0","","","","","",""
"html-button-response-mod","310","465506","0.0-310.0","73708","","","","","","triplet","996.6999999880791","","","","2","stimuli/face_uppercase.png","stimuli/stim004_animate_fish_4.png","stimuli/stim011_animate_face_3.png","300"
"html-button-response-mod","311","467489","0.0-311.0","73708","","","","","","triplet","1476.4000000059605","","","","2","stimuli/stim014_inanimate_boats_2.png","stimuli/fish_lowercase.png","stimuli/stim023_inanimate_tools_3.png","301"
"html-button-response-mod","312","468406","0.0-312.0","73708","","","","","","triplet","413.30000001192093","","","","1","stimuli/stim018_inanimate_tree_2.png","stimuli/stim004_animate_fish_4.png","stimuli/stim019_inanimate_tree_3.png","302"
"html-button-response-mod","313","469790","0.0-313.0","73708","","","","","","triplet","878.0999999940395","","","","0","stimuli/stim012_animate_face_4.png","stimuli/stim011_animate_face_3.png","stimuli/face_uppercase.png","303"
"html-button-response-mod","314","470889","0.0-314.0","73708","","","","","","triplet","594.8000000119209","","","","0","stimuli/tools_lowercase.png","stimuli/stim020_inanimate_tree_4.png","stimuli/face_lowercase.png","304"
"html-button-response-mod","315","472123","0.0-315.0","73708","","","","","","triplet","728.4000000059605","","","","0","stimuli/stim022_inanimate_tools_2.png","stimuli/stim016_inanimate_boats_4.png","stimuli/tools_lowercase.png","305"
"html-button-response-mod","316","473222","0.0-316.0","73708","","","","","","triplet","592.2000000178814","","","","0","stimuli/stim004_animate_fish_4.png","stimuli/stim014_inanimate_boats_2.png","stimuli/tools_lowercase.png","306"
"html-button-response-mod","317","474240","0.0-317.0","73708","","","","","","triplet","513.8999999761581","","","","1","stimuli/stim005_animate_bird_1.png","stimuli/stim023_inanimate_tools_3.png","stimuli/stim008_animate_bird_4.png","307"
"html-button-response-mod","318","475174","0.0-318.0","73708","","","","","","triplet","428.39999997615814","","","","1","stimuli/fish_uppercase.png","stimuli/stim021_inanimate_tools_1.png","stimuli/tools_lowercase.png","308"
"html-button-response-mod","319","476172","0.0-319.0","73708","","","","","","triplet","494.30000001192093","","","","2","stimuli/tools_uppercase.png","stimuli/stim016_inanimate_boats_4.png","stimuli/stim018_inanimate_tree_2.png","309"
"html-button-response-mod","320","477089","0.0-320.0","73708","","","","","","triplet","409.89999997615814","","","","1","stimuli/boats_lowercase.png","stimuli/stim020_inanimate_tree_4.png","stimuli/stim009_animate_face_1.png","310"
"html-button-response-mod","321","478039","0.0-321.0","73708","","","","","","triplet","446.5","","","","1","stimuli/stim003_animate_fish_3.png","stimuli/stim006_animate_bird_2.png","stimuli/stim016_inanimate_boats_4.png","311"
"html-button-response-mod","322","478988","0.0-322.0","73708","","","","","","triplet","445.5","","","","1","stimuli/stim021_inanimate_tools_1.png","stimuli/bird_lowercase.png","stimuli/stim020_inanimate_tree_4.png","312"
"html-button-response-mod","323","479890","0.0-323.0","73708","","","","","","triplet","397.5","","","","2","stimuli/stim002_animate_fish_2.png","stimuli/stim021_inanimate_tools_1.png","stimuli/stim017_inanimate_tree_1.png","313"
"html-button-response-mod","324","480889","0.0-324.0","73708","","","","","","triplet","494.09999999403954","","","","1","stimuli/fish_uppercase.png","stimuli/stim017_inanimate_tree_1.png","stimuli/stim003_animate_fish_3.png","314"
"html-button-response-mod","325","481806","0.0-325.0","73708","","","","","","triplet","412.69999998807907","","","","0","stimuli/fish_uppercase.png","stimuli/stim024_inanimate_tools_4.png","stimuli/stim003_animate_fish_3.png","315"
"html-button-response-mod","326","482722","0.0-326.0","73708","","","","","","triplet","407.10000002384186","","","","2","stimuli/stim020_inanimate_tree_4.png","stimuli/stim005_animate_bird_1.png","stimuli/tree_uppercase.png","316"
"html-button-response-mod","327","487422","0.0-327.0","73708","","","","","","triplet","4196","","","","1","stimuli/stim004_animate_fish_4.png","stimuli/stim020_inanimate_tree_4.png","stimuli/stim013_inanimate_boats_1.png","317"
"html-button-response-mod","328","493006","0.0-328.0","73708","","","","","","triplet","5077.300000011921","","","","2","stimuli/stim008_animate_bird_4.png","stimuli/stim006_animate_bird_2.png","stimuli/stim017_inanimate_tree_1.png","318"
"html-button-response-mod","329","494289","0.0-329.0","73708","","","","","","triplet","776.8999999761581","","","","1","stimuli/fish_lowercase.png","stimuli/tree_uppercase.png","stimuli/stim015_inanimate_boats_3.png","319"
"html-button-response-mod","330","495872","0.0-330.0","73708","","","","","","triplet","1078.2000000178814","","","","0","stimuli/face_uppercase.png","stimuli/stim009_animate_face_1.png","stimuli/tree_uppercase.png","320"
"html-button-response-mod","331","497189","0.0-331.0","73708","","","","","","triplet","811.9000000059605","","","","0","stimuli/tree_uppercase.png","stimuli/stim008_animate_bird_4.png","stimuli/boats_uppercase.png","321"
"html-button-response-mod","332","498339","0.0-332.0","73708","","","","","","triplet","645","","","","2","stimuli/stim002_animate_fish_2.png","stimuli/stim004_animate_fish_4.png","stimuli/face_lowercase.png","322"
"html-button-response-mod","333","499856","0.0-333.0","73708","","","","","","triplet","1014.1999999880791","","","","0","stimuli/stim017_inanimate_tree_1.png","stimuli/stim020_inanimate_tree_4.png","stimuli/fish_lowercase.png","323"
"html-button-response-mod","334","500905","0.0-334.0","73708","","","","","","triplet","544.7999999821186","","","","0","stimuli/tree_lowercase.png","stimuli/stim007_animate_bird_3.png","stimuli/tools_uppercase.png","324"
"html-button-response-mod","335","501890","0.0-335.0","73708","","","","","","triplet","480.19999998807907","","","","2","stimuli/tree_lowercase.png","stimuli/stim021_inanimate_tools_1.png","stimuli/tools_lowercase.png","325"
"html-button-response-mod","336","502772","0.0-336.0","73708","","","","","","triplet","378.80000001192093","","","","1","stimuli/stim006_animate_bird_2.png","stimuli/stim024_inanimate_tools_4.png","stimuli/stim002_animate_fish_2.png","326"
"html-button-response-mod","337","504055","0.0-337.0","73708","","","","","","triplet","779.1000000238419","","","","0","stimuli/stim017_inanimate_tree_1.png","stimuli/stim019_inanimate_tree_3.png","stimuli/stim008_animate_bird_4.png","327"
"html-button-response-mod","338","505123","0.0-338.0","73708","","","","","","triplet","564.1000000238419","","","","2","stimuli/stim024_inanimate_tools_4.png","stimuli/stim009_animate_face_1.png","stimuli/stim005_animate_bird_1.png","328"
"html-button-response-mod","339","506055","0.0-339.0","73708","","","","","","triplet","427.90000000596046","","","","2","stimuli/stim008_animate_bird_4.png","stimuli/bird_lowercase.png","stimuli/stim002_animate_fish_2.png","329"
"html-button-response-mod","340","507073","0.0-340.0","73708","","","","","","triplet","514","","","","0","stimuli/boats_lowercase.png","stimuli/bird_uppercase.png","stimuli/stim013_inanimate_boats_1.png","330"
"html-button-response-mod","341","508639","0.0-341.0","73708","","","","","","triplet","1057.800000011921","","","","1","stimuli/stim015_inanimate_boats_3.png","stimuli/stim022_inanimate_tools_2.png","stimuli/stim014_inanimate_boats_2.png","331"
"html-button-response-mod","342","509622","0.0-342.0","73708","","","","","","triplet","480.09999999403954","","","","2","stimuli/stim013_inanimate_boats_1.png","stimuli/stim006_animate_bird_2.png","stimuli/stim009_animate_face_1.png","332"
"html-button-response-mod","343","511307","0.0-343.0","73708","","","","","","triplet","1181.199999988079","","","","0","stimuli/boats_uppercase.png","stimuli/stim011_animate_face_3.png","stimuli/stim010_animate_face_2.png","333"
"html-button-response-mod","344","513006","0.0-344.0","73708","","","","","","triplet","1193.800000011921","","","","0","stimuli/stim008_animate_bird_4.png","stimuli/bird_uppercase.png","stimuli/stim022_inanimate_tools_2.png","334"
"html-button-response-mod","345","514106","0.0-345.0","73708","","","","","","triplet","596","","","","2","stimuli/stim011_animate_face_3.png","stimuli/tree_uppercase.png","stimuli/tools_uppercase.png","335"
"html-button-response-mod","346","516472","0.0-346.0","73708","","","","","","triplet","1859.9000000059605","","","","1","stimuli/stim006_animate_bird_2.png","stimuli/stim021_inanimate_tools_1.png","stimuli/stim015_inanimate_boats_3.png","336"
"html-button-response-mod","347","518089","0.0-347.0","73708","","","","","","triplet","1109.300000011921","","","","2","stimuli/stim015_inanimate_boats_3.png","stimuli/stim016_inanimate_boats_4.png","stimuli/stim010_animate_face_2.png","337"
"html-button-response-mod","348","519522","0.0-348.0","73708","","","","","","triplet","929.5","","","","0","stimuli/stim012_animate_face_4.png","stimuli/tools_uppercase.png","stimuli/stim024_inanimate_tools_4.png","338"
"html-button-response-mod","349","520505","0.0-349.0","73708","","","","","","triplet","479.7000000178814","","","","2","stimuli/stim007_animate_bird_3.png","stimuli/stim008_animate_bird_4.png","stimuli/stim010_animate_face_2.png","339"
"html-button-response-mod","350","521623","0.0-350.0","73708","","","","","","triplet","614","","","","2","stimuli/stim011_animate_face_3.png","stimuli/tools_uppercase.png","stimuli/stim012_animate_face_4.png","340"
"html-button-response-mod","351","522556","0.0-351.0","73708","","","","","","triplet","428.80000001192093","","","","1","stimuli/tools_lowercase.png","stimuli/stim012_animate_face_4.png","stimuli/face_uppercase.png","341"
"html-button-response-mod","352","523505","0.0-352.0","73708","","","","","","triplet","445.7999999821186","","","","2","stimuli/bird_lowercase.png","stimuli/boats_uppercase.png","stimuli/tree_uppercase.png","342"
"html-button-response-mod","353","525355","0.0-353.0","73708","","","","","","triplet","1345.9000000059605","","","","0","stimuli/stim004_animate_fish_4.png","stimuli/tree_lowercase.png","stimuli/stim024_inanimate_tools_4.png","343"
"html-button-response-mod","354","526438","0.0-354.0","73708","","","","","","triplet","577","","","","2","stimuli/stim012_animate_face_4.png","stimuli/stim024_inanimate_tools_4.png","stimuli/bird_lowercase.png","344"
"html-button-response-mod","355","529739","0.0-355.0","73708","","","","","","triplet","2795.600000023842","","","","2","stimuli/stim001_animate_fish_1.png","stimuli/stim014_inanimate_boats_2.png","stimuli/boats_lowercase.png","345"
"html-button-response-mod","356","530905","0.0-356.0","73708","","","","","","triplet","661.4000000059605","","","","0","stimuli/stim002_animate_fish_2.png","stimuli/stim005_animate_bird_1.png","stimuli/face_lowercase.png","346"
"html-button-response-mod","357","531805","0.0-357.0","73708","","","","","","triplet","396.2000000178814","","","","2","stimuli/stim018_inanimate_tree_2.png","stimuli/stim024_inanimate_tools_4.png","stimuli/stim010_animate_face_2.png","347"
"html-button-response-mod","358","532856","0.0-358.0","73708","","","","","","triplet","546.3999999761581","","","","1","stimuli/stim024_inanimate_tools_4.png","stimuli/stim007_animate_bird_3.png","stimuli/fish_lowercase.png","348"
"html-button-response-mod","359","533872","0.0-359.0","73708","","","","","","triplet","510.5","","","","2","stimuli/bird_uppercase.png","stimuli/tools_lowercase.png","stimuli/stim005_animate_bird_1.png","349"
"html-button-response","360","537557","0.0-360.0","73708","","","","","","break","3181.2999999821186","<p>BREAK</p><p>Take a break for as long as you need</p><p>Click the button to continue</p>","0","","","","","",""
"html-button-response-mod","361","538590","0.0-361.0","73708","","","","","","triplet","1029.699999988079","","","","2","stimuli/stim001_animate_fish_1.png","stimuli/boats_uppercase.png","stimuli/stim003_animate_fish_3.png","350"
"html-button-response-mod","362","539671","0.0-362.0","73708","","","","","","triplet","576.5999999940395","","","","2","stimuli/tools_lowercase.png","stimuli/stim014_inanimate_boats_2.png","stimuli/stim007_animate_bird_3.png","351"
"html-button-response-mod","363","541472","0.0-363.0","73708","","","","","","triplet","1295.800000011921","","","","0","stimuli/stim004_animate_fish_4.png","stimuli/stim024_inanimate_tools_4.png","stimuli/stim007_animate_bird_3.png","352"
"html-button-response-mod","364","542506","0.0-364.0","73708","","","","","","triplet","529.1999999880791","","","","2","stimuli/tree_lowercase.png","stimuli/fish_uppercase.png","stimuli/stim006_animate_bird_2.png","353"
"html-button-response-mod","365","543339","0.0-365.0","73708","","","","","","triplet","329.59999999403954","","","","0","stimuli/tree_lowercase.png","stimuli/stim024_inanimate_tools_4.png","stimuli/stim021_inanimate_tools_1.png","354"
"html-button-response-mod","366","544156","0.0-366.0","73708","","","","","","triplet","313","","","","1","stimuli/tree_lowercase.png","stimuli/stim022_inanimate_tools_2.png","stimuli/stim012_animate_face_4.png","355"
"html-button-response-mod","367","546673","0.0-367.0","73708","","","","","","triplet","2011.300000011921","","","","2","stimuli/stim011_animate_face_3.png","stimuli/stim003_animate_fish_3.png","stimuli/stim017_inanimate_tree_1.png","356"
"html-button-response-mod","368","548622","0.0-368.0","73708","","","","","","triplet","1445.5","","","","0","stimuli/tree_uppercase.png","stimuli/face_lowercase.png","stimuli/stim016_inanimate_boats_4.png","357"
"html-button-response-mod","369","549541","0.0-369.0","73708","","","","","","triplet","414.2999999821186","","","","2","stimuli/stim013_inanimate_boats_1.png","stimuli/stim011_animate_face_3.png","stimuli/stim001_animate_fish_1.png","358"
"html-button-response-mod","370","550440","0.0-370.0","73708","","","","","","triplet","394.80000001192093","","","","0","stimuli/stim017_inanimate_tree_1.png","stimuli/stim002_animate_fish_2.png","stimuli/stim012_animate_face_4.png","359"
"html-button-response-mod","371","552389","0.0-371.0","73708","","","","","","triplet","1446.0999999940395","","","","2","stimuli/stim009_animate_face_1.png","stimuli/stim017_inanimate_tree_1.png","stimuli/stim015_inanimate_boats_3.png","360"
"html-button-response-mod","372","553440","0.0-372.0","73708","","","","","","triplet","546.8000000119209","","","","1","stimuli/tools_lowercase.png","stimuli/boats_uppercase.png","stimuli/tools_uppercase.png","361"
"html-button-response-mod","373","554556","0.0-373.0","73708","","","","","","triplet","611.5","","","","1","stimuli/stim005_animate_bird_1.png","stimuli/bird_lowercase.png","stimuli/stim008_animate_bird_4.png","362"
"html-button-response-mod","374","557305","0.0-374.0","73708","","","","","","triplet","2242.9000000059605","","","","1","stimuli/fish_uppercase.png","stimuli/tree_uppercase.png","stimuli/stim024_inanimate_tools_4.png","363"
"html-button-response-mod","375","558356","0.0-375.0","73708","","","","","","triplet","546.5999999940395","","","","2","stimuli/stim018_inanimate_tree_2.png","stimuli/fish_lowercase.png","stimuli/stim002_animate_fish_2.png","364"
"html-button-response-mod","376","564639","0.0-376.0","73708","","","","","","triplet","5779.700000017881","","","","2","stimuli/stim001_animate_fish_1.png","stimuli/stim013_inanimate_boats_1.png","stimuli/stim023_inanimate_tools_3.png","365"
"html-button-response-mod","377","566190","0.0-377.0","73708","","","","","","triplet","1041.5","","","","2","stimuli/fish_uppercase.png","stimuli/stim001_animate_fish_1.png","stimuli/stim020_inanimate_tree_4.png","366"
"html-button-response-mod","378","567505","0.0-378.0","73708","","","","","","triplet","811","","","","1","stimuli/boats_lowercase.png","stimuli/stim012_animate_face_4.png","stimuli/stim022_inanimate_tools_2.png","367"
"html-button-response-mod","379","569189","0.0-379.0","73708","","","","","","triplet","1177.199999988079","","","","0","stimuli/fish_lowercase.png","stimuli/stim010_animate_face_2.png","stimuli/stim023_inanimate_tools_3.png","368"
"html-button-response-mod","380","581522","0.0-380.0","73708","","","","","","triplet","11824.699999988079","","","","0","stimuli/stim004_animate_fish_4.png","stimuli/boats_uppercase.png","stimuli/stim001_animate_fish_1.png","369"
"html-button-response-mod","381","583572","0.0-381.0","73708","","","","","","triplet","1546.800000011921","","","","0","stimuli/stim011_animate_face_3.png","stimuli/stim019_inanimate_tree_3.png","stimuli/stim021_inanimate_tools_1.png","370"
"html-button-response-mod","382","584522","0.0-382.0","73708","","","","","","triplet","446.19999998807907","","","","2","stimuli/face_lowercase.png","stimuli/stim010_animate_face_2.png","stimuli/stim004_animate_fish_4.png","371"
"html-button-response-mod","383","585347","0.0-383.0","73708","","","","","","triplet","321.5","","","","1","stimuli/tools_uppercase.png","stimuli/stim002_animate_fish_2.png","stimuli/stim008_animate_bird_4.png","372"
"html-button-response-mod","384","586706","0.0-384.0","73708","","","","","","triplet","855.5","","","","0","stimuli/stim015_inanimate_boats_3.png","stimuli/stim024_inanimate_tools_4.png","stimuli/stim001_animate_fish_1.png","373"
"html-button-response-mod","385","587738","0.0-385.0","73708","","","","","","triplet","528.5999999940395","","","","2","stimuli/fish_uppercase.png","stimuli/stim021_inanimate_tools_1.png","stimuli/stim006_animate_bird_2.png","374"
"html-button-response-mod","386","588521","0.0-386.0","73708","","","","","","triplet","278.90000000596046","","","","2","stimuli/stim004_animate_fish_4.png","stimuli/stim016_inanimate_boats_4.png","stimuli/stim001_animate_fish_1.png","375"
"html-button-response-mod","387","589473","0.0-387.0","73708","","","","","","triplet","447.60000002384186","","","","1","stimuli/stim009_animate_face_1.png","stimuli/stim016_inanimate_boats_4.png","stimuli/stim021_inanimate_tools_1.png","376"
"html-button-response-mod","388","590705","0.0-388.0","73708","","","","","","triplet","723.3999999761581","","","","1","stimuli/stim005_animate_bird_1.png","stimuli/stim023_inanimate_tools_3.png","stimuli/fish_uppercase.png","377"
"html-button-response-mod","389","591538","0.0-389.0","73708","","","","","","triplet","328","","","","2","stimuli/stim019_inanimate_tree_3.png","stimuli/stim016_inanimate_boats_4.png","stimuli/boats_lowercase.png","378"
"html-button-response-mod","390","592373","0.0-390.0","73708","","","","","","triplet","330.60000002384186","","","","2","stimuli/stim019_inanimate_tree_3.png","stimuli/tree_uppercase.png","stimuli/stim004_animate_fish_4.png","379"
"html-button-response-mod","391","593372","0.0-391.0","73708","","","","","","triplet","490.7000000178814","","","","0","stimuli/face_uppercase.png","stimuli/stim006_animate_bird_2.png","stimuli/bird_uppercase.png","380"
"html-button-response-mod","392","594755","0.0-392.0","73708","","","","","","triplet","876.4000000059605","","","","1","stimuli/stim016_inanimate_boats_4.png","stimuli/stim001_animate_fish_1.png","stimuli/tree_lowercase.png","381"
"html-button-response-mod","393","595506","0.0-393.0","73708","","","","","","triplet","245.7000000178814","","","","2","stimuli/stim008_animate_bird_4.png","stimuli/stim001_animate_fish_1.png","stimuli/stim003_animate_fish_3.png","382"
"html-button-response-mod","394","596970","0.0-394.0","73708","","","","","","triplet","958.2999999821186","","","","0","stimuli/stim023_inanimate_tools_3.png","stimuli/stim018_inanimate_tree_2.png","stimuli/tools_uppercase.png","383"
"html-button-response-mod","395","597939","0.0-395.0","73708","","","","","","triplet","462.5","","","","2","stimuli/face_uppercase.png","stimuli/stim013_inanimate_boats_1.png","stimuli/bird_lowercase.png","384"
"html-button-response-mod","396","599371","0.0-396.0","73708","","","","","","triplet","926.3000000119209","","","","1","stimuli/stim004_animate_fish_4.png","stimuli/stim018_inanimate_tree_2.png","stimuli/tree_lowercase.png","385"
"html-button-response-mod","397","600654","0.0-397.0","73708","","","","","","triplet","779.4000000059605","","","","1","stimuli/fish_lowercase.png","stimuli/stim002_animate_fish_2.png","stimuli/stim017_inanimate_tree_1.png","386"
"html-button-response-mod","398","603238","0.0-398.0","73708","","","","","","triplet","2079.2999999821186","","","","0","stimuli/stim007_animate_bird_3.png","stimuli/stim010_animate_face_2.png","stimuli/stim013_inanimate_boats_1.png","387"
"html-button-response-mod","399","604189","0.0-399.0","73708","","","","","","triplet","445.2999999821186","","","","2","stimuli/tools_uppercase.png","stimuli/stim010_animate_face_2.png","stimuli/stim020_inanimate_tree_4.png","388"
"html-button-response-mod","400","605006","0.0-400.0","73708","","","","","","triplet","313.2999999821186","","","","1","stimuli/stim015_inanimate_boats_3.png","stimuli/stim007_animate_bird_3.png","stimuli/boats_uppercase.png","389"
"html-button-response-mod","401","605988","0.0-401.0","73708","","","","","","triplet","477","","","","1","stimuli/stim010_animate_face_2.png","stimuli/bird_lowercase.png","stimuli/stim007_animate_bird_3.png","390"
"html-button-response-mod","402","606905","0.0-402.0","73708","","","","","","triplet","411.59999999403954","","","","1","stimuli/stim017_inanimate_tree_1.png","stimuli/face_lowercase.png","stimuli/face_uppercase.png","391"
"html-button-response-mod","403","608272","0.0-403.0","73708","","","","","","triplet","862.7000000178814","","","","2","stimuli/stim010_animate_face_2.png","stimuli/stim016_inanimate_boats_4.png","stimuli/tree_lowercase.png","392"
"html-button-response-mod","404","609304","0.0-404.0","73708","","","","","","triplet","529","","","","2","stimuli/stim007_animate_bird_3.png","stimuli/stim002_animate_fish_2.png","stimuli/face_lowercase.png","393"
"html-button-response-mod","405","611188","0.0-405.0","73708","","","","","","triplet","1379.3999999761581","","","","1","stimuli/stim007_animate_bird_3.png","stimuli/fish_lowercase.png","stimuli/fish_uppercase.png","394"
"html-button-response-mod","406","612538","0.0-406.0","73708","","","","","","triplet","846.7999999821186","","","","2","stimuli/tree_uppercase.png","stimuli/stim017_inanimate_tree_1.png","stimuli/stim024_inanimate_tools_4.png","395"
"html-button-response-mod","407","614672","0.0-407.0","73708","","","","","","triplet","1630.300000011921","","","","2","stimuli/fish_uppercase.png","stimuli/stim010_animate_face_2.png","stimuli/bird_uppercase.png","396"
"html-button-response-mod","408","615904","0.0-408.0","73708","","","","","","triplet","728.5","","","","1","stimuli/stim010_animate_face_2.png","stimuli/stim012_animate_face_4.png","stimuli/stim023_inanimate_tools_3.png","397"
"html-button-response-mod","409","618939","0.0-409.0","73708","","","","","","triplet","2526.199999988079","","","","1","stimuli/tools_lowercase.png","stimuli/stim015_inanimate_boats_3.png","stimuli/boats_lowercase.png","398"
"html-button-response-mod","410","619905","0.0-410.0","73708","","","","","","triplet","460.39999997615814","","","","2","stimuli/tree_uppercase.png","stimuli/stim021_inanimate_tools_1.png","stimuli/stim013_inanimate_boats_1.png","399"
"html-button-response","411","621822","0.0-411.0","73708","","","","","","break","1412.5","<p>BREAK</p><p>Take a break for as long as you need</p><p>Click the button to continue</p>","0","","","","","",""
"survey-text","412","628007","0.0-412.0","73708","","","","","","data_patterns","6174.4000000059605","","{""Q0"":""no""}","","","","","",""
"survey-text","413","630822","0.0-413.0","73708","","","","","","age_question","2811.699999988079","","{""Age"":""19""}","","","","","",""
"html-button-response","414","632872","0.0-414.0","73708","","","","","","gender_question","2047.199999988079","How would you like your gender to be recorded?","0","","","","","",""
"html-button-response","415","633755","0.0-415.0","73708","","","","","","debrief","880.0999999940395","<p> Thank you for participating in this experiment! </p><p> We are investigating the dimensions along which you perceive the world </p><p>The images were all sorted according to whether they are animate or not, and </p><p> whether they are text or images. We are comparing this to some neuroimaging data to see </p> how your conscious classification relates to how your brain classifies the objects automatically. </p>","0","637296.7000000179","","","","",""
