"trial_type","trial_index","time_elapsed","internal_node_id","subject","success","timeout","failed_images","failed_audio","failed_video","test_part","rt","stimulus","response","end_time","button_pressed","stim0","stim1","stim2","trialnr"
"pavlovia","0","8","0.0-0.0","76050","","","","","","","","","","","","","","",""
"preload","1","849","0.0-1.0","76050","true","false","[]","[]","[]","preload","","","","","","","","",""
"html-button-response","2","16870","0.0-2.0","76050","","","","","","","16019","<p>Welcome to the experiment. To begin, please read the following and press the button at the bottom of the screen.</p><p></p><p><strong>Project Name: A study on cognitive processes involved in visual perception</p></strong><p></p><p><strong>PARTICIPANT INFORMATION STATEMENT</strong></p><p></p><strong>(1) What is the study about?</strong><br>You are invited to participate in a study that investigates the cognitive processes involved in perceiving and recognizing visual stimuli.If you decide to participate, you will be asked to complete a task in which you will view pictures, letters, numbers, or words presented on a computer screen.<br><strong>(2) Who can participate?</strong><br>Anyone aged 18 years or over with access to a computer (not a phone/tablet)<br><strong>(3) Where is the study located?</strong><br>The study will be conducted in your browser<br><strong>(4) Who is carrying out the study?</strong><br>The study is being conducted by Sophia Shatek from the Computational Cognitive Neuroscience laboratory at the University of Sydney.<br><strong>(5) What does the study involve?</strong><br>In this study, you will be asked to perform tasks where you will see different stimuli appear on the computer screen.You will respond by pressing a key or using a computer mouse.<br><strong>(6) How much time will the study take?</strong><br>The study takes about 30 minutes<br><strong>(7)	Can I withdraw from the study?</strong><br>Being in this study is completely voluntary - you are not under any obligation to consent. You can withdraw at any time without having to give a reason and without penalty.<br><strong>(8) Will anyone else know the results?</strong><br>All aspects of the study, including results, will be strictly confidential and only the researchers will have access to information on participants.The results and data from the study may be submitted for publication or shared with other research labs, but individual participants will not be identifiable.<br><strong>(9) Will the study benefit me?</strong><br>You will be awarded 0.5 credits for your participation.<br><strong>(10) Can I tell other people about the study?</strong><br>Yes, please tell them to contact Dr Thomas Carlson by email at thomas.carlson@sydney.edu.au.<br><strong>(11) What if I require further information about the study or my involvement in it?</strong><br>When you have read this information, the investigator will discuss it with you further and answer any questions you may have.If you would like to know more at any stage, please feel free to contact Dr Thomas Carlson directly by email at thomas.carlson@sydney.edu.au.If you would like to be informed about the outcomes of the study, contact Dr Thomas Carlson directly by email at thomas.carlson@sydney.edu.au.<br><strong>(12) What if I have a complaint or any concerns?</strong><br>Any person with concerns or complaints about the conduct of a research study can contact The Manager,Human Ethics Administration, University of Sydney on +61 2 8627 8176 (Telephone); +61 2 8627 8177 (Facsimile) or ro.humanethics@sydney.edu.au (Email).</p><p></p><strong>By participating in this experiment, you consent to participate in this study and acknowledge that:</strong><br>1. The procedures required for the project and the times involved have been explained to me, and any questions I have about the project have been answered to my satisfaction.<br>2.	I have read the Above Information Statement and have been given the opportunity to discuss the information and my involvement in the project with the researcher/s.<br>3. I understand that allowing my data to be used in research reports is completely voluntary - I am not under any obligation to consent.<br>4. I understand that my involvement is strictly confidential. I understand that any research data gathered from the results of the study may be publishedhowever no information about me will be used in any way that is identifiable.</p><p></p>","0","","","","","",""
"html-button-response","3","25064","0.0-3.0","76050","","","","","","opening_instructions","8192.300000011921","<p>In this experiment, you will see three images appear on the screen.</p><p>You need to click the 'odd one out', or the image </p><p>that LOOKS MOST DIFFERENT to the other two. </p><p>Just go with your intuition, don't spend too long thinking about each one.</p>","0","31820","","","","",""
"html-button-response-mod","4","27532","0.0-4.0","76050","","","","","","triplet","2465.5999999940395","","","","2","stimuli/stim006_animate_bird_2.png","stimuli/stim011_animate_face_3.png","stimuli/tools_lowercase.png","0"
"html-button-response-mod","5","29594","0.0-5.0","76050","","","","","","triplet","1555.5","","","","1","stimuli/stim001_animate_fish_1.png","stimuli/stim024_inanimate_tools_4.png","stimuli/stim002_animate_fish_2.png","1"
"html-button-response-mod","6","31421","0.0-6.0","76050","","","","","","triplet","1324.800000011921","","","","1","stimuli/stim015_inanimate_boats_3.png","stimuli/face_uppercase.png","stimuli/stim002_animate_fish_2.png","2"
"html-button-response-mod","7","33047","0.0-7.0","76050","","","","","","triplet","1122.7999999821186","","","","1","stimuli/fish_uppercase.png","stimuli/stim004_animate_fish_4.png","stimuli/face_uppercase.png","3"
"html-button-response-mod","8","34706","0.0-8.0","76050","","","","","","triplet","1154","","","","0","stimuli/stim007_animate_bird_3.png","stimuli/stim017_inanimate_tree_1.png","stimuli/stim019_inanimate_tree_3.png","4"
"html-button-response-mod","9","36151","0.0-9.0","76050","","","","","","triplet","937.9000000059605","","","","2","stimuli/stim018_inanimate_tree_2.png","stimuli/stim023_inanimate_tools_3.png","stimuli/face_lowercase.png","5"
"html-button-response-mod","10","37407","0.0-10.0","76050","","","","","","triplet","753.0999999940395","","","","1","stimuli/stim006_animate_bird_2.png","stimuli/face_lowercase.png","stimuli/stim009_animate_face_1.png","6"
"html-button-response-mod","11","38585","0.0-11.0","76050","","","","","","triplet","670.7999999821186","","","","0","stimuli/tools_lowercase.png","stimuli/stim009_animate_face_1.png","stimuli/stim003_animate_fish_3.png","7"
"html-button-response-mod","12","40543","0.0-12.0","76050","","","","","","triplet","1453.199999988079","","","","0","stimuli/stim012_animate_face_4.png","stimuli/stim001_animate_fish_1.png","stimuli/stim013_inanimate_boats_1.png","8"
"html-button-response-mod","13","43355","0.0-13.0","76050","","","","","","triplet","2305.199999988079","","","","2","stimuli/stim018_inanimate_tree_2.png","stimuli/stim010_animate_face_2.png","stimuli/boats_lowercase.png","9"
"html-button-response-mod","14","44565","0.0-14.0","76050","","","","","","triplet","708","","","","0","stimuli/fish_lowercase.png","stimuli/stim016_inanimate_boats_4.png","stimuli/stim009_animate_face_1.png","10"
"html-button-response-mod","15","46742","0.0-15.0","76050","","","","","","triplet","1670.199999988079","","","","1","stimuli/stim014_inanimate_boats_2.png","stimuli/stim005_animate_bird_1.png","stimuli/stim024_inanimate_tools_4.png","11"
"html-button-response-mod","16","48200","0.0-16.0","76050","","","","","","triplet","951.6999999880791","","","","0","stimuli/face_uppercase.png","stimuli/stim001_animate_fish_1.png","stimuli/stim018_inanimate_tree_2.png","12"
"html-button-response-mod","17","50910","0.0-17.0","76050","","","","","","triplet","2203.5999999940395","","","","1","stimuli/stim018_inanimate_tree_2.png","stimuli/stim009_animate_face_1.png","stimuli/stim020_inanimate_tree_4.png","13"
"html-button-response-mod","18","53238","0.0-18.0","76050","","","","","","triplet","1821.5","","","","0","stimuli/tools_lowercase.png","stimuli/stim010_animate_face_2.png","stimuli/stim008_animate_bird_4.png","14"
"html-button-response-mod","19","55000","0.0-19.0","76050","","","","","","triplet","1255.5999999940395","","","","2","stimuli/stim022_inanimate_tools_2.png","stimuli/stim023_inanimate_tools_3.png","stimuli/stim001_animate_fish_1.png","15"
"html-button-response-mod","20","56543","0.0-20.0","76050","","","","","","triplet","1041.2999999821186","","","","0","stimuli/stim002_animate_fish_2.png","stimuli/face_lowercase.png","stimuli/fish_uppercase.png","16"
"html-button-response-mod","21","57919","0.0-21.0","76050","","","","","","triplet","868.6999999880791","","","","1","stimuli/stim003_animate_fish_3.png","stimuli/stim011_animate_face_3.png","stimuli/stim013_inanimate_boats_1.png","17"
"html-button-response-mod","22","59378","0.0-22.0","76050","","","","","","triplet","954.8000000119209","","","","0","stimuli/face_uppercase.png","stimuli/stim012_animate_face_4.png","stimuli/stim015_inanimate_boats_3.png","18"
"html-button-response-mod","23","60906","0.0-23.0","76050","","","","","","triplet","1021.9000000059605","","","","2","stimuli/stim015_inanimate_boats_3.png","stimuli/stim014_inanimate_boats_2.png","stimuli/stim010_animate_face_2.png","19"
"html-button-response-mod","24","62216","0.0-24.0","76050","","","","","","triplet","803.2999999821186","","","","1","stimuli/stim006_animate_bird_2.png","stimuli/tools_lowercase.png","stimuli/stim001_animate_fish_1.png","20"
"html-button-response-mod","25","63623","0.0-25.0","76050","","","","","","triplet","903.9000000059605","","","","1","stimuli/boats_lowercase.png","stimuli/stim007_animate_bird_3.png","stimuli/face_lowercase.png","21"
"html-button-response-mod","26","64867","0.0-26.0","76050","","","","","","triplet","737.2000000178814","","","","1","stimuli/stim022_inanimate_tools_2.png","stimuli/fish_uppercase.png","stimuli/stim021_inanimate_tools_1.png","22"
"html-button-response-mod","27","66194","0.0-27.0","76050","","","","","","triplet","822","","","","2","stimuli/fish_lowercase.png","stimuli/fish_uppercase.png","stimuli/stim010_animate_face_2.png","23"
"html-button-response-mod","28","67413","0.0-28.0","76050","","","","","","triplet","716","","","","1","stimuli/tree_uppercase.png","stimuli/stim011_animate_face_3.png","stimuli/boats_uppercase.png","24"
"html-button-response-mod","29","68891","0.0-29.0","76050","","","","","","triplet","973.7000000178814","","","","0","stimuli/boats_uppercase.png","stimuli/stim019_inanimate_tree_3.png","stimuli/stim020_inanimate_tree_4.png","25"
"html-button-response-mod","30","70200","0.0-30.0","76050","","","","","","triplet","803.0999999940395","","","","2","stimuli/face_lowercase.png","stimuli/face_uppercase.png","stimuli/stim002_animate_fish_2.png","26"
"html-button-response-mod","31","72178","0.0-31.0","76050","","","","","","triplet","1471.0999999940395","","","","1","stimuli/stim008_animate_bird_4.png","stimuli/tree_lowercase.png","stimuli/stim020_inanimate_tree_4.png","27"
"html-button-response-mod","32","73469","0.0-32.0","76050","","","","","","triplet","785.1000000238419","","","","1","stimuli/stim023_inanimate_tools_3.png","stimuli/tools_uppercase.png","stimuli/stim010_animate_face_2.png","28"
"html-button-response-mod","33","74763","0.0-33.0","76050","","","","","","triplet","791.6999999880791","","","","1","stimuli/face_uppercase.png","stimuli/stim012_animate_face_4.png","stimuli/boats_lowercase.png","29"
"html-button-response-mod","34","76323","0.0-34.0","76050","","","","","","triplet","1056.0999999940395","","","","1","stimuli/stim014_inanimate_boats_2.png","stimuli/tree_uppercase.png","stimuli/stim005_animate_bird_1.png","30"
"html-button-response-mod","35","77549","0.0-35.0","76050","","","","","","triplet","723.8000000119209","","","","0","stimuli/fish_uppercase.png","stimuli/stim022_inanimate_tools_2.png","stimuli/stim011_animate_face_3.png","31"
"html-button-response-mod","36","79642","0.0-36.0","76050","","","","","","triplet","1587.300000011921","","","","1","stimuli/stim015_inanimate_boats_3.png","stimuli/stim004_animate_fish_4.png","stimuli/stim021_inanimate_tools_1.png","32"
"html-button-response-mod","37","80883","0.0-37.0","76050","","","","","","triplet","734.7000000178814","","","","0","stimuli/face_lowercase.png","stimuli/stim019_inanimate_tree_3.png","stimuli/stim017_inanimate_tree_1.png","33"
"html-button-response-mod","38","82595","0.0-38.0","76050","","","","","","triplet","1208.300000011921","","","","1","stimuli/stim020_inanimate_tree_4.png","stimuli/stim023_inanimate_tools_3.png","stimuli/stim018_inanimate_tree_2.png","34"
"html-button-response-mod","39","83820","0.0-39.0","76050","","","","","","triplet","721.7999999821186","","","","1","stimuli/stim024_inanimate_tools_4.png","stimuli/fish_uppercase.png","stimuli/stim014_inanimate_boats_2.png","35"
"html-button-response-mod","40","85047","0.0-40.0","76050","","","","","","triplet","724.8000000119209","","","","2","stimuli/stim020_inanimate_tree_4.png","stimuli/stim019_inanimate_tree_3.png","stimuli/tools_lowercase.png","36"
"html-button-response-mod","41","86292","0.0-41.0","76050","","","","","","triplet","739.1999999880791","","","","1","stimuli/stim024_inanimate_tools_4.png","stimuli/fish_uppercase.png","stimuli/stim017_inanimate_tree_1.png","37"
"html-button-response-mod","42","87617","0.0-42.0","76050","","","","","","triplet","818.9000000059605","","","","0","stimuli/face_lowercase.png","stimuli/stim005_animate_bird_1.png","stimuli/stim015_inanimate_boats_3.png","38"
"html-button-response-mod","43","89145","0.0-43.0","76050","","","","","","triplet","1021.1999999880791","","","","2","stimuli/stim021_inanimate_tools_1.png","stimuli/stim024_inanimate_tools_4.png","stimuli/stim003_animate_fish_3.png","39"
"html-button-response-mod","44","95050","0.0-44.0","76050","","","","","","triplet","5402.4000000059605","","","","0","stimuli/stim015_inanimate_boats_3.png","stimuli/stim010_animate_face_2.png","stimuli/stim003_animate_fish_3.png","40"
"html-button-response-mod","45","96446","0.0-45.0","76050","","","","","","triplet","889.9000000059605","","","","0","stimuli/tree_lowercase.png","stimuli/stim006_animate_bird_2.png","stimuli/stim023_inanimate_tools_3.png","41"
"html-button-response-mod","46","97791","0.0-46.0","76050","","","","","","triplet","838.2999999821186","","","","1","stimuli/stim005_animate_bird_1.png","stimuli/bird_uppercase.png","stimuli/stim021_inanimate_tools_1.png","42"
"html-button-response-mod","47","99284","0.0-47.0","76050","","","","","","triplet","987.8000000119209","","","","2","stimuli/stim023_inanimate_tools_3.png","stimuli/stim002_animate_fish_2.png","stimuli/fish_lowercase.png","43"
"html-button-response-mod","48","100910","0.0-48.0","76050","","","","","","triplet","1119.5999999940395","","","","2","stimuli/stim004_animate_fish_4.png","stimuli/stim021_inanimate_tools_1.png","stimuli/boats_uppercase.png","44"
"html-button-response-mod","49","102385","0.0-49.0","76050","","","","","","triplet","969.3000000119209","","","","2","stimuli/stim006_animate_bird_2.png","stimuli/stim002_animate_fish_2.png","stimuli/face_lowercase.png","45"
"html-button-response-mod","50","104597","0.0-50.0","76050","","","","","","triplet","1708.2999999821186","","","","2","stimuli/stim022_inanimate_tools_2.png","stimuli/stim024_inanimate_tools_4.png","stimuli/stim010_animate_face_2.png","46"
"html-button-response-mod","51","106240","0.0-51.0","76050","","","","","","triplet","1137.5999999940395","","","","0","stimuli/stim019_inanimate_tree_3.png","stimuli/tree_lowercase.png","stimuli/boats_lowercase.png","47"
"html-button-response-mod","52","107984","0.0-52.0","76050","","","","","","triplet","1237.300000011921","","","","0","stimuli/boats_uppercase.png","stimuli/stim024_inanimate_tools_4.png","stimuli/stim022_inanimate_tools_2.png","48"
"html-button-response-mod","53","110693","0.0-53.0","76050","","","","","","triplet","2203.199999988079","","","","0","stimuli/stim012_animate_face_4.png","stimuli/stim004_animate_fish_4.png","stimuli/stim003_animate_fish_3.png","49"
"html-button-response","54","112667","0.0-54.0","76050","","","","","","break","1472.0999999940395","<p>BREAK</p><p>Take a break for as long as you need</p><p>Click the button to continue</p>","0","","","","","",""
"html-button-response-mod","55","113534","0.0-55.0","76050","","","","","","triplet","864.6000000238419","","","","1","stimuli/stim011_animate_face_3.png","stimuli/face_lowercase.png","stimuli/stim002_animate_fish_2.png","50"
"html-button-response-mod","56","115943","0.0-56.0","76050","","","","","","triplet","1902.9000000059605","","","","0","stimuli/stim024_inanimate_tools_4.png","stimuli/stim003_animate_fish_3.png","stimuli/stim009_animate_face_1.png","51"
"html-button-response-mod","57","117302","0.0-57.0","76050","","","","","","triplet","853.8000000119209","","","","2","stimuli/bird_lowercase.png","stimuli/tools_uppercase.png","stimuli/stim015_inanimate_boats_3.png","52"
"html-button-response-mod","58","118747","0.0-58.0","76050","","","","","","triplet","940.4000000059605","","","","0","stimuli/tree_lowercase.png","stimuli/stim024_inanimate_tools_4.png","stimuli/stim019_inanimate_tree_3.png","53"
"html-button-response-mod","59","120289","0.0-59.0","76050","","","","","","triplet","1035.800000011921","","","","0","stimuli/stim010_animate_face_2.png","stimuli/stim017_inanimate_tree_1.png","stimuli/stim018_inanimate_tree_2.png","54"
"html-button-response-mod","60","121635","0.0-60.0","76050","","","","","","triplet","839.0999999940395","","","","0","stimuli/tools_uppercase.png","stimuli/stim015_inanimate_boats_3.png","stimuli/stim017_inanimate_tree_1.png","55"
"html-button-response-mod","61","123042","0.0-61.0","76050","","","","","","triplet","901.4000000059605","","","","1","stimuli/stim005_animate_bird_1.png","stimuli/tree_lowercase.png","stimuli/stim011_animate_face_3.png","56"
"html-button-response-mod","62","124585","0.0-62.0","76050","","","","","","triplet","1035.9000000059605","","","","1","stimuli/tools_uppercase.png","stimuli/stim012_animate_face_4.png","stimuli/boats_lowercase.png","57"
"html-button-response-mod","63","126346","0.0-63.0","76050","","","","","","triplet","1255","","","","2","stimuli/stim019_inanimate_tree_3.png","stimuli/stim018_inanimate_tree_2.png","stimuli/fish_uppercase.png","58"
"html-button-response-mod","64","129155","0.0-64.0","76050","","","","","","triplet","2302.800000011921","","","","1","stimuli/stim012_animate_face_4.png","stimuli/stim020_inanimate_tree_4.png","stimuli/stim002_animate_fish_2.png","59"
"html-button-response-mod","65","132784","0.0-65.0","76050","","","","","","triplet","3122.399999976158","","","","2","stimuli/stim011_animate_face_3.png","stimuli/stim005_animate_bird_1.png","stimuli/stim020_inanimate_tree_4.png","60"
"html-button-response-mod","66","134142","0.0-66.0","76050","","","","","","triplet","851.4000000059605","","","","0","stimuli/tree_uppercase.png","stimuli/stim019_inanimate_tree_3.png","stimuli/stim016_inanimate_boats_4.png","61"
"html-button-response-mod","67","135470","0.0-67.0","76050","","","","","","triplet","821.6999999880791","","","","0","stimuli/fish_uppercase.png","stimuli/stim007_animate_bird_3.png","stimuli/stim009_animate_face_1.png","62"
"html-button-response-mod","68","136781","0.0-68.0","76050","","","","","","triplet","806.4000000059605","","","","1","stimuli/stim020_inanimate_tree_4.png","stimuli/boats_lowercase.png","stimuli/stim015_inanimate_boats_3.png","63"
"html-button-response-mod","69","138057","0.0-69.0","76050","","","","","","triplet","770.2999999821186","","","","0","stimuli/fish_uppercase.png","stimuli/stim024_inanimate_tools_4.png","stimuli/stim003_animate_fish_3.png","64"
"html-button-response-mod","70","140914","0.0-70.0","76050","","","","","","triplet","2354","","","","2","stimuli/stim022_inanimate_tools_2.png","stimuli/stim024_inanimate_tools_4.png","stimuli/stim014_inanimate_boats_2.png","65"
"html-button-response-mod","71","142991","0.0-71.0","76050","","","","","","triplet","1571.7000000178814","","","","2","stimuli/stim009_animate_face_1.png","stimuli/stim007_animate_bird_3.png","stimuli/stim018_inanimate_tree_2.png","66"
"html-button-response-mod","72","144837","0.0-72.0","76050","","","","","","triplet","1339.7999999821186","","","","2","stimuli/stim005_animate_bird_1.png","stimuli/stim002_animate_fish_2.png","stimuli/stim009_animate_face_1.png","67"
"html-button-response-mod","73","146195","0.0-73.0","76050","","","","","","triplet","853.1999999880791","","","","1","stimuli/stim001_animate_fish_1.png","stimuli/tree_uppercase.png","stimuli/stim002_animate_fish_2.png","68"
"html-button-response-mod","74","147590","0.0-74.0","76050","","","","","","triplet","888.0999999940395","","","","1","stimuli/stim016_inanimate_boats_4.png","stimuli/fish_uppercase.png","stimuli/stim005_animate_bird_1.png","69"
"html-button-response-mod","75","149351","0.0-75.0","76050","","","","","","triplet","1254.9000000059605","","","","0","stimuli/stim024_inanimate_tools_4.png","stimuli/stim007_animate_bird_3.png","stimuli/stim005_animate_bird_1.png","70"
"html-button-response-mod","76","150879","0.0-76.0","76050","","","","","","triplet","1023.3000000119209","","","","2","stimuli/stim014_inanimate_boats_2.png","stimuli/stim015_inanimate_boats_3.png","stimuli/bird_uppercase.png","71"
"html-button-response-mod","77","152336","0.0-77.0","76050","","","","","","triplet","951.3000000119209","","","","2","stimuli/fish_lowercase.png","stimuli/boats_uppercase.png","stimuli/stim002_animate_fish_2.png","72"
"html-button-response-mod","78","153931","0.0-78.0","76050","","","","","","triplet","1090.7999999821186","","","","1","stimuli/stim004_animate_fish_4.png","stimuli/bird_lowercase.png","stimuli/stim014_inanimate_boats_2.png","73"
"html-button-response-mod","79","155358","0.0-79.0","76050","","","","","","triplet","923.2999999821186","","","","0","stimuli/tree_uppercase.png","stimuli/stim008_animate_bird_4.png","stimuli/stim015_inanimate_boats_3.png","74"
"html-button-response-mod","80","157217","0.0-80.0","76050","","","","","","triplet","1354","","","","1","stimuli/boats_uppercase.png","stimuli/bird_lowercase.png","stimuli/bird_uppercase.png","75"
"html-button-response-mod","81","158662","0.0-81.0","76050","","","","","","triplet","940.2999999821186","","","","1","stimuli/fish_lowercase.png","stimuli/stim014_inanimate_boats_2.png","stimuli/tools_uppercase.png","76"
"html-button-response-mod","82","161204","0.0-82.0","76050","","","","","","triplet","2036.4000000059605","","","","0","stimuli/stim002_animate_fish_2.png","stimuli/stim010_animate_face_2.png","stimuli/stim011_animate_face_3.png","77"
"html-button-response-mod","83","162851","0.0-83.0","76050","","","","","","triplet","1143.1000000238419","","","","2","stimuli/stim016_inanimate_boats_4.png","stimuli/stim008_animate_bird_4.png","stimuli/tools_uppercase.png","78"
"html-button-response-mod","84","164308","0.0-84.0","76050","","","","","","triplet","955.1999999880791","","","","0","stimuli/tools_uppercase.png","stimuli/stim011_animate_face_3.png","stimuli/stim016_inanimate_boats_4.png","79"
"html-button-response-mod","85","166152","0.0-85.0","76050","","","","","","triplet","1337.5","","","","2","stimuli/stim016_inanimate_boats_4.png","stimuli/stim003_animate_fish_3.png","stimuli/fish_uppercase.png","80"
"html-button-response-mod","86","168262","0.0-86.0","76050","","","","","","triplet","1607.2000000178814","","","","1","stimuli/stim004_animate_fish_4.png","stimuli/stim018_inanimate_tree_2.png","stimuli/stim005_animate_bird_1.png","81"
"html-button-response-mod","87","169758","0.0-87.0","76050","","","","","","triplet","989.0999999940395","","","","2","stimuli/tools_lowercase.png","stimuli/boats_uppercase.png","stimuli/stim014_inanimate_boats_2.png","82"
"html-button-response-mod","88","171367","0.0-88.0","76050","","","","","","triplet","1102.5999999940395","","","","0","stimuli/stim018_inanimate_tree_2.png","stimuli/stim002_animate_fish_2.png","stimuli/stim010_animate_face_2.png","83"
"html-button-response-mod","89","172794","0.0-89.0","76050","","","","","","triplet","924.5999999940395","","","","2","stimuli/stim003_animate_fish_3.png","stimuli/stim001_animate_fish_1.png","stimuli/tree_uppercase.png","84"
"html-button-response-mod","90","174719","0.0-90.0","76050","","","","","","triplet","1419.2000000178814","","","","2","stimuli/stim002_animate_fish_2.png","stimuli/stim007_animate_bird_3.png","stimuli/stim019_inanimate_tree_3.png","85"
"html-button-response-mod","91","176147","0.0-91.0","76050","","","","","","triplet","921.5","","","","2","stimuli/stim011_animate_face_3.png","stimuli/stim007_animate_bird_3.png","stimuli/face_uppercase.png","86"
"html-button-response-mod","92","177957","0.0-92.0","76050","","","","","","triplet","1306.7000000178814","","","","1","stimuli/stim012_animate_face_4.png","stimuli/stim021_inanimate_tools_1.png","stimuli/stim010_animate_face_2.png","87"
"html-button-response-mod","93","179700","0.0-93.0","76050","","","","","","triplet","1236","","","","2","stimuli/stim014_inanimate_boats_2.png","stimuli/stim012_animate_face_4.png","stimuli/stim018_inanimate_tree_2.png","88"
"html-button-response-mod","94","181143","0.0-94.0","76050","","","","","","triplet","938.5","","","","1","stimuli/bird_lowercase.png","stimuli/stim008_animate_bird_4.png","stimuli/tree_lowercase.png","89"
"html-button-response-mod","95","182570","0.0-95.0","76050","","","","","","triplet","924.3000000119209","","","","2","stimuli/stim013_inanimate_boats_1.png","stimuli/stim010_animate_face_2.png","stimuli/stim017_inanimate_tree_1.png","90"
"html-button-response-mod","96","183995","0.0-96.0","76050","","","","","","triplet","918.3000000119209","","","","0","stimuli/fish_uppercase.png","stimuli/stim007_animate_bird_3.png","stimuli/stim013_inanimate_boats_1.png","91"
"html-button-response-mod","97","185656","0.0-97.0","76050","","","","","","triplet","1156.5","","","","0","stimuli/stim014_inanimate_boats_2.png","stimuli/tools_uppercase.png","stimuli/fish_uppercase.png","92"
"html-button-response-mod","98","187915","0.0-98.0","76050","","","","","","triplet","1755","","","","2","stimuli/fish_uppercase.png","stimuli/face_uppercase.png","stimuli/boats_lowercase.png","93"
"html-button-response-mod","99","189543","0.0-99.0","76050","","","","","","triplet","1125.1000000238419","","","","1","stimuli/stim008_animate_bird_4.png","stimuli/bird_lowercase.png","stimuli/stim018_inanimate_tree_2.png","94"
"html-button-response-mod","100","191452","0.0-100.0","76050","","","","","","triplet","1406.8999999761581","","","","0","stimuli/stim023_inanimate_tools_3.png","stimuli/stim006_animate_bird_2.png","stimuli/stim011_animate_face_3.png","95"
"html-button-response-mod","101","192779","0.0-101.0","76050","","","","","","triplet","822.1999999880791","","","","1","stimuli/tree_uppercase.png","stimuli/stim006_animate_bird_2.png","stimuli/fish_lowercase.png","96"
"html-button-response-mod","102","194204","0.0-102.0","76050","","","","","","triplet","918.5","","","","2","stimuli/stim011_animate_face_3.png","stimuli/stim009_animate_face_1.png","stimuli/stim021_inanimate_tools_1.png","97"
"html-button-response-mod","103","196315","0.0-103.0","76050","","","","","","triplet","1605.300000011921","","","","1","stimuli/stim017_inanimate_tree_1.png","stimuli/boats_lowercase.png","stimuli/stim004_animate_fish_4.png","98"
"html-button-response-mod","104","197675","0.0-104.0","76050","","","","","","triplet","853.6000000238419","","","","2","stimuli/stim020_inanimate_tree_4.png","stimuli/stim018_inanimate_tree_2.png","stimuli/tree_lowercase.png","99"
"html-button-response","105","199249","0.0-105.0","76050","","","","","","break","1067.5","<p>BREAK</p><p>Take a break for as long as you need</p><p>Click the button to continue</p>","0","","","","","",""
"html-button-response-mod","106","200320","0.0-106.0","76050","","","","","","triplet","1069.5","","","","1","stimuli/stim013_inanimate_boats_1.png","stimuli/tools_uppercase.png","stimuli/stim012_animate_face_4.png","100"
"html-button-response-mod","107","201730","0.0-107.0","76050","","","","","","triplet","907.4000000059605","","","","2","stimuli/face_uppercase.png","stimuli/boats_uppercase.png","stimuli/stim023_inanimate_tools_3.png","101"
"html-button-response-mod","108","203040","0.0-108.0","76050","","","","","","triplet","807.7999999821186","","","","0","stimuli/stim004_animate_fish_4.png","stimuli/boats_lowercase.png","stimuli/tools_uppercase.png","102"
"html-button-response-mod","109","204417","0.0-109.0","76050","","","","","","triplet","870.3000000119209","","","","2","stimuli/stim014_inanimate_boats_2.png","stimuli/stim008_animate_bird_4.png","stimuli/stim022_inanimate_tools_2.png","103"
"html-button-response-mod","110","205728","0.0-110.0","76050","","","","","","triplet","808.6000000238419","","","","1","stimuli/stim005_animate_bird_1.png","stimuli/tools_uppercase.png","stimuli/stim012_animate_face_4.png","104"
"html-button-response-mod","111","207036","0.0-111.0","76050","","","","","","triplet","802.8000000119209","","","","0","stimuli/bird_uppercase.png","stimuli/stim023_inanimate_tools_3.png","stimuli/stim019_inanimate_tree_3.png","105"
"html-button-response-mod","112","208464","0.0-112.0","76050","","","","","","triplet","923.0999999940395","","","","0","stimuli/stim004_animate_fish_4.png","stimuli/tree_lowercase.png","stimuli/boats_lowercase.png","106"
"html-button-response-mod","113","210273","0.0-113.0","76050","","","","","","triplet","1307.2000000178814","","","","2","stimuli/stim002_animate_fish_2.png","stimuli/stim011_animate_face_3.png","stimuli/stim015_inanimate_boats_3.png","107"
"html-button-response-mod","114","211583","0.0-114.0","76050","","","","","","triplet","803.3000000119209","","","","0","stimuli/boats_lowercase.png","stimuli/stim016_inanimate_boats_4.png","stimuli/stim014_inanimate_boats_2.png","108"
"html-button-response-mod","115","214895","0.0-115.0","76050","","","","","","triplet","2805.699999988079","","","","0","stimuli/stim024_inanimate_tools_4.png","stimuli/stim009_animate_face_1.png","stimuli/stim018_inanimate_tree_2.png","109"
"html-button-response-mod","116","216122","0.0-116.0","76050","","","","","","triplet","721.1999999880791","","","","0","stimuli/tree_uppercase.png","stimuli/stim005_animate_bird_1.png","stimuli/stim002_animate_fish_2.png","110"
"html-button-response-mod","117","217596","0.0-117.0","76050","","","","","","triplet","967.5","","","","2","stimuli/bird_uppercase.png","stimuli/boats_lowercase.png","stimuli/stim010_animate_face_2.png","111"
"html-button-response-mod","118","218991","0.0-118.0","76050","","","","","","triplet","888.5999999940395","","","","0","stimuli/stim019_inanimate_tree_3.png","stimuli/stim022_inanimate_tools_2.png","stimuli/stim021_inanimate_tools_1.png","112"
"html-button-response-mod","119","221533","0.0-119.0","76050","","","","","","triplet","2035.8999999761581","","","","2","stimuli/stim015_inanimate_boats_3.png","stimuli/stim013_inanimate_boats_1.png","stimuli/stim010_animate_face_2.png","113"
"html-button-response-mod","120","222963","0.0-120.0","76050","","","","","","triplet","924.4000000059605","","","","1","stimuli/stim016_inanimate_boats_4.png","stimuli/stim020_inanimate_tree_4.png","stimuli/stim010_animate_face_2.png","114"
"html-button-response-mod","121","224187","0.0-121.0","76050","","","","","","triplet","718.0999999940395","","","","0","stimuli/tree_uppercase.png","stimuli/stim010_animate_face_2.png","stimuli/stim020_inanimate_tree_4.png","115"
"html-button-response-mod","122","228715","0.0-122.0","76050","","","","","","triplet","4022.800000011921","","","","0","stimuli/stim001_animate_fish_1.png","stimuli/stim023_inanimate_tools_3.png","stimuli/stim016_inanimate_boats_4.png","116"
"html-button-response-mod","123","230509","0.0-123.0","76050","","","","","","triplet","1287.199999988079","","","","1","stimuli/tools_lowercase.png","stimuli/stim017_inanimate_tree_1.png","stimuli/tree_uppercase.png","117"
"html-button-response-mod","124","232002","0.0-124.0","76050","","","","","","triplet","991.8000000119209","","","","2","stimuli/stim004_animate_fish_4.png","stimuli/stim009_animate_face_1.png","stimuli/tree_lowercase.png","118"
"html-button-response-mod","125","233461","0.0-125.0","76050","","","","","","triplet","955.3000000119209","","","","2","stimuli/stim019_inanimate_tree_3.png","stimuli/stim017_inanimate_tree_1.png","stimuli/stim012_animate_face_4.png","119"
"html-button-response-mod","126","234938","0.0-126.0","76050","","","","","","triplet","973.5","","","","2","stimuli/stim006_animate_bird_2.png","stimuli/stim005_animate_bird_1.png","stimuli/stim009_animate_face_1.png","120"
"html-button-response-mod","127","236365","0.0-127.0","76050","","","","","","triplet","920","","","","0","stimuli/stim020_inanimate_tree_4.png","stimuli/fish_lowercase.png","stimuli/bird_uppercase.png","121"
"html-button-response-mod","128","237791","0.0-128.0","76050","","","","","","triplet","924.0999999940395","","","","0","stimuli/stim014_inanimate_boats_2.png","stimuli/boats_lowercase.png","stimuli/bird_uppercase.png","122"
"html-button-response-mod","129","239452","0.0-129.0","76050","","","","","","triplet","1157.2999999821186","","","","1","stimuli/tools_lowercase.png","stimuli/stim022_inanimate_tools_2.png","stimuli/fish_lowercase.png","123"
"html-button-response-mod","130","241079","0.0-130.0","76050","","","","","","triplet","1125","","","","1","stimuli/stim023_inanimate_tools_3.png","stimuli/tools_uppercase.png","stimuli/stim016_inanimate_boats_4.png","124"
"html-button-response-mod","131","242442","0.0-131.0","76050","","","","","","triplet","860.3000000119209","","","","0","stimuli/boats_uppercase.png","stimuli/stim012_animate_face_4.png","stimuli/stim008_animate_bird_4.png","125"
"html-button-response-mod","132","244952","0.0-132.0","76050","","","","","","triplet","2004.5","","","","0","stimuli/stim023_inanimate_tools_3.png","stimuli/stim002_animate_fish_2.png","stimuli/stim010_animate_face_2.png","126"
"html-button-response-mod","133","246628","0.0-133.0","76050","","","","","","triplet","1169.800000011921","","","","2","stimuli/tree_lowercase.png","stimuli/fish_lowercase.png","stimuli/stim008_animate_bird_4.png","127"
"html-button-response-mod","134","248504","0.0-134.0","76050","","","","","","triplet","1369.300000011921","","","","1","stimuli/stim012_animate_face_4.png","stimuli/boats_lowercase.png","stimuli/stim002_animate_fish_2.png","128"
"html-button-response-mod","135","250199","0.0-135.0","76050","","","","","","triplet","1193.4000000059605","","","","2","stimuli/stim010_animate_face_2.png","stimuli/stim009_animate_face_1.png","stimuli/fish_lowercase.png","129"
"html-button-response-mod","136","251825","0.0-136.0","76050","","","","","","triplet","1122.9000000059605","","","","2","stimuli/face_uppercase.png","stimuli/boats_uppercase.png","stimuli/bird_lowercase.png","130"
"html-button-response-mod","137","253452","0.0-137.0","76050","","","","","","triplet","1120.800000011921","","","","0","stimuli/stim022_inanimate_tools_2.png","stimuli/boats_uppercase.png","stimuli/tools_lowercase.png","131"
"html-button-response-mod","138","256780","0.0-138.0","76050","","","","","","triplet","2821.9000000059605","","","","0","stimuli/stim021_inanimate_tools_1.png","stimuli/stim006_animate_bird_2.png","stimuli/stim019_inanimate_tree_3.png","132"
"html-button-response-mod","139","258457","0.0-139.0","76050","","","","","","triplet","1172.5999999940395","","","","1","stimuli/stim013_inanimate_boats_1.png","stimuli/tools_uppercase.png","stimuli/stim014_inanimate_boats_2.png","133"
"html-button-response-mod","140","260068","0.0-140.0","76050","","","","","","triplet","1106.800000011921","","","","1","stimuli/tools_lowercase.png","stimuli/stim009_animate_face_1.png","stimuli/tree_uppercase.png","134"
"html-button-response-mod","141","261796","0.0-141.0","76050","","","","","","triplet","1222.9000000059605","","","","2","stimuli/stim008_animate_bird_4.png","stimuli/stim006_animate_bird_2.png","stimuli/face_lowercase.png","135"
"html-button-response-mod","142","263488","0.0-142.0","76050","","","","","","triplet","1190.4000000059605","","","","0","stimuli/stim018_inanimate_tree_2.png","stimuli/stim024_inanimate_tools_4.png","stimuli/boats_lowercase.png","136"
"html-button-response-mod","143","264932","0.0-143.0","76050","","","","","","triplet","940.9000000059605","","","","0","stimuli/boats_uppercase.png","stimuli/stim023_inanimate_tools_3.png","stimuli/stim019_inanimate_tree_3.png","137"
"html-button-response-mod","144","266427","0.0-144.0","76050","","","","","","triplet","992","","","","2","stimuli/stim019_inanimate_tree_3.png","stimuli/stim024_inanimate_tools_4.png","stimuli/boats_lowercase.png","138"
"html-button-response-mod","145","268704","0.0-145.0","76050","","","","","","triplet","1770.5999999940395","","","","0","stimuli/stim013_inanimate_boats_1.png","stimuli/fish_uppercase.png","stimuli/tree_lowercase.png","139"
"html-button-response-mod","146","271562","0.0-146.0","76050","","","","","","triplet","2351.5","","","","1","stimuli/stim001_animate_fish_1.png","stimuli/boats_uppercase.png","stimuli/stim017_inanimate_tree_1.png","140"
"html-button-response-mod","147","273425","0.0-147.0","76050","","","","","","triplet","1356.699999988079","","","","2","stimuli/stim005_animate_bird_1.png","stimuli/stim003_animate_fish_3.png","stimuli/fish_uppercase.png","141"
"html-button-response-mod","148","275468","0.0-148.0","76050","","","","","","triplet","1536.7999999821186","","","","1","stimuli/stim008_animate_bird_4.png","stimuli/stim022_inanimate_tools_2.png","stimuli/stim003_animate_fish_3.png","142"
"html-button-response-mod","149","277011","0.0-149.0","76050","","","","","","triplet","1037","","","","0","stimuli/face_lowercase.png","stimuli/stim013_inanimate_boats_1.png","stimuli/stim008_animate_bird_4.png","143"
"html-button-response-mod","150","278421","0.0-150.0","76050","","","","","","triplet","907.6999999880791","","","","0","stimuli/stim019_inanimate_tree_3.png","stimuli/face_uppercase.png","stimuli/fish_uppercase.png","144"
"html-button-response-mod","151","281232","0.0-151.0","76050","","","","","","triplet","2304.4000000059605","","","","2","stimuli/face_lowercase.png","stimuli/bird_uppercase.png","stimuli/stim016_inanimate_boats_4.png","145"
"html-button-response-mod","152","282923","0.0-152.0","76050","","","","","","triplet","1185","","","","0","stimuli/stim003_animate_fish_3.png","stimuli/tree_uppercase.png","stimuli/stim018_inanimate_tree_2.png","146"
"html-button-response-mod","153","284035","0.0-153.0","76050","","","","","","triplet","609","","","","0","stimuli/tree_uppercase.png","stimuli/stim015_inanimate_boats_3.png","stimuli/stim007_animate_bird_3.png","147"
"html-button-response-mod","154","285343","0.0-154.0","76050","","","","","","triplet","801.6000000238419","","","","0","stimuli/tools_uppercase.png","stimuli/stim003_animate_fish_3.png","stimuli/stim007_animate_bird_3.png","148"
"html-button-response-mod","155","286755","0.0-155.0","76050","","","","","","triplet","909.5","","","","2","stimuli/stim006_animate_bird_2.png","stimuli/stim017_inanimate_tree_1.png","stimuli/fish_lowercase.png","149"
"html-button-response","156","289828","0.0-156.0","76050","","","","","","break","2571.300000011921","<p>BREAK</p><p>Take a break for as long as you need</p><p>Click the button to continue</p>","0","","","","","",""
"html-button-response-mod","157","291082","0.0-157.0","76050","","","","","","triplet","1252.9000000059605","","","","2","stimuli/stim005_animate_bird_1.png","stimuli/stim011_animate_face_3.png","stimuli/stim021_inanimate_tools_1.png","150"
"html-button-response-mod","158","292590","0.0-158.0","76050","","","","","","triplet","1001.5999999940395","","","","0","stimuli/boats_uppercase.png","stimuli/stim023_inanimate_tools_3.png","stimuli/stim010_animate_face_2.png","151"
"html-button-response-mod","159","294136","0.0-159.0","76050","","","","","","triplet","1039.4000000059605","","","","2","stimuli/stim002_animate_fish_2.png","stimuli/stim014_inanimate_boats_2.png","stimuli/bird_uppercase.png","152"
"html-button-response-mod","160","295445","0.0-160.0","76050","","","","","","triplet","803.7000000178814","","","","1","stimuli/stim008_animate_bird_4.png","stimuli/bird_uppercase.png","stimuli/stim010_animate_face_2.png","153"
"html-button-response-mod","161","296805","0.0-161.0","76050","","","","","","triplet","854.7999999821186","","","","1","stimuli/fish_lowercase.png","stimuli/stim002_animate_fish_2.png","stimuli/tools_uppercase.png","154"
"html-button-response-mod","162","298181","0.0-162.0","76050","","","","","","triplet","870","","","","0","stimuli/fish_lowercase.png","stimuli/stim020_inanimate_tree_4.png","stimuli/stim011_animate_face_3.png","155"
"html-button-response-mod","163","299542","0.0-163.0","76050","","","","","","triplet","859.8000000119209","","","","2","stimuli/stim009_animate_face_1.png","stimuli/stim012_animate_face_4.png","stimuli/stim015_inanimate_boats_3.png","156"
"html-button-response-mod","164","300967","0.0-164.0","76050","","","","","","triplet","918.5","","","","2","stimuli/stim018_inanimate_tree_2.png","stimuli/stim010_animate_face_2.png","stimuli/fish_uppercase.png","157"
"html-button-response-mod","165","302296","0.0-165.0","76050","","","","","","triplet","824.5999999940395","","","","1","stimuli/stim009_animate_face_1.png","stimuli/face_lowercase.png","stimuli/stim014_inanimate_boats_2.png","158"
"html-button-response-mod","166","304755","0.0-166.0","76050","","","","","","triplet","1952.2000000178814","","","","2","stimuli/stim008_animate_bird_4.png","stimuli/stim001_animate_fish_1.png","stimuli/stim009_animate_face_1.png","159"
"html-button-response-mod","167","307557","0.0-167.0","76050","","","","","","triplet","2297.199999988079","","","","2","stimuli/stim002_animate_fish_2.png","stimuli/stim010_animate_face_2.png","stimuli/face_lowercase.png","160"
"html-button-response-mod","168","309252","0.0-168.0","76050","","","","","","triplet","1190.800000011921","","","","0","stimuli/bird_lowercase.png","stimuli/stim011_animate_face_3.png","stimuli/stim015_inanimate_boats_3.png","161"
"html-button-response-mod","169","311246","0.0-169.0","76050","","","","","","triplet","1489.0999999940395","","","","2","stimuli/stim019_inanimate_tree_3.png","stimuli/stim009_animate_face_1.png","stimuli/bird_lowercase.png","162"
"html-button-response-mod","170","313473","0.0-170.0","76050","","","","","","triplet","1723.199999988079","","","","1","stimuli/stim006_animate_bird_2.png","stimuli/stim021_inanimate_tools_1.png","stimuli/stim007_animate_bird_3.png","163"
"html-button-response-mod","171","314965","0.0-171.0","76050","","","","","","triplet","985.3999999761581","","","","0","stimuli/stim008_animate_bird_4.png","stimuli/boats_lowercase.png","stimuli/tools_uppercase.png","164"
"html-button-response-mod","172","316642","0.0-172.0","76050","","","","","","triplet","1170.800000011921","","","","0","stimuli/stim003_animate_fish_3.png","stimuli/boats_uppercase.png","stimuli/tools_lowercase.png","165"
"html-button-response-mod","173","318134","0.0-173.0","76050","","","","","","triplet","985.5","","","","2","stimuli/tools_lowercase.png","stimuli/bird_uppercase.png","stimuli/stim014_inanimate_boats_2.png","166"
"html-button-response-mod","174","319596","0.0-174.0","76050","","","","","","triplet","956.5","","","","1","stimuli/bird_lowercase.png","stimuli/stim003_animate_fish_3.png","stimuli/tree_lowercase.png","167"
"html-button-response-mod","175","321272","0.0-175.0","76050","","","","","","triplet","1170.5","","","","2","stimuli/stim015_inanimate_boats_3.png","stimuli/stim021_inanimate_tools_1.png","stimuli/bird_uppercase.png","168"
"html-button-response-mod","176","324032","0.0-176.0","76050","","","","","","triplet","2258.0999999940395","","","","2","stimuli/stim023_inanimate_tools_3.png","stimuli/stim017_inanimate_tree_1.png","stimuli/stim010_animate_face_2.png","169"
"html-button-response-mod","177","325361","0.0-177.0","76050","","","","","","triplet","821.8999999761581","","","","1","stimuli/fish_lowercase.png","stimuli/stim020_inanimate_tree_4.png","stimuli/tree_uppercase.png","170"
"html-button-response-mod","178","326936","0.0-178.0","76050","","","","","","triplet","1073.0999999940395","","","","2","stimuli/stim004_animate_fish_4.png","stimuli/stim007_animate_bird_3.png","stimuli/stim021_inanimate_tools_1.png","171"
"html-button-response-mod","179","328415","0.0-179.0","76050","","","","","","triplet","972.2999999821186","","","","2","stimuli/stim015_inanimate_boats_3.png","stimuli/stim003_animate_fish_3.png","stimuli/stim011_animate_face_3.png","172"
"html-button-response-mod","180","329941","0.0-180.0","76050","","","","","","triplet","1022.4000000059605","","","","2","stimuli/stim007_animate_bird_3.png","stimuli/stim024_inanimate_tools_4.png","stimuli/fish_uppercase.png","173"
"html-button-response-mod","181","331435","0.0-181.0","76050","","","","","","triplet","989.8000000119209","","","","2","stimuli/stim019_inanimate_tree_3.png","stimuli/stim013_inanimate_boats_1.png","stimuli/fish_lowercase.png","174"
"html-button-response-mod","182","333095","0.0-182.0","76050","","","","","","triplet","1154.6000000238419","","","","1","stimuli/tree_lowercase.png","stimuli/stim018_inanimate_tree_2.png","stimuli/bird_lowercase.png","175"
"html-button-response-mod","183","334888","0.0-183.0","76050","","","","","","triplet","1288","","","","1","stimuli/stim010_animate_face_2.png","stimuli/stim024_inanimate_tools_4.png","stimuli/stim001_animate_fish_1.png","176"
"html-button-response-mod","184","337049","0.0-184.0","76050","","","","","","triplet","1655.5","","","","1","stimuli/stim017_inanimate_tree_1.png","stimuli/bird_uppercase.png","stimuli/stim015_inanimate_boats_3.png","177"
"html-button-response-mod","185","338308","0.0-185.0","76050","","","","","","triplet","752","","","","1","stimuli/fish_lowercase.png","stimuli/stim021_inanimate_tools_1.png","stimuli/tree_uppercase.png","178"
"html-button-response-mod","186","340021","0.0-186.0","76050","","","","","","triplet","1210.7999999821186","","","","0","stimuli/face_uppercase.png","stimuli/stim002_animate_fish_2.png","stimuli/stim010_animate_face_2.png","179"
"html-button-response-mod","187","341550","0.0-187.0","76050","","","","","","triplet","1027.4000000059605","","","","2","stimuli/stim021_inanimate_tools_1.png","stimuli/stim006_animate_bird_2.png","stimuli/stim009_animate_face_1.png","180"
"html-button-response-mod","188","343492","0.0-188.0","76050","","","","","","triplet","1436.0999999940395","","","","0","stimuli/stim010_animate_face_2.png","stimuli/stim023_inanimate_tools_3.png","stimuli/stim005_animate_bird_1.png","181"
"html-button-response-mod","189","345520","0.0-189.0","76050","","","","","","triplet","1523.7000000178814","","","","1","stimuli/stim018_inanimate_tree_2.png","stimuli/stim015_inanimate_boats_3.png","stimuli/stim006_animate_bird_2.png","182"
"html-button-response-mod","190","347314","0.0-190.0","76050","","","","","","triplet","1287.5999999940395","","","","2","stimuli/stim012_animate_face_4.png","stimuli/stim018_inanimate_tree_2.png","stimuli/face_lowercase.png","183"
"html-button-response-mod","191","349023","0.0-191.0","76050","","","","","","triplet","1204.9000000059605","","","","0","stimuli/fish_uppercase.png","stimuli/stim018_inanimate_tree_2.png","stimuli/stim009_animate_face_1.png","184"
"html-button-response-mod","192","351383","0.0-192.0","76050","","","","","","triplet","1853.8999999761581","","","","2","stimuli/stim011_animate_face_3.png","stimuli/stim010_animate_face_2.png","stimuli/stim001_animate_fish_1.png","185"
"html-button-response-mod","193","352860","0.0-193.0","76050","","","","","","triplet","971.0999999940395","","","","1","stimuli/stim016_inanimate_boats_4.png","stimuli/stim024_inanimate_tools_4.png","stimuli/stim006_animate_bird_2.png","186"
"html-button-response-mod","194","354686","0.0-194.0","76050","","","","","","triplet","1319.699999988079","","","","2","stimuli/tools_lowercase.png","stimuli/tools_uppercase.png","stimuli/stim019_inanimate_tree_3.png","187"
"html-button-response-mod","195","356899","0.0-195.0","76050","","","","","","triplet","1709.300000011921","","","","0","stimuli/stim010_animate_face_2.png","stimuli/stim002_animate_fish_2.png","stimuli/stim006_animate_bird_2.png","188"
"html-button-response-mod","196","358257","0.0-196.0","76050","","","","","","triplet","851.8999999761581","","","","1","stimuli/stim013_inanimate_boats_1.png","stimuli/stim022_inanimate_tools_2.png","stimuli/stim005_animate_bird_1.png","189"
"html-button-response-mod","197","360236","0.0-197.0","76050","","","","","","triplet","1476.0999999940395","","","","2","stimuli/stim016_inanimate_boats_4.png","stimuli/stim015_inanimate_boats_3.png","stimuli/stim007_animate_bird_3.png","190"
"html-button-response-mod","198","361878","0.0-198.0","76050","","","","","","triplet","1137.2000000178814","","","","0","stimuli/stim017_inanimate_tree_1.png","stimuli/stim005_animate_bird_1.png","stimuli/stim004_animate_fish_4.png","191"
"html-button-response-mod","199","364155","0.0-199.0","76050","","","","","","triplet","1772.699999988079","","","","1","stimuli/stim008_animate_bird_4.png","stimuli/stim015_inanimate_boats_3.png","stimuli/stim003_animate_fish_3.png","192"
"html-button-response-mod","200","366432","0.0-200.0","76050","","","","","","triplet","1774.9000000059605","","","","0","stimuli/stim017_inanimate_tree_1.png","stimuli/stim004_animate_fish_4.png","stimuli/stim010_animate_face_2.png","193"
"html-button-response-mod","201","368744","0.0-201.0","76050","","","","","","triplet","1805.7999999821186","","","","0","stimuli/stim020_inanimate_tree_4.png","stimuli/boats_lowercase.png","stimuli/fish_lowercase.png","194"
"html-button-response-mod","202","369803","0.0-202.0","76050","","","","","","triplet","552.3000000119209","","","","0","stimuli/bird_lowercase.png","stimuli/stim016_inanimate_boats_4.png","stimuli/stim007_animate_bird_3.png","195"
"html-button-response-mod","203","371248","0.0-203.0","76050","","","","","","triplet","943.0999999940395","","","","2","stimuli/tree_uppercase.png","stimuli/fish_lowercase.png","stimuli/stim019_inanimate_tree_3.png","196"
"html-button-response-mod","204","372558","0.0-204.0","76050","","","","","","triplet","808.7000000178814","","","","0","stimuli/stim013_inanimate_boats_1.png","stimuli/face_lowercase.png","stimuli/stim024_inanimate_tools_4.png","197"
"html-button-response-mod","205","375502","0.0-205.0","76050","","","","","","triplet","2437.300000011921","","","","1","stimuli/stim014_inanimate_boats_2.png","stimuli/stim020_inanimate_tree_4.png","stimuli/stim021_inanimate_tools_1.png","198"
"html-button-response-mod","206","378828","0.0-206.0","76050","","","","","","triplet","2823.800000011921","","","","2","stimuli/fish_uppercase.png","stimuli/tree_uppercase.png","stimuli/tree_lowercase.png","199"
"html-button-response","207","380469","0.0-207.0","76050","","","","","","break","1138.4000000059605","<p>BREAK</p><p>Take a break for as long as you need</p><p>Click the button to continue</p>","0","","","","","",""
"html-button-response-mod","208","385223","0.0-208.0","76050","","","","","","triplet","4752.4000000059605","","","","1","stimuli/stim004_animate_fish_4.png","stimuli/stim009_animate_face_1.png","stimuli/stim008_animate_bird_4.png","200"
"html-button-response-mod","209","386989","0.0-209.0","76050","","","","","","triplet","1259.1000000238419","","","","0","stimuli/fish_uppercase.png","stimuli/stim006_animate_bird_2.png","stimuli/stim022_inanimate_tools_2.png","201"
"html-button-response-mod","210","388766","0.0-210.0","76050","","","","","","triplet","1271","","","","2","stimuli/stim001_animate_fish_1.png","stimuli/stim021_inanimate_tools_1.png","stimuli/face_uppercase.png","202"
"html-button-response-mod","211","390924","0.0-211.0","76050","","","","","","triplet","1651.5999999940395","","","","1","stimuli/stim004_animate_fish_4.png","stimuli/stim006_animate_bird_2.png","stimuli/stim001_animate_fish_1.png","203"
"html-button-response-mod","212","395740","0.0-212.0","76050","","","","","","triplet","4308.9000000059605","","","","1","stimuli/bird_lowercase.png","stimuli/boats_uppercase.png","stimuli/fish_lowercase.png","204"
"html-button-response-mod","213","397215","0.0-213.0","76050","","","","","","triplet","973.1999999880791","","","","2","stimuli/stim023_inanimate_tools_3.png","stimuli/stim003_animate_fish_3.png","stimuli/boats_lowercase.png","205"
"html-button-response-mod","214","398743","0.0-214.0","76050","","","","","","triplet","1024.800000011921","","","","1","stimuli/stim004_animate_fish_4.png","stimuli/tree_uppercase.png","stimuli/stim019_inanimate_tree_3.png","206"
"html-button-response-mod","215","400263","0.0-215.0","76050","","","","","","triplet","1013.5","","","","2","stimuli/stim005_animate_bird_1.png","stimuli/stim006_animate_bird_2.png","stimuli/stim018_inanimate_tree_2.png","207"
"html-button-response-mod","216","401725","0.0-216.0","76050","","","","","","triplet","956.2999999821186","","","","1","stimuli/stim005_animate_bird_1.png","stimuli/tools_uppercase.png","stimuli/stim001_animate_fish_1.png","208"
"html-button-response-mod","217","403618","0.0-217.0","76050","","","","","","triplet","1386.5999999940395","","","","0","stimuli/stim023_inanimate_tools_3.png","stimuli/stim003_animate_fish_3.png","stimuli/stim007_animate_bird_3.png","209"
"html-button-response-mod","218","405209","0.0-218.0","76050","","","","","","triplet","1085","","","","2","stimuli/stim002_animate_fish_2.png","stimuli/stim013_inanimate_boats_1.png","stimuli/stim022_inanimate_tools_2.png","210"
"html-button-response-mod","219","406670","0.0-219.0","76050","","","","","","triplet","956.5999999940395","","","","1","stimuli/tools_lowercase.png","stimuli/stim008_animate_bird_4.png","stimuli/tree_uppercase.png","211"
"html-button-response-mod","220","407964","0.0-220.0","76050","","","","","","triplet","791.4000000059605","","","","1","stimuli/stim016_inanimate_boats_4.png","stimuli/boats_lowercase.png","stimuli/stim008_animate_bird_4.png","212"
"html-button-response-mod","221","409391","0.0-221.0","76050","","","","","","triplet","924.7000000178814","","","","0","stimuli/stim021_inanimate_tools_1.png","stimuli/boats_uppercase.png","stimuli/bird_lowercase.png","213"
"html-button-response-mod","222","410666","0.0-222.0","76050","","","","","","triplet","769.1999999880791","","","","0","stimuli/stim008_animate_bird_4.png","stimuli/boats_uppercase.png","stimuli/face_lowercase.png","214"
"html-button-response-mod","223","412179","0.0-223.0","76050","","","","","","triplet","1008.2999999821186","","","","1","stimuli/stim004_animate_fish_4.png","stimuli/stim022_inanimate_tools_2.png","stimuli/stim005_animate_bird_1.png","215"
"html-button-response-mod","224","414105","0.0-224.0","76050","","","","","","triplet","1423.9000000059605","","","","2","stimuli/stim022_inanimate_tools_2.png","stimuli/stim021_inanimate_tools_1.png","stimuli/stim018_inanimate_tree_2.png","216"
"html-button-response-mod","225","415631","0.0-225.0","76050","","","","","","triplet","1024.0999999940395","","","","0","stimuli/stim017_inanimate_tree_1.png","stimuli/face_lowercase.png","stimuli/fish_uppercase.png","217"
"html-button-response-mod","226","417125","0.0-226.0","76050","","","","","","triplet","987.4000000059605","","","","2","stimuli/stim007_animate_bird_3.png","stimuli/stim017_inanimate_tree_1.png","stimuli/tree_uppercase.png","218"
"html-button-response-mod","227","418604","0.0-227.0","76050","","","","","","triplet","972.2999999821186","","","","2","stimuli/stim018_inanimate_tree_2.png","stimuli/stim017_inanimate_tree_1.png","stimuli/boats_uppercase.png","219"
"html-button-response-mod","228","420045","0.0-228.0","76050","","","","","","triplet","934.8000000119209","","","","2","stimuli/tools_lowercase.png","stimuli/tree_uppercase.png","stimuli/stim023_inanimate_tools_3.png","220"
"html-button-response-mod","229","421473","0.0-229.0","76050","","","","","","triplet","923.7999999821186","","","","2","stimuli/fish_uppercase.png","stimuli/tree_uppercase.png","stimuli/stim003_animate_fish_3.png","221"
"html-button-response-mod","230","424016","0.0-230.0","76050","","","","","","triplet","2040.7999999821186","","","","0","stimuli/stim019_inanimate_tree_3.png","stimuli/stim014_inanimate_boats_2.png","stimuli/stim015_inanimate_boats_3.png","222"
"html-button-response-mod","231","426110","0.0-231.0","76050","","","","","","triplet","1591","","","","2","stimuli/stim019_inanimate_tree_3.png","stimuli/stim014_inanimate_boats_2.png","stimuli/stim012_animate_face_4.png","223"
"html-button-response-mod","232","427537","0.0-232.0","76050","","","","","","triplet","925.1999999880791","","","","0","stimuli/tools_lowercase.png","stimuli/stim022_inanimate_tools_2.png","stimuli/stim018_inanimate_tree_2.png","224"
"html-button-response-mod","233","428947","0.0-233.0","76050","","","","","","triplet","903.4000000059605","","","","0","stimuli/face_uppercase.png","stimuli/stim019_inanimate_tree_3.png","stimuli/stim002_animate_fish_2.png","225"
"html-button-response-mod","234","430907","0.0-234.0","76050","","","","","","triplet","1457.4000000059605","","","","0","stimuli/stim021_inanimate_tools_1.png","stimuli/stim002_animate_fish_2.png","stimuli/stim003_animate_fish_3.png","226"
"html-button-response-mod","235","433900","0.0-235.0","76050","","","","","","triplet","2487.4000000059605","","","","2","stimuli/stim001_animate_fish_1.png","stimuli/stim016_inanimate_boats_4.png","stimuli/tree_uppercase.png","227"
"html-button-response-mod","236","435411","0.0-236.0","76050","","","","","","triplet","1007.5","","","","0","stimuli/tools_uppercase.png","stimuli/stim017_inanimate_tree_1.png","stimuli/stim008_animate_bird_4.png","228"
"html-button-response-mod","237","436873","0.0-237.0","76050","","","","","","triplet","959.3000000119209","","","","0","stimuli/stim009_animate_face_1.png","stimuli/tools_uppercase.png","stimuli/boats_lowercase.png","229"
"html-button-response-mod","238","438333","0.0-238.0","76050","","","","","","triplet","956.3000000119209","","","","2","stimuli/stim007_animate_bird_3.png","stimuli/stim008_animate_bird_4.png","stimuli/fish_uppercase.png","230"
"html-button-response-mod","239","439927","0.0-239.0","76050","","","","","","triplet","1092.300000011921","","","","2","stimuli/stim019_inanimate_tree_3.png","stimuli/stim012_animate_face_4.png","stimuli/face_uppercase.png","231"
"html-button-response-mod","240","441468","0.0-240.0","76050","","","","","","triplet","1035.2000000178814","","","","1","stimuli/stim022_inanimate_tools_2.png","stimuli/boats_uppercase.png","stimuli/stim017_inanimate_tree_1.png","232"
"html-button-response-mod","241","444379","0.0-241.0","76050","","","","","","triplet","2405.399999976158","","","","0","stimuli/stim001_animate_fish_1.png","stimuli/stim006_animate_bird_2.png","stimuli/stim008_animate_bird_4.png","233"
"html-button-response-mod","242","446322","0.0-242.0","76050","","","","","","triplet","1437.199999988079","","","","1","stimuli/stim016_inanimate_boats_4.png","stimuli/stim021_inanimate_tools_1.png","stimuli/stim014_inanimate_boats_2.png","234"
"html-button-response-mod","243","447716","0.0-243.0","76050","","","","","","triplet","887.5","","","","2","stimuli/boats_uppercase.png","stimuli/bird_uppercase.png","stimuli/stim021_inanimate_tools_1.png","235"
"html-button-response-mod","244","449110","0.0-244.0","76050","","","","","","triplet","887.5","","","","1","stimuli/stim003_animate_fish_3.png","stimuli/boats_lowercase.png","stimuli/stim006_animate_bird_2.png","236"
"html-button-response-mod","245","450489","0.0-245.0","76050","","","","","","triplet","873","","","","1","stimuli/face_uppercase.png","stimuli/stim007_animate_bird_3.png","stimuli/bird_uppercase.png","237"
"html-button-response-mod","246","452064","0.0-246.0","76050","","","","","","triplet","1072.300000011921","","","","1","stimuli/stim020_inanimate_tree_4.png","stimuli/stim001_animate_fish_1.png","stimuli/stim019_inanimate_tree_3.png","238"
"html-button-response-mod","247","453476","0.0-247.0","76050","","","","","","triplet","907.2999999821186","","","","0","stimuli/tree_uppercase.png","stimuli/stim015_inanimate_boats_3.png","stimuli/stim021_inanimate_tools_1.png","239"
"html-button-response-mod","248","455718","0.0-248.0","76050","","","","","","triplet","1738.7999999821186","","","","1","stimuli/stim008_animate_bird_4.png","stimuli/stim019_inanimate_tree_3.png","stimuli/stim012_animate_face_4.png","240"
"html-button-response-mod","249","457179","0.0-249.0","76050","","","","","","triplet","958.4000000059605","","","","1","stimuli/stim001_animate_fish_1.png","stimuli/stim023_inanimate_tools_3.png","stimuli/stim002_animate_fish_2.png","241"
"html-button-response-mod","250","459441","0.0-250.0","76050","","","","","","triplet","1757.7999999821186","","","","1","stimuli/bird_lowercase.png","stimuli/bird_uppercase.png","stimuli/tools_lowercase.png","242"
"html-button-response-mod","251","461084","0.0-251.0","76050","","","","","","triplet","1139.7000000178814","","","","1","stimuli/fish_uppercase.png","stimuli/fish_lowercase.png","stimuli/stim007_animate_bird_3.png","243"
"html-button-response-mod","252","462512","0.0-252.0","76050","","","","","","triplet","921","","","","0","stimuli/fish_lowercase.png","stimuli/stim017_inanimate_tree_1.png","stimuli/stim024_inanimate_tools_4.png","244"
"html-button-response-mod","253","464819","0.0-253.0","76050","","","","","","triplet","1804.800000011921","","","","0","stimuli/stim013_inanimate_boats_1.png","stimuli/stim005_animate_bird_1.png","stimuli/stim011_animate_face_3.png","245"
"html-button-response-mod","254","467367","0.0-254.0","76050","","","","","","triplet","2044","","","","1","stimuli/stim017_inanimate_tree_1.png","stimuli/stim015_inanimate_boats_3.png","stimuli/stim010_animate_face_2.png","246"
"html-button-response-mod","255","469092","0.0-255.0","76050","","","","","","triplet","1219.199999988079","","","","1","stimuli/stim016_inanimate_boats_4.png","stimuli/fish_uppercase.png","stimuli/stim014_inanimate_boats_2.png","247"
"html-button-response-mod","256","471535","0.0-256.0","76050","","","","","","triplet","1936.4000000059605","","","","2","stimuli/bird_lowercase.png","stimuli/tree_uppercase.png","stimuli/stim021_inanimate_tools_1.png","248"
"html-button-response-mod","257","472929","0.0-257.0","76050","","","","","","triplet","889.6000000238419","","","","0","stimuli/stim015_inanimate_boats_3.png","stimuli/tree_uppercase.png","stimuli/face_uppercase.png","249"
"html-button-response","258","474602","0.0-258.0","76050","","","","","","break","1169.300000011921","<p>BREAK</p><p>Take a break for as long as you need</p><p>Click the button to continue</p>","0","","","","","",""
"html-button-response-mod","259","475941","0.0-259.0","76050","","","","","","triplet","1337.4000000059605","","","","2","stimuli/stim008_animate_bird_4.png","stimuli/stim004_animate_fish_4.png","stimuli/stim018_inanimate_tree_2.png","250"
"html-button-response-mod","260","477101","0.0-260.0","76050","","","","","","triplet","657.6999999880791","","","","2","stimuli/tools_lowercase.png","stimuli/tools_uppercase.png","stimuli/stim021_inanimate_tools_1.png","251"
"html-button-response-mod","261","478761","0.0-261.0","76050","","","","","","triplet","1153.5","","","","2","stimuli/stim013_inanimate_boats_1.png","stimuli/stim017_inanimate_tree_1.png","stimuli/tools_uppercase.png","252"
"html-button-response-mod","262","480069","0.0-262.0","76050","","","","","","triplet","802","","","","1","stimuli/stim016_inanimate_boats_4.png","stimuli/fish_lowercase.png","stimuli/stim012_animate_face_4.png","253"
"html-button-response-mod","263","482145","0.0-263.0","76050","","","","","","triplet","1573.1000000238419","","","","0","stimuli/stim016_inanimate_boats_4.png","stimuli/stim003_animate_fish_3.png","stimuli/stim004_animate_fish_4.png","254"
"html-button-response-mod","264","483606","0.0-264.0","76050","","","","","","triplet","957.0999999940395","","","","1","stimuli/boats_lowercase.png","stimuli/stim010_animate_face_2.png","stimuli/face_uppercase.png","255"
"html-button-response-mod","265","485265","0.0-265.0","76050","","","","","","triplet","1152.4000000059605","","","","1","stimuli/stim018_inanimate_tree_2.png","stimuli/stim004_animate_fish_4.png","stimuli/stim019_inanimate_tree_3.png","256"
"html-button-response-mod","266","487276","0.0-266.0","76050","","","","","","triplet","1504.3999999761581","","","","0","stimuli/stim013_inanimate_boats_1.png","stimuli/stim012_animate_face_4.png","stimuli/stim009_animate_face_1.png","257"
"html-button-response-mod","267","489270","0.0-267.0","76050","","","","","","triplet","1491.699999988079","","","","2","stimuli/stim021_inanimate_tools_1.png","stimuli/stim011_animate_face_3.png","stimuli/fish_uppercase.png","258"
"html-button-response-mod","268","491847","0.0-268.0","76050","","","","","","triplet","2072","","","","0","stimuli/stim002_animate_fish_2.png","stimuli/stim021_inanimate_tools_1.png","stimuli/stim024_inanimate_tools_4.png","259"
"html-button-response-mod","269","493592","0.0-269.0","76050","","","","","","triplet","1239.4000000059605","","","","0","stimuli/stim018_inanimate_tree_2.png","stimuli/tree_uppercase.png","stimuli/boats_lowercase.png","260"
"html-button-response-mod","270","495268","0.0-270.0","76050","","","","","","triplet","1169.7000000178814","","","","2","stimuli/stim022_inanimate_tools_2.png","stimuli/stim010_animate_face_2.png","stimuli/fish_uppercase.png","261"
"html-button-response-mod","271","497178","0.0-271.0","76050","","","","","","triplet","1406.199999988079","","","","2","stimuli/stim010_animate_face_2.png","stimuli/stim006_animate_bird_2.png","stimuli/stim023_inanimate_tools_3.png","262"
"html-button-response-mod","272","499038","0.0-272.0","76050","","","","","","triplet","1356.2000000178814","","","","1","stimuli/tree_uppercase.png","stimuli/stim004_animate_fish_4.png","stimuli/boats_uppercase.png","263"
"html-button-response-mod","273","500417","0.0-273.0","76050","","","","","","triplet","875.5","","","","2","stimuli/stim002_animate_fish_2.png","stimuli/stim004_animate_fish_4.png","stimuli/stim009_animate_face_1.png","264"
"html-button-response-mod","274","501875","0.0-274.0","76050","","","","","","triplet","955.9000000059605","","","","1","stimuli/stim016_inanimate_boats_4.png","stimuli/boats_lowercase.png","stimuli/stim006_animate_bird_2.png","265"
"html-button-response-mod","275","503954","0.0-275.0","76050","","","","","","triplet","1572.199999988079","","","","2","stimuli/stim018_inanimate_tree_2.png","stimuli/stim024_inanimate_tools_4.png","stimuli/stim005_animate_bird_1.png","266"
"html-button-response-mod","276","505298","0.0-276.0","76050","","","","","","triplet","841.2000000178814","","","","0","stimuli/boats_lowercase.png","stimuli/stim019_inanimate_tree_3.png","stimuli/stim005_animate_bird_1.png","267"
"html-button-response-mod","277","507556","0.0-277.0","76050","","","","","","triplet","1751.9000000059605","","","","1","stimuli/stim002_animate_fish_2.png","stimuli/stim017_inanimate_tree_1.png","stimuli/stim007_animate_bird_3.png","268"
"html-button-response-mod","278","509017","0.0-278.0","76050","","","","","","triplet","954.2999999821186","","","","2","stimuli/stim002_animate_fish_2.png","stimuli/stim003_animate_fish_3.png","stimuli/stim015_inanimate_boats_3.png","269"
"html-button-response-mod","279","510812","0.0-279.0","76050","","","","","","triplet","1290.9000000059605","","","","0","stimuli/stim004_animate_fish_4.png","stimuli/stim010_animate_face_2.png","stimuli/stim011_animate_face_3.png","270"
"html-button-response-mod","280","512805","0.0-280.0","76050","","","","","","triplet","1488.7000000178814","","","","0","stimuli/stim016_inanimate_boats_4.png","stimuli/bird_lowercase.png","stimuli/boats_uppercase.png","271"
"html-button-response-mod","281","514331","0.0-281.0","76050","","","","","","triplet","1019.7999999821186","","","","2","stimuli/stim004_animate_fish_4.png","stimuli/stim009_animate_face_1.png","stimuli/fish_uppercase.png","272"
"html-button-response-mod","282","516492","0.0-282.0","76050","","","","","","triplet","1656.5999999940395","","","","1","stimuli/stim015_inanimate_boats_3.png","stimuli/tools_lowercase.png","stimuli/stim008_animate_bird_4.png","273"
"html-button-response-mod","283","518336","0.0-283.0","76050","","","","","","triplet","1337.800000011921","","","","2","stimuli/stim016_inanimate_boats_4.png","stimuli/stim002_animate_fish_2.png","stimuli/stim017_inanimate_tree_1.png","274"
"html-button-response-mod","284","520046","0.0-284.0","76050","","","","","","triplet","1208","","","","1","stimuli/stim012_animate_face_4.png","stimuli/face_uppercase.png","stimuli/stim006_animate_bird_2.png","275"
"html-button-response-mod","285","521888","0.0-285.0","76050","","","","","","triplet","1335.2999999821186","","","","1","stimuli/boats_lowercase.png","stimuli/stim020_inanimate_tree_4.png","stimuli/face_uppercase.png","276"
"html-button-response-mod","286","523632","0.0-286.0","76050","","","","","","triplet","1237.5999999940395","","","","0","stimuli/stim015_inanimate_boats_3.png","stimuli/stim018_inanimate_tree_2.png","stimuli/stim002_animate_fish_2.png","277"
"html-button-response-mod","287","525075","0.0-287.0","76050","","","","","","triplet","937.4000000059605","","","","2","stimuli/boats_lowercase.png","stimuli/bird_uppercase.png","stimuli/stim024_inanimate_tools_4.png","278"
"html-button-response-mod","288","526686","0.0-288.0","76050","","","","","","triplet","1103.8999999761581","","","","0","stimuli/boats_lowercase.png","stimuli/stim009_animate_face_1.png","stimuli/stim018_inanimate_tree_2.png","279"
"html-button-response-mod","289","528513","0.0-289.0","76050","","","","","","triplet","1323.5","","","","2","stimuli/stim016_inanimate_boats_4.png","stimuli/stim004_animate_fish_4.png","stimuli/bird_uppercase.png","280"
"html-button-response-mod","290","530108","0.0-290.0","76050","","","","","","triplet","1090.7999999821186","","","","2","stimuli/stim017_inanimate_tree_1.png","stimuli/stim019_inanimate_tree_3.png","stimuli/stim024_inanimate_tools_4.png","281"
"html-button-response-mod","291","531934","0.0-291.0","76050","","","","","","triplet","1323.800000011921","","","","1","stimuli/face_uppercase.png","stimuli/stim023_inanimate_tools_3.png","stimuli/face_lowercase.png","282"
"html-button-response-mod","292","533362","0.0-292.0","76050","","","","","","triplet","921.8000000119209","","","","2","stimuli/tree_uppercase.png","stimuli/tools_lowercase.png","stimuli/stim012_animate_face_4.png","283"
"html-button-response-mod","293","534973","0.0-293.0","76050","","","","","","triplet","1105.5","","","","2","stimuli/stim015_inanimate_boats_3.png","stimuli/stim019_inanimate_tree_3.png","stimuli/tools_lowercase.png","284"
"html-button-response-mod","294","536548","0.0-294.0","76050","","","","","","triplet","1072","","","","1","stimuli/stim020_inanimate_tree_4.png","stimuli/tree_uppercase.png","stimuli/stim018_inanimate_tree_2.png","285"
"html-button-response-mod","295","538109","0.0-295.0","76050","","","","","","triplet","1058.5","","","","1","stimuli/stim006_animate_bird_2.png","stimuli/stim010_animate_face_2.png","stimuli/stim020_inanimate_tree_4.png","286"
"html-button-response-mod","296","540619","0.0-296.0","76050","","","","","","triplet","2005.9000000059605","","","","1","stimuli/stim012_animate_face_4.png","stimuli/stim014_inanimate_boats_2.png","stimuli/stim003_animate_fish_3.png","287"
"html-button-response-mod","297","542647","0.0-297.0","76050","","","","","","triplet","1525.7000000178814","","","","1","stimuli/stim004_animate_fish_4.png","stimuli/stim015_inanimate_boats_3.png","stimuli/stim005_animate_bird_1.png","288"
"html-button-response-mod","298","544424","0.0-298.0","76050","","","","","","triplet","1270","","","","0","stimuli/stim005_animate_bird_1.png","stimuli/stim015_inanimate_boats_3.png","stimuli/stim016_inanimate_boats_4.png","289"
"html-button-response-mod","299","545867","0.0-299.0","76050","","","","","","triplet","939.0999999940395","","","","0","stimuli/stim004_animate_fish_4.png","stimuli/tools_lowercase.png","stimuli/face_lowercase.png","290"
"html-button-response-mod","300","547444","0.0-300.0","76050","","","","","","triplet","1070.699999988079","","","","2","stimuli/stim003_animate_fish_3.png","stimuli/stim002_animate_fish_2.png","stimuli/stim022_inanimate_tools_2.png","291"
"html-button-response-mod","301","548805","0.0-301.0","76050","","","","","","triplet","856.3000000119209","","","","1","stimuli/face_uppercase.png","stimuli/stim005_animate_bird_1.png","stimuli/fish_lowercase.png","292"
"html-button-response-mod","302","550197","0.0-302.0","76050","","","","","","triplet","889.7000000178814","","","","0","stimuli/face_uppercase.png","stimuli/stim018_inanimate_tree_2.png","stimuli/stim019_inanimate_tree_3.png","293"
"html-button-response-mod","303","551642","0.0-303.0","76050","","","","","","triplet","939.7999999821186","","","","1","stimuli/stim010_animate_face_2.png","stimuli/tools_uppercase.png","stimuli/stim017_inanimate_tree_1.png","294"
"html-button-response-mod","304","553066","0.0-304.0","76050","","","","","","triplet","917.8000000119209","","","","2","stimuli/stim006_animate_bird_2.png","stimuli/stim018_inanimate_tree_2.png","stimuli/stim023_inanimate_tools_3.png","295"
"html-button-response-mod","305","555260","0.0-305.0","76050","","","","","","triplet","1691.6000000238419","","","","0","stimuli/stim014_inanimate_boats_2.png","stimuli/stim004_animate_fish_4.png","stimuli/stim020_inanimate_tree_4.png","296"
"html-button-response-mod","306","556803","0.0-306.0","76050","","","","","","triplet","1039.2000000178814","","","","2","stimuli/stim024_inanimate_tools_4.png","stimuli/stim021_inanimate_tools_1.png","stimuli/stim019_inanimate_tree_3.png","297"
"html-button-response-mod","307","558314","0.0-307.0","76050","","","","","","triplet","1004.1999999880791","","","","2","stimuli/tools_uppercase.png","stimuli/face_lowercase.png","stimuli/stim019_inanimate_tree_3.png","298"
"html-button-response-mod","308","560074","0.0-308.0","76050","","","","","","triplet","1253.800000011921","","","","0","stimuli/stim017_inanimate_tree_1.png","stimuli/stim001_animate_fish_1.png","stimuli/stim011_animate_face_3.png","299"
"html-button-response","309","562549","0.0-309.0","76050","","","","","","break","1970.2000000178814","<p>BREAK</p><p>Take a break for as long as you need</p><p>Click the button to continue</p>","0","","","","","",""
"html-button-response-mod","310","563631","0.0-310.0","76050","","","","","","triplet","1080.9000000059605","","","","2","stimuli/stim019_inanimate_tree_3.png","stimuli/stim021_inanimate_tools_1.png","stimuli/bird_lowercase.png","300"
"html-button-response-mod","311","565844","0.0-311.0","76050","","","","","","triplet","1707.1000000238419","","","","1","stimuli/tree_uppercase.png","stimuli/face_lowercase.png","stimuli/bird_uppercase.png","301"
"html-button-response-mod","312","567286","0.0-312.0","76050","","","","","","triplet","936.1999999880791","","","","1","stimuli/fish_uppercase.png","stimuli/boats_lowercase.png","stimuli/tree_uppercase.png","302"
"html-button-response-mod","313","568730","0.0-313.0","76050","","","","","","triplet","936.5999999940395","","","","1","stimuli/stim016_inanimate_boats_4.png","stimuli/face_lowercase.png","stimuli/stim022_inanimate_tools_2.png","303"
"html-button-response-mod","314","570323","0.0-314.0","76050","","","","","","triplet","1086.800000011921","","","","0","stimuli/boats_lowercase.png","stimuli/stim009_animate_face_1.png","stimuli/stim004_animate_fish_4.png","304"
"html-button-response-mod","315","571714","0.0-315.0","76050","","","","","","triplet","884.7000000178814","","","","2","stimuli/tools_lowercase.png","stimuli/fish_lowercase.png","stimuli/stim005_animate_bird_1.png","305"
"html-button-response-mod","316","573541","0.0-316.0","76050","","","","","","triplet","1320.5","","","","0","stimuli/stim023_inanimate_tools_3.png","stimuli/stim017_inanimate_tree_1.png","stimuli/stim004_animate_fish_4.png","306"
"html-button-response-mod","317","574884","0.0-317.0","76050","","","","","","triplet","837.1999999880791","","","","2","stimuli/tools_lowercase.png","stimuli/bird_uppercase.png","stimuli/stim019_inanimate_tree_3.png","307"
"html-button-response-mod","318","576363","0.0-318.0","76050","","","","","","triplet","972.4000000059605","","","","2","stimuli/stim007_animate_bird_3.png","stimuli/stim019_inanimate_tree_3.png","stimuli/bird_lowercase.png","308"
"html-button-response-mod","319","577873","0.0-319.0","76050","","","","","","triplet","1003.6999999880791","","","","2","stimuli/stim003_animate_fish_3.png","stimuli/stim005_animate_bird_1.png","stimuli/boats_lowercase.png","309"
"html-button-response-mod","320","580132","0.0-320.0","76050","","","","","","triplet","1753.7999999821186","","","","0","stimuli/stim021_inanimate_tools_1.png","stimuli/stim011_animate_face_3.png","stimuli/stim020_inanimate_tree_4.png","310"
"html-button-response-mod","321","581659","0.0-321.0","76050","","","","","","triplet","1021.2000000178814","","","","2","stimuli/boats_lowercase.png","stimuli/face_lowercase.png","stimuli/stim010_animate_face_2.png","311"
"html-button-response-mod","322","584752","0.0-322.0","76050","","","","","","triplet","2587.2999999821186","","","","0","stimuli/stim020_inanimate_tree_4.png","stimuli/stim013_inanimate_boats_1.png","stimuli/stim023_inanimate_tools_3.png","312"
"html-button-response-mod","323","586730","0.0-323.0","76050","","","","","","triplet","1474.4000000059605","","","","2","stimuli/stim015_inanimate_boats_3.png","stimuli/stim016_inanimate_boats_4.png","stimuli/stim020_inanimate_tree_4.png","313"
"html-button-response-mod","324","589622","0.0-324.0","76050","","","","","","triplet","2385.0999999940395","","","","0","stimuli/stim002_animate_fish_2.png","stimuli/face_lowercase.png","stimuli/boats_uppercase.png","314"
"html-button-response-mod","325","591465","0.0-325.0","76050","","","","","","triplet","1338.9000000059605","","","","2","stimuli/stim017_inanimate_tree_1.png","stimuli/stim001_animate_fish_1.png","stimuli/stim009_animate_face_1.png","315"
"html-button-response-mod","326","593243","0.0-326.0","76050","","","","","","triplet","1274.699999988079","","","","0","stimuli/bird_uppercase.png","stimuli/stim018_inanimate_tree_2.png","stimuli/stim013_inanimate_boats_1.png","316"
"html-button-response-mod","327","594802","0.0-327.0","76050","","","","","","triplet","1053.2000000178814","","","","2","stimuli/stim022_inanimate_tools_2.png","stimuli/stim012_animate_face_4.png","stimuli/tree_lowercase.png","317"
"html-button-response-mod","328","596263","0.0-328.0","76050","","","","","","triplet","954","","","","1","stimuli/stim015_inanimate_boats_3.png","stimuli/fish_lowercase.png","stimuli/stim003_animate_fish_3.png","318"
"html-button-response-mod","329","598805","0.0-329.0","76050","","","","","","triplet","2036","","","","0","stimuli/stim023_inanimate_tools_3.png","stimuli/stim019_inanimate_tree_3.png","stimuli/stim011_animate_face_3.png","319"
"html-button-response-mod","330","600248","0.0-330.0","76050","","","","","","triplet","937.0999999940395","","","","2","stimuli/stim001_animate_fish_1.png","stimuli/stim002_animate_fish_2.png","stimuli/stim021_inanimate_tools_1.png","320"
"html-button-response-mod","331","601607","0.0-331.0","76050","","","","","","triplet","852.9000000059605","","","","0","stimuli/stim018_inanimate_tree_2.png","stimuli/stim023_inanimate_tools_3.png","stimuli/stim021_inanimate_tools_1.png","321"
"html-button-response-mod","332","603752","0.0-332.0","76050","","","","","","triplet","1639.4000000059605","","","","0","stimuli/stim014_inanimate_boats_2.png","stimuli/stim007_animate_bird_3.png","stimuli/stim003_animate_fish_3.png","322"
"html-button-response-mod","333","604993","0.0-333.0","76050","","","","","","triplet","734.6999999880791","","","","0","stimuli/face_lowercase.png","stimuli/stim017_inanimate_tree_1.png","stimuli/stim021_inanimate_tools_1.png","323"
"html-button-response-mod","334","606421","0.0-334.0","76050","","","","","","triplet","921.5999999940395","","","","1","stimuli/stim016_inanimate_boats_4.png","stimuli/face_lowercase.png","stimuli/stim011_animate_face_3.png","324"
"html-button-response-mod","335","607748","0.0-335.0","76050","","","","","","triplet","824","","","","0","stimuli/face_lowercase.png","stimuli/stim022_inanimate_tools_2.png","stimuli/stim005_animate_bird_1.png","325"
"html-button-response-mod","336","609159","0.0-336.0","76050","","","","","","triplet","907.4000000059605","","","","2","stimuli/stim016_inanimate_boats_4.png","stimuli/stim004_animate_fish_4.png","stimuli/face_uppercase.png","326"
"html-button-response-mod","337","610403","0.0-337.0","76050","","","","","","triplet","737.0999999940395","","","","2","stimuli/stim006_animate_bird_2.png","stimuli/stim009_animate_face_1.png","stimuli/tools_lowercase.png","327"
"html-button-response-mod","338","611728","0.0-338.0","76050","","","","","","triplet","823.7999999821186","","","","0","stimuli/face_uppercase.png","stimuli/stim011_animate_face_3.png","stimuli/stim016_inanimate_boats_4.png","328"
"html-button-response-mod","339","613170","0.0-339.0","76050","","","","","","triplet","935.7999999821186","","","","1","stimuli/boats_uppercase.png","stimuli/stim010_animate_face_2.png","stimuli/tools_uppercase.png","329"
"html-button-response-mod","340","615914","0.0-340.0","76050","","","","","","triplet","2237.699999988079","","","","0","stimuli/stim009_animate_face_1.png","stimuli/stim014_inanimate_boats_2.png","stimuli/stim021_inanimate_tools_1.png","330"
"html-button-response-mod","341","617258","0.0-341.0","76050","","","","","","triplet","839.3000000119209","","","","0","stimuli/face_lowercase.png","stimuli/stim020_inanimate_tree_4.png","stimuli/stim009_animate_face_1.png","331"
"html-button-response-mod","342","618719","0.0-342.0","76050","","","","","","triplet","955.1999999880791","","","","2","stimuli/tools_uppercase.png","stimuli/boats_uppercase.png","stimuli/fish_lowercase.png","332"
"html-button-response-mod","343","620463","0.0-343.0","76050","","","","","","triplet","1238","","","","1","stimuli/stim001_animate_fish_1.png","stimuli/tools_lowercase.png","stimuli/stim005_animate_bird_1.png","333"
"html-button-response-mod","344","621706","0.0-344.0","76050","","","","","","triplet","735.8000000119209","","","","0","stimuli/fish_uppercase.png","stimuli/stim001_animate_fish_1.png","stimuli/stim023_inanimate_tools_3.png","334"
"html-button-response-mod","345","623066","0.0-345.0","76050","","","","","","triplet","855.1000000238419","","","","0","stimuli/stim004_animate_fish_4.png","stimuli/boats_uppercase.png","stimuli/fish_uppercase.png","335"
"html-button-response-mod","346","624526","0.0-346.0","76050","","","","","","triplet","953.9000000059605","","","","2","stimuli/bird_lowercase.png","stimuli/tree_lowercase.png","stimuli/stim024_inanimate_tools_4.png","336"
"html-button-response-mod","347","625753","0.0-347.0","76050","","","","","","triplet","720.9000000059605","","","","0","stimuli/boats_uppercase.png","stimuli/stim022_inanimate_tools_2.png","stimuli/stim020_inanimate_tree_4.png","337"
"html-button-response-mod","348","626972","0.0-348.0","76050","","","","","","triplet","715.5999999940395","","","","2","stimuli/stim015_inanimate_boats_3.png","stimuli/stim014_inanimate_boats_2.png","stimuli/face_lowercase.png","338"
"html-button-response-mod","349","628383","0.0-349.0","76050","","","","","","triplet","904.2000000178814","","","","2","stimuli/stim006_animate_bird_2.png","stimuli/stim008_animate_bird_4.png","stimuli/stim020_inanimate_tree_4.png","339"
"html-button-response-mod","350","629693","0.0-350.0","76050","","","","","","triplet","804.0999999940395","","","","2","stimuli/tools_uppercase.png","stimuli/tree_uppercase.png","stimuli/stim001_animate_fish_1.png","340"
"html-button-response-mod","351","630972","0.0-351.0","76050","","","","","","triplet","773.6999999880791","","","","0","stimuli/fish_lowercase.png","stimuli/stim019_inanimate_tree_3.png","stimuli/stim004_animate_fish_4.png","341"
"html-button-response-mod","352","632215","0.0-352.0","76050","","","","","","triplet","736.5999999940395","","","","0","stimuli/stim014_inanimate_boats_2.png","stimuli/face_lowercase.png","stimuli/fish_lowercase.png","342"
"html-button-response-mod","353","633824","0.0-353.0","76050","","","","","","triplet","1106.2000000178814","","","","1","stimuli/stim009_animate_face_1.png","stimuli/fish_lowercase.png","stimuli/stim017_inanimate_tree_1.png","343"
"html-button-response-mod","354","635151","0.0-354.0","76050","","","","","","triplet","820.9000000059605","","","","0","stimuli/face_lowercase.png","stimuli/stim011_animate_face_3.png","stimuli/stim023_inanimate_tools_3.png","344"
"html-button-response-mod","355","636394","0.0-355.0","76050","","","","","","triplet","736.9000000059605","","","","0","stimuli/face_lowercase.png","stimuli/stim009_animate_face_1.png","stimuli/stim001_animate_fish_1.png","345"
"html-button-response-mod","356","637855","0.0-356.0","76050","","","","","","triplet","954","","","","2","stimuli/stim006_animate_bird_2.png","stimuli/stim007_animate_bird_3.png","stimuli/stim015_inanimate_boats_3.png","346"
"html-button-response-mod","357","639081","0.0-357.0","76050","","","","","","triplet","719.5999999940395","","","","0","stimuli/face_lowercase.png","stimuli/stim006_animate_bird_2.png","stimuli/stim017_inanimate_tree_1.png","347"
"html-button-response-mod","358","641758","0.0-358.0","76050","","","","","","triplet","2174.4000000059605","","","","2","stimuli/stim017_inanimate_tree_1.png","stimuli/stim001_animate_fish_1.png","stimuli/stim014_inanimate_boats_2.png","348"
"html-button-response-mod","359","643704","0.0-359.0","76050","","","","","","triplet","1438.699999988079","","","","0","stimuli/stim013_inanimate_boats_1.png","stimuli/stim001_animate_fish_1.png","stimuli/stim004_animate_fish_4.png","349"
"html-button-response","360","646566","0.0-360.0","76050","","","","","","break","2360.7999999821186","<p>BREAK</p><p>Take a break for as long as you need</p><p>Click the button to continue</p>","0","","","","","",""
"html-button-response-mod","361","647787","0.0-361.0","76050","","","","","","triplet","1219.5","","","","0","stimuli/stim012_animate_face_4.png","stimuli/stim008_animate_bird_4.png","stimuli/stim001_animate_fish_1.png","350"
"html-button-response-mod","362","649096","0.0-362.0","76050","","","","","","triplet","806.9000000059605","","","","2","stimuli/stim007_animate_bird_3.png","stimuli/stim010_animate_face_2.png","stimuli/tools_uppercase.png","351"
"html-button-response-mod","363","650422","0.0-363.0","76050","","","","","","triplet","819.2000000178814","","","","2","stimuli/boats_uppercase.png","stimuli/tools_uppercase.png","stimuli/stim023_inanimate_tools_3.png","352"
"html-button-response-mod","364","652251","0.0-364.0","76050","","","","","","triplet","1322.1000000238419","","","","0","stimuli/stim003_animate_fish_3.png","stimuli/stim010_animate_face_2.png","stimuli/stim009_animate_face_1.png","353"
"html-button-response-mod","365","654126","0.0-365.0","76050","","","","","","triplet","1369.199999988079","","","","2","stimuli/stim019_inanimate_tree_3.png","stimuli/stim005_animate_bird_1.png","stimuli/stim012_animate_face_4.png","354"
"html-button-response-mod","366","655520","0.0-366.0","76050","","","","","","triplet","890","","","","1","stimuli/face_lowercase.png","stimuli/stim020_inanimate_tree_4.png","stimuli/boats_lowercase.png","355"
"html-button-response-mod","367","657747","0.0-367.0","76050","","","","","","triplet","1720.9000000059605","","","","2","stimuli/stim022_inanimate_tools_2.png","stimuli/stim015_inanimate_boats_3.png","stimuli/tools_lowercase.png","356"
"html-button-response-mod","368","659591","0.0-368.0","76050","","","","","","triplet","1337","","","","1","stimuli/fish_uppercase.png","stimuli/face_lowercase.png","stimuli/boats_uppercase.png","357"
"html-button-response-mod","369","662005","0.0-369.0","76050","","","","","","triplet","1907.3999999761581","","","","0","stimuli/stim009_animate_face_1.png","stimuli/stim021_inanimate_tools_1.png","stimuli/stim015_inanimate_boats_3.png","358"
"html-button-response-mod","370","663648","0.0-370.0","76050","","","","","","triplet","1137.199999988079","","","","1","stimuli/tree_lowercase.png","stimuli/stim009_animate_face_1.png","stimuli/face_uppercase.png","359"
"html-button-response-mod","371","665142","0.0-371.0","76050","","","","","","triplet","991.1999999880791","","","","0","stimuli/stim015_inanimate_boats_3.png","stimuli/tree_lowercase.png","stimuli/boats_uppercase.png","360"
"html-button-response-mod","372","666485","0.0-372.0","76050","","","","","","triplet","836.7999999821186","","","","2","stimuli/bird_lowercase.png","stimuli/fish_uppercase.png","stimuli/stim006_animate_bird_2.png","361"
"html-button-response-mod","373","667995","0.0-373.0","76050","","","","","","triplet","1006.8000000119209","","","","0","stimuli/boats_lowercase.png","stimuli/stim005_animate_bird_1.png","stimuli/stim010_animate_face_2.png","362"
"html-button-response-mod","374","669570","0.0-374.0","76050","","","","","","triplet","1068.5999999940395","","","","2","stimuli/stim003_animate_fish_3.png","stimuli/stim009_animate_face_1.png","stimuli/stim013_inanimate_boats_1.png","363"
"html-button-response-mod","375","671531","0.0-375.0","76050","","","","","","triplet","1454.4000000059605","","","","2","stimuli/face_lowercase.png","stimuli/tools_lowercase.png","stimuli/stim019_inanimate_tree_3.png","364"
"html-button-response-mod","376","672857","0.0-376.0","76050","","","","","","triplet","821.6999999880791","","","","0","stimuli/face_uppercase.png","stimuli/stim018_inanimate_tree_2.png","stimuli/stim022_inanimate_tools_2.png","365"
"html-button-response-mod","377","674168","0.0-377.0","76050","","","","","","triplet","805.1000000238419","","","","1","stimuli/face_lowercase.png","stimuli/stim014_inanimate_boats_2.png","stimuli/fish_uppercase.png","366"
"html-button-response-mod","378","676096","0.0-378.0","76050","","","","","","triplet","1421.5","","","","2","stimuli/stim016_inanimate_boats_4.png","stimuli/stim024_inanimate_tools_4.png","stimuli/tree_uppercase.png","367"
"html-button-response-mod","379","677471","0.0-379.0","76050","","","","","","triplet","869.2000000178814","","","","0","stimuli/fish_lowercase.png","stimuli/stim001_animate_fish_1.png","stimuli/stim021_inanimate_tools_1.png","368"
"html-button-response-mod","380","678747","0.0-380.0","76050","","","","","","triplet","769.6000000238419","","","","0","stimuli/stim006_animate_bird_2.png","stimuli/tree_lowercase.png","stimuli/fish_lowercase.png","369"
"html-button-response-mod","381","681043","0.0-381.0","76050","","","","","","triplet","1789.2000000178814","","","","1","stimuli/stim008_animate_bird_4.png","stimuli/face_uppercase.png","stimuli/stim014_inanimate_boats_2.png","370"
"html-button-response-mod","382","683203","0.0-382.0","76050","","","","","","triplet","1653.3999999761581","","","","2","stimuli/stim024_inanimate_tools_4.png","stimuli/stim015_inanimate_boats_3.png","stimuli/stim004_animate_fish_4.png","371"
"html-button-response-mod","383","684544","0.0-383.0","76050","","","","","","triplet","835","","","","1","stimuli/stim001_animate_fish_1.png","stimuli/tree_lowercase.png","stimuli/stim020_inanimate_tree_4.png","372"
"html-button-response-mod","384","686157","0.0-384.0","76050","","","","","","triplet","1105.9000000059605","","","","2","stimuli/stim013_inanimate_boats_1.png","stimuli/stim014_inanimate_boats_2.png","stimuli/stim009_animate_face_1.png","373"
"html-button-response-mod","385","687384","0.0-385.0","76050","","","","","","triplet","721.0999999940395","","","","2","stimuli/stim005_animate_bird_1.png","stimuli/stim004_animate_fish_4.png","stimuli/fish_uppercase.png","374"
"html-button-response-mod","386","688842","0.0-386.0","76050","","","","","","triplet","951","","","","2","stimuli/stim022_inanimate_tools_2.png","stimuli/stim021_inanimate_tools_1.png","stimuli/tree_lowercase.png","375"
"html-button-response-mod","387","690153","0.0-387.0","76050","","","","","","triplet","806.6999999880791","","","","2","stimuli/face_lowercase.png","stimuli/fish_uppercase.png","stimuli/stim022_inanimate_tools_2.png","376"
"html-button-response-mod","388","691531","0.0-388.0","76050","","","","","","triplet","871","","","","2","stimuli/tools_lowercase.png","stimuli/tree_lowercase.png","stimuli/stim017_inanimate_tree_1.png","377"
"html-button-response-mod","389","693672","0.0-389.0","76050","","","","","","triplet","1637.2000000178814","","","","2","stimuli/stim007_animate_bird_3.png","stimuli/stim011_animate_face_3.png","stimuli/stim018_inanimate_tree_2.png","378"
"html-button-response-mod","390","695181","0.0-390.0","76050","","","","","","triplet","1002.8999999761581","","","","2","stimuli/stim016_inanimate_boats_4.png","stimuli/stim009_animate_face_1.png","stimuli/stim020_inanimate_tree_4.png","379"
"html-button-response-mod","391","696592","0.0-391.0","76050","","","","","","triplet","907.8000000119209","","","","1","stimuli/tree_lowercase.png","stimuli/stim011_animate_face_3.png","stimuli/bird_uppercase.png","380"
"html-button-response-mod","392","697869","0.0-392.0","76050","","","","","","triplet","770.7000000178814","","","","2","stimuli/bird_lowercase.png","stimuli/fish_lowercase.png","stimuli/stim021_inanimate_tools_1.png","381"
"html-button-response-mod","393","700531","0.0-393.0","76050","","","","","","triplet","2155.4000000059605","","","","2","stimuli/stim022_inanimate_tools_2.png","stimuli/stim016_inanimate_boats_4.png","stimuli/stim008_animate_bird_4.png","382"
"html-button-response-mod","394","701939","0.0-394.0","76050","","","","","","triplet","901.7999999821186","","","","2","stimuli/stim001_animate_fish_1.png","stimuli/stim012_animate_face_4.png","stimuli/bird_lowercase.png","383"
"html-button-response-mod","395","703216","0.0-395.0","76050","","","","","","triplet","770.3000000119209","","","","1","stimuli/stim012_animate_face_4.png","stimuli/boats_lowercase.png","stimuli/stim014_inanimate_boats_2.png","384"
"html-button-response-mod","396","704795","0.0-396.0","76050","","","","","","triplet","1072.699999988079","","","","0","stimuli/stim022_inanimate_tools_2.png","stimuli/boats_lowercase.png","stimuli/face_uppercase.png","385"
"html-button-response-mod","397","707572","0.0-397.0","76050","","","","","","triplet","2274.5","","","","1","stimuli/stim012_animate_face_4.png","stimuli/stim021_inanimate_tools_1.png","stimuli/stim003_animate_fish_3.png","386"
"html-button-response-mod","398","709881","0.0-398.0","76050","","","","","","triplet","1803.4000000059605","","","","2","stimuli/stim001_animate_fish_1.png","stimuli/stim003_animate_fish_3.png","stimuli/stim012_animate_face_4.png","387"
"html-button-response-mod","399","711543","0.0-399.0","76050","","","","","","triplet","1159","","","","2","stimuli/stim019_inanimate_tree_3.png","stimuli/stim022_inanimate_tools_2.png","stimuli/bird_uppercase.png","388"
"html-button-response-mod","400","714218","0.0-400.0","76050","","","","","","triplet","2169.199999988079","","","","1","stimuli/stim010_animate_face_2.png","stimuli/stim022_inanimate_tools_2.png","stimuli/stim020_inanimate_tree_4.png","389"
"html-button-response-mod","401","716161","0.0-401.0","76050","","","","","","triplet","1440.199999988079","","","","2","stimuli/stim010_animate_face_2.png","stimuli/stim005_animate_bird_1.png","stimuli/stim013_inanimate_boats_1.png","390"
"html-button-response-mod","402","718787","0.0-402.0","76050","","","","","","triplet","2121.9000000059605","","","","1","stimuli/stim023_inanimate_tools_3.png","stimuli/fish_uppercase.png","stimuli/stim017_inanimate_tree_1.png","391"
"html-button-response-mod","403","720333","0.0-403.0","76050","","","","","","triplet","1038.8999999761581","","","","0","stimuli/tree_uppercase.png","stimuli/stim009_animate_face_1.png","stimuli/stim013_inanimate_boats_1.png","392"
"html-button-response-mod","404","726977","0.0-404.0","76050","","","","","","triplet","6138.5","","","","2","stimuli/stim010_animate_face_2.png","stimuli/stim023_inanimate_tools_3.png","stimuli/tools_lowercase.png","393"
"html-button-response-mod","405","728675","0.0-405.0","76050","","","","","","triplet","1190.699999988079","","","","0","stimuli/tree_uppercase.png","stimuli/stim020_inanimate_tree_4.png","stimuli/stim004_animate_fish_4.png","394"
"html-button-response-mod","406","729999","0.0-406.0","76050","","","","","","triplet","817.7999999821186","","","","0","stimuli/fish_uppercase.png","stimuli/stim011_animate_face_3.png","stimuli/stim013_inanimate_boats_1.png","395"
"html-button-response-mod","407","731476","0.0-407.0","76050","","","","","","triplet","970.8999999761581","","","","2","stimuli/stim001_animate_fish_1.png","stimuli/stim005_animate_bird_1.png","stimuli/boats_uppercase.png","396"
"html-button-response-mod","408","732869","0.0-408.0","76050","","","","","","triplet","886.5999999940395","","","","0","stimuli/boats_lowercase.png","stimuli/stim001_animate_fish_1.png","stimuli/stim024_inanimate_tools_4.png","397"
"html-button-response-mod","409","734463","0.0-409.0","76050","","","","","","triplet","1088.0999999940395","","","","0","stimuli/stim005_animate_bird_1.png","stimuli/tree_uppercase.png","stimuli/bird_uppercase.png","398"
"html-button-response-mod","410","735890","0.0-410.0","76050","","","","","","triplet","924.7000000178814","","","","2","stimuli/tools_lowercase.png","stimuli/tree_uppercase.png","stimuli/stim021_inanimate_tools_1.png","399"
"html-button-response","411","737252","0.0-411.0","76050","","","","","","break","855.5","<p>BREAK</p><p>Take a break for as long as you need</p><p>Click the button to continue</p>","0","","","","","",""
"survey-text","412","783434","0.0-412.0","76050","","","","","","data_patterns","46171.59999999404","","{""Q0"":""divide into three groups:animals/letters/tools""}","","","","","",""
"survey-text","413","786225","0.0-413.0","76050","","","","","","age_question","2788.0999999940395","","{""Age"":""25""}","","","","","",""
"html-button-response","414","787838","0.0-414.0","76050","","","","","","gender_question","1611.2999999821186","How would you like your gender to be recorded?","0","","","","","",""
"html-button-response","415","802522","0.0-415.0","76050","","","","","","debrief","14681.800000011921","<p> Thank you for participating in this experiment! </p><p> We are investigating the dimensions along which you perceive the world </p><p>The images were all sorted according to whether they are animate or not, and </p><p> whether they are text or images. We are comparing this to some neuroimaging data to see </p> how your conscious classification relates to how your brain classifies the objects automatically. </p>","0","809279.599999994","","","","",""
