"trial_type","trial_index","time_elapsed","internal_node_id","subject","success","timeout","failed_images","failed_audio","failed_video","test_part","rt","stimulus","response","end_time","button_pressed","stim0","stim1","stim2","trialnr"
"pavlovia","0","5","0.0-0.0","76000","","","","","","","","","","","","","","",""
"preload","1","1974","0.0-1.0","76000","true","false","[]","[]","[]","preload","","","","","","","","",""
"html-button-response","2","8474","0.0-2.0","76000","","","","","","","6496.399999976158","<p>Welcome to the experiment. To begin, please read the following and press the button at the bottom of the screen.</p><p></p><p><strong>Project Name: A study on cognitive processes involved in visual perception</p></strong><p></p><p><strong>PARTICIPANT INFORMATION STATEMENT</strong></p><p></p><strong>(1) What is the study about?</strong><br>You are invited to participate in a study that investigates the cognitive processes involved in perceiving and recognizing visual stimuli.If you decide to participate, you will be asked to complete a task in which you will view pictures, letters, numbers, or words presented on a computer screen.<br><strong>(2) Who can participate?</strong><br>Anyone aged 18 years or over with access to a computer (not a phone/tablet)<br><strong>(3) Where is the study located?</strong><br>The study will be conducted in your browser<br><strong>(4) Who is carrying out the study?</strong><br>The study is being conducted by Sophia Shatek from the Computational Cognitive Neuroscience laboratory at the University of Sydney.<br><strong>(5) What does the study involve?</strong><br>In this study, you will be asked to perform tasks where you will see different stimuli appear on the computer screen.You will respond by pressing a key or using a computer mouse.<br><strong>(6) How much time will the study take?</strong><br>The study takes about 30 minutes<br><strong>(7)	Can I withdraw from the study?</strong><br>Being in this study is completely voluntary - you are not under any obligation to consent. You can withdraw at any time without having to give a reason and without penalty.<br><strong>(8) Will anyone else know the results?</strong><br>All aspects of the study, including results, will be strictly confidential and only the researchers will have access to information on participants.The results and data from the study may be submitted for publication or shared with other research labs, but individual participants will not be identifiable.<br><strong>(9) Will the study benefit me?</strong><br>You will be awarded 0.5 credits for your participation.<br><strong>(10) Can I tell other people about the study?</strong><br>Yes, please tell them to contact Dr Thomas Carlson by email at thomas.carlson@sydney.edu.au.<br><strong>(11) What if I require further information about the study or my involvement in it?</strong><br>When you have read this information, the investigator will discuss it with you further and answer any questions you may have.If you would like to know more at any stage, please feel free to contact Dr Thomas Carlson directly by email at thomas.carlson@sydney.edu.au.If you would like to be informed about the outcomes of the study, contact Dr Thomas Carlson directly by email at thomas.carlson@sydney.edu.au.<br><strong>(12) What if I have a complaint or any concerns?</strong><br>Any person with concerns or complaints about the conduct of a research study can contact The Manager,Human Ethics Administration, University of Sydney on +61 2 8627 8176 (Telephone); +61 2 8627 8177 (Facsimile) or ro.humanethics@sydney.edu.au (Email).</p><p></p><strong>By participating in this experiment, you consent to participate in this study and acknowledge that:</strong><br>1. The procedures required for the project and the times involved have been explained to me, and any questions I have about the project have been answered to my satisfaction.<br>2.	I have read the Above Information Statement and have been given the opportunity to discuss the information and my involvement in the project with the researcher/s.<br>3. I understand that allowing my data to be used in research reports is completely voluntary - I am not under any obligation to consent.<br>4. I understand that my involvement is strictly confidential. I understand that any research data gathered from the results of the study may be publishedhowever no information about me will be used in any way that is identifiable.</p><p></p>","0","","","","","",""
"html-button-response","3","28139","0.0-3.0","76000","","","","","","opening_instructions","19661.799999952316","<p>In this experiment, you will see three images appear on the screen.</p><p>You need to click the 'odd one out', or the image </p><p>that LOOKS MOST DIFFERENT to the other two. </p><p>Just go with your intuition, don't spend too long thinking about each one.</p>","0","39100.5","","","","",""
"html-button-response-mod","4","30305","0.0-4.0","76000","","","","","","triplet","2161.8000000715256","","","","0","stimuli/boats_uppercase.png","stimuli/face_lowercase.png","stimuli/stim012_animate_face_4.png","0"
"html-button-response-mod","5","34271","0.0-5.0","76000","","","","","","triplet","3458.399999976158","","","","1","stimuli/stim003_animate_fish_3.png","stimuli/stim022_inanimate_tools_2.png","stimuli/stim015_inanimate_boats_3.png","1"
"html-button-response-mod","6","36671","0.0-6.0","76000","","","","","","triplet","1895","","","","1","stimuli/stim012_animate_face_4.png","stimuli/boats_uppercase.png","stimuli/stim010_animate_face_2.png","2"
"html-button-response-mod","7","40521","0.0-7.0","76000","","","","","","triplet","3340.899999976158","","","","0","stimuli/tools_lowercase.png","stimuli/stim009_animate_face_1.png","stimuli/stim015_inanimate_boats_3.png","3"
"html-button-response-mod","8","44686","0.0-8.0","76000","","","","","","triplet","3659.8000000715256","","","","1","stimuli/stim012_animate_face_4.png","stimuli/tools_uppercase.png","stimuli/stim004_animate_fish_4.png","4"
"html-button-response-mod","9","48590","0.0-9.0","76000","","","","","","triplet","3397.7000000476837","","","","1","stimuli/boats_lowercase.png","stimuli/stim001_animate_fish_1.png","stimuli/tools_uppercase.png","5"
"html-button-response-mod","10","51670","0.0-10.0","76000","","","","","","triplet","2572.6999999284744","","","","1","stimuli/bird_uppercase.png","stimuli/stim011_animate_face_3.png","stimuli/stim002_animate_fish_2.png","6"
"html-button-response-mod","11","54187","0.0-11.0","76000","","","","","","triplet","2010.1000000238419","","","","2","stimuli/stim018_inanimate_tree_2.png","stimuli/stim019_inanimate_tree_3.png","stimuli/stim017_inanimate_tree_1.png","7"
"html-button-response-mod","12","56972","0.0-12.0","76000","","","","","","triplet","2277.100000023842","","","","0","stimuli/stim021_inanimate_tools_1.png","stimuli/stim019_inanimate_tree_3.png","stimuli/stim002_animate_fish_2.png","8"
"html-button-response-mod","13","59489","0.0-13.0","76000","","","","","","triplet","2010.8999999761581","","","","0","stimuli/stim013_inanimate_boats_1.png","stimuli/bird_lowercase.png","stimuli/stim006_animate_bird_2.png","9"
"html-button-response-mod","14","61503","0.0-14.0","76000","","","","","","triplet","1505.8999999761581","","","","1","stimuli/stim003_animate_fish_3.png","stimuli/stim010_animate_face_2.png","stimuli/stim015_inanimate_boats_3.png","10"
"html-button-response-mod","15","65618","0.0-15.0","76000","","","","","","triplet","3609.5999999046326","","","","2","stimuli/stim015_inanimate_boats_3.png","stimuli/boats_lowercase.png","stimuli/stim004_animate_fish_4.png","11"
"html-button-response-mod","16","67419","0.0-16.0","76000","","","","","","triplet","1291.7000000476837","","","","1","stimuli/stim020_inanimate_tree_4.png","stimuli/stim023_inanimate_tools_3.png","stimuli/stim017_inanimate_tree_1.png","12"
"html-button-response-mod","17","69920","0.0-17.0","76000","","","","","","triplet","1992","","","","0","stimuli/stim017_inanimate_tree_1.png","stimuli/fish_uppercase.png","stimuli/stim014_inanimate_boats_2.png","13"
"html-button-response-mod","18","72518","0.0-18.0","76000","","","","","","triplet","2091.2000000476837","","","","0","stimuli/boats_lowercase.png","stimuli/stim020_inanimate_tree_4.png","stimuli/tools_uppercase.png","14"
"html-button-response-mod","19","77037","0.0-19.0","76000","","","","","","triplet","4010.399999976158","","","","0","stimuli/bird_uppercase.png","stimuli/face_lowercase.png","stimuli/stim003_animate_fish_3.png","15"
"html-button-response-mod","20","80388","0.0-20.0","76000","","","","","","triplet","2845.5","","","","2","stimuli/stim006_animate_bird_2.png","stimuli/stim005_animate_bird_1.png","stimuli/tools_uppercase.png","16"
"html-button-response-mod","21","83986","0.0-21.0","76000","","","","","","triplet","3091.6999999284744","","","","0","stimuli/boats_lowercase.png","stimuli/stim001_animate_fish_1.png","stimuli/stim005_animate_bird_1.png","17"
"html-button-response-mod","22","88020","0.0-22.0","76000","","","","","","triplet","3528.2000000476837","","","","2","stimuli/stim019_inanimate_tree_3.png","stimuli/stim015_inanimate_boats_3.png","stimuli/stim012_animate_face_4.png","18"
"html-button-response-mod","23","91336","0.0-23.0","76000","","","","","","triplet","2808.100000023842","","","","0","stimuli/stim023_inanimate_tools_3.png","stimuli/tree_uppercase.png","stimuli/boats_uppercase.png","19"
"html-button-response-mod","24","95255","0.0-24.0","76000","","","","","","triplet","3412.5","","","","2","stimuli/stim006_animate_bird_2.png","stimuli/stim023_inanimate_tools_3.png","stimuli/boats_uppercase.png","20"
"html-button-response-mod","25","102204","0.0-25.0","76000","","","","","","triplet","6442.299999952316","","","","0","stimuli/bird_lowercase.png","stimuli/stim013_inanimate_boats_1.png","stimuli/stim017_inanimate_tree_1.png","21"
"html-button-response-mod","26","106022","0.0-26.0","76000","","","","","","triplet","3310.5","","","","1","stimuli/stim005_animate_bird_1.png","stimuli/tools_lowercase.png","stimuli/stim001_animate_fish_1.png","22"
"html-button-response-mod","27","108269","0.0-27.0","76000","","","","","","triplet","1739.3999999761581","","","","2","stimuli/stim013_inanimate_boats_1.png","stimuli/stim020_inanimate_tree_4.png","stimuli/face_lowercase.png","23"
"html-button-response-mod","28","111487","0.0-28.0","76000","","","","","","triplet","2710.3000000715256","","","","0","stimuli/stim004_animate_fish_4.png","stimuli/stim022_inanimate_tools_2.png","stimuli/stim020_inanimate_tree_4.png","24"
"html-button-response-mod","29","114902","0.0-29.0","76000","","","","","","triplet","2909.100000023842","","","","0","stimuli/stim023_inanimate_tools_3.png","stimuli/stim015_inanimate_boats_3.png","stimuli/fish_lowercase.png","25"
"html-button-response-mod","30","116736","0.0-30.0","76000","","","","","","triplet","1330.3999999761581","","","","1","stimuli/stim001_animate_fish_1.png","stimuli/stim009_animate_face_1.png","stimuli/stim004_animate_fish_4.png","26"
"html-button-response-mod","31","121123","0.0-31.0","76000","","","","","","triplet","3879.2000000476837","","","","2","stimuli/stim021_inanimate_tools_1.png","stimuli/stim005_animate_bird_1.png","stimuli/face_lowercase.png","27"
"html-button-response-mod","32","123452","0.0-32.0","76000","","","","","","triplet","1823.6999999284744","","","","1","stimuli/stim007_animate_bird_3.png","stimuli/tree_lowercase.png","stimuli/stim002_animate_fish_2.png","28"
"html-button-response-mod","33","126254","0.0-33.0","76000","","","","","","triplet","2293.2999999523163","","","","2","stimuli/stim012_animate_face_4.png","stimuli/stim010_animate_face_2.png","stimuli/face_uppercase.png","29"
"html-button-response-mod","34","131352","0.0-34.0","76000","","","","","","triplet","4590.700000047684","","","","2","stimuli/stim015_inanimate_boats_3.png","stimuli/stim001_animate_fish_1.png","stimuli/face_uppercase.png","30"
"html-button-response-mod","35","133287","0.0-35.0","76000","","","","","","triplet","1426.7000000476837","","","","2","stimuli/stim018_inanimate_tree_2.png","stimuli/tree_uppercase.png","stimuli/bird_lowercase.png","31"
"html-button-response-mod","36","136071","0.0-36.0","76000","","","","","","triplet","2277.8000000715256","","","","2","stimuli/stim014_inanimate_boats_2.png","stimuli/stim004_animate_fish_4.png","stimuli/stim023_inanimate_tools_3.png","32"
"html-button-response-mod","37","139486","0.0-37.0","76000","","","","","","triplet","2909.399999976158","","","","0","stimuli/face_uppercase.png","stimuli/stim006_animate_bird_2.png","stimuli/stim018_inanimate_tree_2.png","33"
"html-button-response-mod","38","141934","0.0-38.0","76000","","","","","","triplet","1941.1000000238419","","","","1","stimuli/boats_uppercase.png","stimuli/stim009_animate_face_1.png","stimuli/stim001_animate_fish_1.png","34"
"html-button-response-mod","39","144269","0.0-39.0","76000","","","","","","triplet","1827.8000000715256","","","","2","stimuli/tree_lowercase.png","stimuli/stim007_animate_bird_3.png","stimuli/stim001_animate_fish_1.png","35"
"html-button-response-mod","40","148987","0.0-40.0","76000","","","","","","triplet","4210","","","","0","stimuli/stim016_inanimate_boats_4.png","stimuli/tools_lowercase.png","stimuli/tree_uppercase.png","36"
"html-button-response-mod","41","151636","0.0-41.0","76000","","","","","","triplet","2144.1999999284744","","","","2","stimuli/stim022_inanimate_tools_2.png","stimuli/stim024_inanimate_tools_4.png","stimuli/stim015_inanimate_boats_3.png","37"
"html-button-response-mod","42","155270","0.0-42.0","76000","","","","","","triplet","3127.399999976158","","","","2","stimuli/boats_uppercase.png","stimuli/stim019_inanimate_tree_3.png","stimuli/face_uppercase.png","38"
"html-button-response-mod","43","158652","0.0-43.0","76000","","","","","","triplet","2873.399999976158","","","","0","stimuli/stim008_animate_bird_4.png","stimuli/fish_uppercase.png","stimuli/stim001_animate_fish_1.png","39"
"html-button-response-mod","44","165685","0.0-44.0","76000","","","","","","triplet","6526.200000047684","","","","0","stimuli/stim021_inanimate_tools_1.png","stimuli/stim004_animate_fish_4.png","stimuli/stim018_inanimate_tree_2.png","40"
"html-button-response-mod","45","167954","0.0-45.0","76000","","","","","","triplet","1759.7999999523163","","","","2","stimuli/stim011_animate_face_3.png","stimuli/stim012_animate_face_4.png","stimuli/stim024_inanimate_tools_4.png","41"
"html-button-response-mod","46","174270","0.0-46.0","76000","","","","","","triplet","5812.800000071526","","","","2","stimuli/bird_uppercase.png","stimuli/fish_lowercase.png","stimuli/tools_uppercase.png","42"
"html-button-response-mod","47","177801","0.0-47.0","76000","","","","","","triplet","3022.600000023842","","","","2","stimuli/fish_lowercase.png","stimuli/bird_uppercase.png","stimuli/stim018_inanimate_tree_2.png","43"
"html-button-response-mod","48","182501","0.0-48.0","76000","","","","","","triplet","4194.899999976158","","","","1","stimuli/fish_lowercase.png","stimuli/stim006_animate_bird_2.png","stimuli/stim003_animate_fish_3.png","44"
"html-button-response-mod","49","188051","0.0-49.0","76000","","","","","","triplet","5041.399999976158","","","","0","stimuli/tools_lowercase.png","stimuli/stim001_animate_fish_1.png","stimuli/stim009_animate_face_1.png","45"
"html-button-response-mod","50","189637","0.0-50.0","76000","","","","","","triplet","1077.7000000476837","","","","2","stimuli/stim006_animate_bird_2.png","stimuli/stim005_animate_bird_1.png","stimuli/stim020_inanimate_tree_4.png","46"
"html-button-response-mod","51","192069","0.0-51.0","76000","","","","","","triplet","1925.5","","","","2","stimuli/stim005_animate_bird_1.png","stimuli/stim002_animate_fish_2.png","stimuli/stim023_inanimate_tools_3.png","47"
"html-button-response-mod","52","194185","0.0-52.0","76000","","","","","","triplet","1613.2000000476837","","","","1","stimuli/stim002_animate_fish_2.png","stimuli/bird_uppercase.png","stimuli/stim005_animate_bird_1.png","48"
"html-button-response-mod","53","198052","0.0-53.0","76000","","","","","","triplet","3358.5","","","","0","stimuli/face_lowercase.png","stimuli/stim002_animate_fish_2.png","stimuli/stim014_inanimate_boats_2.png","49"
"html-button-response","54","392550","0.0-54.0","76000","","","","","","break","193991.10000002384","<p>BREAK</p><p>Take a break for as long as you need</p><p>Click the button to continue</p>","0","","","","","",""
"html-button-response-mod","55","394181","0.0-55.0","76000","","","","","","triplet","1627.3000000715256","","","","1","stimuli/stim001_animate_fish_1.png","stimuli/bird_uppercase.png","stimuli/fish_lowercase.png","50"
"html-button-response-mod","56","396184","0.0-56.0","76000","","","","","","triplet","1494.7000000476837","","","","2","stimuli/stim010_animate_face_2.png","stimuli/face_lowercase.png","stimuli/stim007_animate_bird_3.png","51"
"html-button-response-mod","57","402499","0.0-57.0","76000","","","","","","triplet","5807.5","","","","0","stimuli/stim022_inanimate_tools_2.png","stimuli/face_uppercase.png","stimuli/fish_lowercase.png","52"
"html-button-response-mod","58","404416","0.0-58.0","76000","","","","","","triplet","1408.3999999761581","","","","2","stimuli/stim015_inanimate_boats_3.png","stimuli/stim016_inanimate_boats_4.png","stimuli/tree_lowercase.png","53"
"html-button-response-mod","59","407082","0.0-59.0","76000","","","","","","triplet","2160.399999976158","","","","2","stimuli/tree_lowercase.png","stimuli/boats_lowercase.png","stimuli/face_lowercase.png","54"
"html-button-response-mod","60","420648","0.0-60.0","76000","","","","","","triplet","13061","","","","0","stimuli/face_uppercase.png","stimuli/stim024_inanimate_tools_4.png","stimuli/stim006_animate_bird_2.png","55"
"html-button-response-mod","61","425532","0.0-61.0","76000","","","","","","triplet","4374","","","","1","stimuli/tree_uppercase.png","stimuli/stim014_inanimate_boats_2.png","stimuli/stim005_animate_bird_1.png","56"
"html-button-response-mod","62","428917","0.0-62.0","76000","","","","","","triplet","2877.2000000476837","","","","0","stimuli/fish_uppercase.png","stimuli/stim024_inanimate_tools_4.png","stimuli/stim023_inanimate_tools_3.png","57"
"html-button-response-mod","63","430747","0.0-63.0","76000","","","","","","triplet","1323.2999999523163","","","","1","stimuli/tree_lowercase.png","stimuli/stim022_inanimate_tools_2.png","stimuli/tree_uppercase.png","58"
"html-button-response-mod","64","434915","0.0-64.0","76000","","","","","","triplet","3659","","","","1","stimuli/stim001_animate_fish_1.png","stimuli/stim013_inanimate_boats_1.png","stimuli/bird_uppercase.png","59"
"html-button-response-mod","65","437599","0.0-65.0","76000","","","","","","triplet","2178.7000000476837","","","","0","stimuli/stim009_animate_face_1.png","stimuli/stim004_animate_fish_4.png","stimuli/fish_lowercase.png","60"
"html-button-response-mod","66","441331","0.0-66.0","76000","","","","","","triplet","3227.2999999523163","","","","1","stimuli/stim001_animate_fish_1.png","stimuli/stim010_animate_face_2.png","stimuli/stim008_animate_bird_4.png","61"
"html-button-response-mod","67","443014","0.0-67.0","76000","","","","","","triplet","1175.5","","","","0","stimuli/bird_lowercase.png","stimuli/stim020_inanimate_tree_4.png","stimuli/stim017_inanimate_tree_1.png","62"
"html-button-response-mod","68","455864","0.0-68.0","76000","","","","","","triplet","12344.199999928474","","","","0","stimuli/stim004_animate_fish_4.png","stimuli/tools_uppercase.png","stimuli/face_uppercase.png","63"
"html-button-response-mod","69","457767","0.0-69.0","76000","","","","","","triplet","1394.1999999284744","","","","2","stimuli/stim016_inanimate_boats_4.png","stimuli/stim001_animate_fish_1.png","stimuli/stim021_inanimate_tools_1.png","64"
"html-button-response-mod","70","459766","0.0-70.0","76000","","","","","","triplet","1491.6999999284744","","","","1","stimuli/fish_lowercase.png","stimuli/stim012_animate_face_4.png","stimuli/stim004_animate_fish_4.png","65"
"html-button-response-mod","71","462966","0.0-71.0","76000","","","","","","triplet","2695.5","","","","2","stimuli/boats_uppercase.png","stimuli/bird_uppercase.png","stimuli/tools_lowercase.png","66"
"html-button-response-mod","72","468880","0.0-72.0","76000","","","","","","triplet","5405.299999952316","","","","2","stimuli/stim009_animate_face_1.png","stimuli/stim022_inanimate_tools_2.png","stimuli/stim019_inanimate_tree_3.png","67"
"html-button-response-mod","73","473181","0.0-73.0","76000","","","","","","triplet","3791.7999999523163","","","","2","stimuli/boats_uppercase.png","stimuli/stim019_inanimate_tree_3.png","stimuli/stim005_animate_bird_1.png","68"
"html-button-response-mod","74","480930","0.0-74.0","76000","","","","","","triplet","7243.799999952316","","","","2","stimuli/stim004_animate_fish_4.png","stimuli/tree_lowercase.png","stimuli/face_lowercase.png","69"
"html-button-response-mod","75","483731","0.0-75.0","76000","","","","","","triplet","2292.399999976158","","","","1","stimuli/fish_uppercase.png","stimuli/stim006_animate_bird_2.png","stimuli/stim002_animate_fish_2.png","70"
"html-button-response-mod","76","495397","0.0-76.0","76000","","","","","","triplet","11156.100000023842","","","","2","stimuli/stim010_animate_face_2.png","stimuli/stim004_animate_fish_4.png","stimuli/stim020_inanimate_tree_4.png","71"
"html-button-response-mod","77","498113","0.0-77.0","76000","","","","","","triplet","2206.100000023842","","","","0","stimuli/stim001_animate_fish_1.png","stimuli/stim010_animate_face_2.png","stimuli/stim011_animate_face_3.png","72"
"html-button-response-mod","78","500881","0.0-78.0","76000","","","","","","triplet","2262","","","","0","stimuli/boats_uppercase.png","stimuli/stim007_animate_bird_3.png","stimuli/stim010_animate_face_2.png","73"
"html-button-response-mod","79","503115","0.0-79.0","76000","","","","","","triplet","1728.1000000238419","","","","1","stimuli/stim011_animate_face_3.png","stimuli/stim023_inanimate_tools_3.png","stimuli/face_lowercase.png","74"
"html-button-response-mod","80","506363","0.0-80.0","76000","","","","","","triplet","2738.7000000476837","","","","1","stimuli/stim004_animate_fish_4.png","stimuli/stim010_animate_face_2.png","stimuli/bird_uppercase.png","75"
"html-button-response-mod","81","508545","0.0-81.0","76000","","","","","","triplet","1677.8000000715256","","","","0","stimuli/boats_lowercase.png","stimuli/tools_lowercase.png","stimuli/stim022_inanimate_tools_2.png","76"
"html-button-response-mod","82","510660","0.0-82.0","76000","","","","","","triplet","1604.5","","","","2","stimuli/stim009_animate_face_1.png","stimuli/face_uppercase.png","stimuli/tree_lowercase.png","77"
"html-button-response-mod","83","512445","0.0-83.0","76000","","","","","","triplet","1276.5","","","","0","stimuli/stim021_inanimate_tools_1.png","stimuli/stim019_inanimate_tree_3.png","stimuli/stim007_animate_bird_3.png","78"
"html-button-response-mod","84","514113","0.0-84.0","76000","","","","","","triplet","1157.7999999523163","","","","0","stimuli/stim023_inanimate_tools_3.png","stimuli/stim006_animate_bird_2.png","stimuli/fish_lowercase.png","79"
"html-button-response-mod","85","521348","0.0-85.0","76000","","","","","","triplet","6729.900000095367","","","","2","stimuli/stim022_inanimate_tools_2.png","stimuli/stim016_inanimate_boats_4.png","stimuli/face_lowercase.png","80"
"html-button-response-mod","86","526463","0.0-86.0","76000","","","","","","triplet","4602.599999904633","","","","1","stimuli/stim010_animate_face_2.png","stimuli/stim021_inanimate_tools_1.png","stimuli/fish_uppercase.png","81"
"html-button-response-mod","87","528380","0.0-87.0","76000","","","","","","triplet","1410.2999999523163","","","","0","stimuli/stim024_inanimate_tools_4.png","stimuli/tree_lowercase.png","stimuli/stim008_animate_bird_4.png","82"
"html-button-response-mod","88","531830","0.0-88.0","76000","","","","","","triplet","2938.899999976158","","","","0","stimuli/stim014_inanimate_boats_2.png","stimuli/stim020_inanimate_tree_4.png","stimuli/fish_lowercase.png","83"
"html-button-response-mod","89","534346","0.0-89.0","76000","","","","","","triplet","2009.3000000715256","","","","0","stimuli/stim003_animate_fish_3.png","stimuli/bird_lowercase.png","stimuli/stim019_inanimate_tree_3.png","84"
"html-button-response-mod","90","538332","0.0-90.0","76000","","","","","","triplet","3475.399999976158","","","","1","stimuli/stim021_inanimate_tools_1.png","stimuli/stim008_animate_bird_4.png","stimuli/stim013_inanimate_boats_1.png","85"
"html-button-response-mod","91","547647","0.0-91.0","76000","","","","","","triplet","8804.399999976158","","","","1","stimuli/tree_lowercase.png","stimuli/boats_lowercase.png","stimuli/stim005_animate_bird_1.png","86"
"html-button-response-mod","92","551495","0.0-92.0","76000","","","","","","triplet","3336.5","","","","0","stimuli/stim003_animate_fish_3.png","stimuli/boats_lowercase.png","stimuli/stim016_inanimate_boats_4.png","87"
"html-button-response-mod","93","557480","0.0-93.0","76000","","","","","","triplet","5477.5","","","","1","stimuli/stim007_animate_bird_3.png","stimuli/stim021_inanimate_tools_1.png","stimuli/bird_lowercase.png","88"
"html-button-response-mod","94","562495","0.0-94.0","76000","","","","","","triplet","4506","","","","2","stimuli/tree_lowercase.png","stimuli/stim011_animate_face_3.png","stimuli/boats_uppercase.png","89"
"html-button-response-mod","95","566167","0.0-95.0","76000","","","","","","triplet","3160.399999976158","","","","1","stimuli/stim015_inanimate_boats_3.png","stimuli/stim001_animate_fish_1.png","stimuli/stim013_inanimate_boats_1.png","90"
"html-button-response-mod","96","567996","0.0-96.0","76000","","","","","","triplet","1319.7999999523163","","","","1","stimuli/tools_uppercase.png","stimuli/stim001_animate_fish_1.png","stimuli/stim024_inanimate_tools_4.png","91"
"html-button-response-mod","97","569895","0.0-97.0","76000","","","","","","triplet","1389.9000000953674","","","","2","stimuli/fish_lowercase.png","stimuli/fish_uppercase.png","stimuli/boats_uppercase.png","92"
"html-button-response-mod","98","572646","0.0-98.0","76000","","","","","","triplet","2241.899999976158","","","","0","stimuli/boats_lowercase.png","stimuli/stim012_animate_face_4.png","stimuli/face_lowercase.png","93"
"html-button-response-mod","99","575013","0.0-99.0","76000","","","","","","triplet","1858.6999999284744","","","","1","stimuli/tree_uppercase.png","stimuli/tools_lowercase.png","stimuli/boats_lowercase.png","94"
"html-button-response-mod","100","578347","0.0-100.0","76000","","","","","","triplet","2824.7999999523163","","","","2","stimuli/stim002_animate_fish_2.png","stimuli/stim007_animate_bird_3.png","stimuli/stim016_inanimate_boats_4.png","95"
"html-button-response-mod","101","580079","0.0-101.0","76000","","","","","","triplet","1226","","","","1","stimuli/tools_uppercase.png","stimuli/stim007_animate_bird_3.png","stimuli/tools_lowercase.png","96"
"html-button-response-mod","102","582712","0.0-102.0","76000","","","","","","triplet","2121.4000000953674","","","","2","stimuli/stim001_animate_fish_1.png","stimuli/stim007_animate_bird_3.png","stimuli/face_uppercase.png","97"
"html-button-response-mod","103","585929","0.0-103.0","76000","","","","","","triplet","2711.5","","","","1","stimuli/stim019_inanimate_tree_3.png","stimuli/stim010_animate_face_2.png","stimuli/bird_lowercase.png","98"
"html-button-response-mod","104","588213","0.0-104.0","76000","","","","","","triplet","1777.1000000238419","","","","2","stimuli/stim015_inanimate_boats_3.png","stimuli/stim024_inanimate_tools_4.png","stimuli/stim011_animate_face_3.png","99"
"html-button-response","105","589613","0.0-105.0","76000","","","","","","break","891.1000000238419","<p>BREAK</p><p>Take a break for as long as you need</p><p>Click the button to continue</p>","0","","","","","",""
"html-button-response-mod","106","590946","0.0-106.0","76000","","","","","","triplet","1331.1000000238419","","","","1","stimuli/stim017_inanimate_tree_1.png","stimuli/stim004_animate_fish_4.png","stimuli/tree_lowercase.png","100"
"html-button-response-mod","107","592747","0.0-107.0","76000","","","","","","triplet","1295.8000000715256","","","","0","stimuli/boats_uppercase.png","stimuli/tree_uppercase.png","stimuli/tree_lowercase.png","101"
"html-button-response-mod","108","594812","0.0-108.0","76000","","","","","","triplet","1556.5","","","","2","stimuli/stim017_inanimate_tree_1.png","stimuli/stim014_inanimate_boats_2.png","stimuli/stim024_inanimate_tools_4.png","102"
"html-button-response-mod","109","596495","0.0-109.0","76000","","","","","","triplet","1180.7000000476837","","","","0","stimuli/stim022_inanimate_tools_2.png","stimuli/stim018_inanimate_tree_2.png","stimuli/stim017_inanimate_tree_1.png","103"
"html-button-response-mod","110","598795","0.0-110.0","76000","","","","","","triplet","1790.7999999523163","","","","0","stimuli/tools_lowercase.png","stimuli/stim001_animate_fish_1.png","stimuli/fish_uppercase.png","104"
"html-button-response-mod","111","600229","0.0-111.0","76000","","","","","","triplet","923.6000000238419","","","","2","stimuli/stim009_animate_face_1.png","stimuli/stim011_animate_face_3.png","stimuli/stim007_animate_bird_3.png","105"
"html-button-response-mod","112","601926","0.0-112.0","76000","","","","","","triplet","1191.6000000238419","","","","1","stimuli/stim022_inanimate_tools_2.png","stimuli/tree_lowercase.png","stimuli/stim021_inanimate_tools_1.png","106"
"html-button-response-mod","113","603295","0.0-113.0","76000","","","","","","triplet","860.3000000715256","","","","2","stimuli/stim017_inanimate_tree_1.png","stimuli/stim018_inanimate_tree_2.png","stimuli/fish_lowercase.png","107"
"html-button-response-mod","114","606163","0.0-114.0","76000","","","","","","triplet","2359.7999999523163","","","","2","stimuli/fish_uppercase.png","stimuli/tree_uppercase.png","stimuli/stim011_animate_face_3.png","108"
"html-button-response-mod","115","608912","0.0-115.0","76000","","","","","","triplet","2246.0999999046326","","","","1","stimuli/stim024_inanimate_tools_4.png","stimuli/stim003_animate_fish_3.png","stimuli/tree_uppercase.png","109"
"html-button-response-mod","116","612813","0.0-116.0","76000","","","","","","triplet","3392.3000000715256","","","","2","stimuli/stim005_animate_bird_1.png","stimuli/stim020_inanimate_tree_4.png","stimuli/stim013_inanimate_boats_1.png","110"
"html-button-response-mod","117","615211","0.0-117.0","76000","","","","","","triplet","1891.8000000715256","","","","1","stimuli/bird_lowercase.png","stimuli/face_uppercase.png","stimuli/stim007_animate_bird_3.png","111"
"html-button-response-mod","118","618295","0.0-118.0","76000","","","","","","triplet","2575.3000000715256","","","","1","stimuli/tools_uppercase.png","stimuli/fish_uppercase.png","stimuli/stim024_inanimate_tools_4.png","112"
"html-button-response-mod","119","624195","0.0-119.0","76000","","","","","","triplet","5387.800000071526","","","","2","stimuli/face_lowercase.png","stimuli/stim003_animate_fish_3.png","stimuli/stim024_inanimate_tools_4.png","113"
"html-button-response-mod","120","626245","0.0-120.0","76000","","","","","","triplet","1538.5","","","","1","stimuli/tools_lowercase.png","stimuli/tree_uppercase.png","stimuli/stim024_inanimate_tools_4.png","114"
"html-button-response-mod","121","631060","0.0-121.0","76000","","","","","","triplet","4305.899999976158","","","","2","stimuli/stim017_inanimate_tree_1.png","stimuli/boats_uppercase.png","stimuli/tools_lowercase.png","115"
"html-button-response-mod","122","633844","0.0-122.0","76000","","","","","","triplet","2276.3000000715256","","","","0","stimuli/boats_uppercase.png","stimuli/tools_uppercase.png","stimuli/stim023_inanimate_tools_3.png","116"
"html-button-response-mod","123","637227","0.0-123.0","76000","","","","","","triplet","2873.5","","","","1","stimuli/stim023_inanimate_tools_3.png","stimuli/stim017_inanimate_tree_1.png","stimuli/boats_uppercase.png","117"
"html-button-response-mod","124","639728","0.0-124.0","76000","","","","","","triplet","1997","","","","0","stimuli/bird_uppercase.png","stimuli/tools_lowercase.png","stimuli/stim023_inanimate_tools_3.png","118"
"html-button-response-mod","125","641111","0.0-125.0","76000","","","","","","triplet","872.6000000238419","","","","0","stimuli/stim018_inanimate_tree_2.png","stimuli/stim024_inanimate_tools_4.png","stimuli/stim022_inanimate_tools_2.png","119"
"html-button-response-mod","126","644112","0.0-126.0","76000","","","","","","triplet","2497.100000023842","","","","2","stimuli/stim017_inanimate_tree_1.png","stimuli/bird_lowercase.png","stimuli/stim023_inanimate_tools_3.png","120"
"html-button-response-mod","127","646313","0.0-127.0","76000","","","","","","triplet","1695","","","","2","stimuli/stim009_animate_face_1.png","stimuli/face_lowercase.png","stimuli/stim019_inanimate_tree_3.png","121"
"html-button-response-mod","128","649979","0.0-128.0","76000","","","","","","triplet","3161.5","","","","0","stimuli/stim024_inanimate_tools_4.png","stimuli/bird_lowercase.png","stimuli/face_uppercase.png","122"
"html-button-response-mod","129","658579","0.0-129.0","76000","","","","","","triplet","8090.100000023842","","","","1","stimuli/stim018_inanimate_tree_2.png","stimuli/stim003_animate_fish_3.png","stimuli/stim012_animate_face_4.png","123"
"html-button-response-mod","130","660662","0.0-130.0","76000","","","","","","triplet","1576.6999999284744","","","","0","stimuli/stim023_inanimate_tools_3.png","stimuli/stim020_inanimate_tree_4.png","stimuli/stim019_inanimate_tree_3.png","124"
"html-button-response-mod","131","663545","0.0-131.0","76000","","","","","","triplet","2372.2999999523163","","","","2","stimuli/boats_uppercase.png","stimuli/fish_uppercase.png","stimuli/tree_uppercase.png","125"
"html-button-response-mod","132","665711","0.0-132.0","76000","","","","","","triplet","1655.6000000238419","","","","2","stimuli/bird_uppercase.png","stimuli/stim005_animate_bird_1.png","stimuli/fish_uppercase.png","126"
"html-button-response-mod","133","669776","0.0-133.0","76000","","","","","","triplet","3555.8000000715256","","","","1","stimuli/face_uppercase.png","stimuli/stim004_animate_fish_4.png","stimuli/tree_lowercase.png","127"
"html-button-response-mod","134","672462","0.0-134.0","76000","","","","","","triplet","2179.5","","","","1","stimuli/face_uppercase.png","stimuli/stim016_inanimate_boats_4.png","stimuli/stim010_animate_face_2.png","128"
"html-button-response-mod","135","676762","0.0-135.0","76000","","","","","","triplet","3791.600000023842","","","","2","stimuli/stim009_animate_face_1.png","stimuli/bird_lowercase.png","stimuli/stim022_inanimate_tools_2.png","129"
"html-button-response-mod","136","678396","0.0-136.0","76000","","","","","","triplet","1123.3000000715256","","","","2","stimuli/bird_lowercase.png","stimuli/bird_uppercase.png","stimuli/stim023_inanimate_tools_3.png","130"
"html-button-response-mod","137","682510","0.0-137.0","76000","","","","","","triplet","3604.399999976158","","","","1","stimuli/face_uppercase.png","stimuli/stim003_animate_fish_3.png","stimuli/tree_lowercase.png","131"
"html-button-response-mod","138","684328","0.0-138.0","76000","","","","","","triplet","1312.4000000953674","","","","2","stimuli/stim021_inanimate_tools_1.png","stimuli/stim024_inanimate_tools_4.png","stimuli/stim012_animate_face_4.png","132"
"html-button-response-mod","139","687143","0.0-139.0","76000","","","","","","triplet","2305.5","","","","0","stimuli/stim009_animate_face_1.png","stimuli/stim004_animate_fish_4.png","stimuli/stim013_inanimate_boats_1.png","133"
"html-button-response-mod","140","689294","0.0-140.0","76000","","","","","","triplet","1642","","","","1","stimuli/stim006_animate_bird_2.png","stimuli/stim019_inanimate_tree_3.png","stimuli/stim007_animate_bird_3.png","134"
"html-button-response-mod","141","695009","0.0-141.0","76000","","","","","","triplet","5206.299999952316","","","","1","stimuli/stim019_inanimate_tree_3.png","stimuli/bird_uppercase.png","stimuli/tree_uppercase.png","135"
"html-button-response-mod","142","697059","0.0-142.0","76000","","","","","","triplet","1541.3000000715256","","","","1","stimuli/stim010_animate_face_2.png","stimuli/boats_uppercase.png","stimuli/stim011_animate_face_3.png","136"
"html-button-response-mod","143","699293","0.0-143.0","76000","","","","","","triplet","1724.4000000953674","","","","2","stimuli/stim002_animate_fish_2.png","stimuli/stim015_inanimate_boats_3.png","stimuli/tree_uppercase.png","137"
"html-button-response-mod","144","700727","0.0-144.0","76000","","","","","","triplet","927.6000000238419","","","","1","stimuli/stim017_inanimate_tree_1.png","stimuli/stim001_animate_fish_1.png","stimuli/stim019_inanimate_tree_3.png","138"
"html-button-response-mod","145","705378","0.0-145.0","76000","","","","","","triplet","4141.100000023842","","","","2","stimuli/stim020_inanimate_tree_4.png","stimuli/stim009_animate_face_1.png","stimuli/boats_lowercase.png","139"
"html-button-response-mod","146","708163","0.0-146.0","76000","","","","","","triplet","2275.2000000476837","","","","1","stimuli/tools_uppercase.png","stimuli/stim009_animate_face_1.png","stimuli/stim022_inanimate_tools_2.png","140"
"html-button-response-mod","147","710444","0.0-147.0","76000","","","","","","triplet","1771.5","","","","0","stimuli/face_lowercase.png","stimuli/stim012_animate_face_4.png","stimuli/stim009_animate_face_1.png","141"
"html-button-response-mod","148","713161","0.0-148.0","76000","","","","","","triplet","2207.600000023842","","","","0","stimuli/tools_uppercase.png","stimuli/stim001_animate_fish_1.png","stimuli/stim002_animate_fish_2.png","142"
"html-button-response-mod","149","716859","0.0-149.0","76000","","","","","","triplet","3191.3000000715256","","","","2","stimuli/stim005_animate_bird_1.png","stimuli/stim001_animate_fish_1.png","stimuli/stim010_animate_face_2.png","143"
"html-button-response-mod","150","718728","0.0-150.0","76000","","","","","","triplet","1364.3999999761581","","","","2","stimuli/face_uppercase.png","stimuli/face_lowercase.png","stimuli/stim004_animate_fish_4.png","144"
"html-button-response-mod","151","722928","0.0-151.0","76000","","","","","","triplet","3689.100000023842","","","","1","stimuli/stim012_animate_face_4.png","stimuli/stim024_inanimate_tools_4.png","stimuli/stim001_animate_fish_1.png","145"
"html-button-response-mod","152","724564","0.0-152.0","76000","","","","","","triplet","1125.6000000238419","","","","0","stimuli/stim011_animate_face_3.png","stimuli/stim008_animate_bird_4.png","stimuli/stim005_animate_bird_1.png","146"
"html-button-response-mod","153","727279","0.0-153.0","76000","","","","","","triplet","2209.7000000476837","","","","2","stimuli/stim008_animate_bird_4.png","stimuli/stim018_inanimate_tree_2.png","stimuli/stim013_inanimate_boats_1.png","147"
"html-button-response-mod","154","728976","0.0-154.0","76000","","","","","","triplet","1187.3000000715256","","","","2","stimuli/stim004_animate_fish_4.png","stimuli/stim002_animate_fish_2.png","stimuli/stim016_inanimate_boats_4.png","148"
"html-button-response-mod","155","731427","0.0-155.0","76000","","","","","","triplet","1939.6999999284744","","","","2","stimuli/fish_lowercase.png","stimuli/stim004_animate_fish_4.png","stimuli/stim019_inanimate_tree_3.png","149"
"html-button-response","156","733226","0.0-156.0","76000","","","","","","break","1289","<p>BREAK</p><p>Take a break for as long as you need</p><p>Click the button to continue</p>","0","","","","","",""
"html-button-response-mod","157","734827","0.0-157.0","76000","","","","","","triplet","1598.2000000476837","","","","0","stimuli/stim016_inanimate_boats_4.png","stimuli/fish_uppercase.png","stimuli/stim001_animate_fish_1.png","150"
"html-button-response-mod","158","739377","0.0-158.0","76000","","","","","","triplet","4040.399999976158","","","","0","stimuli/stim024_inanimate_tools_4.png","stimuli/bird_uppercase.png","stimuli/stim017_inanimate_tree_1.png","151"
"html-button-response-mod","159","746611","0.0-159.0","76000","","","","","","triplet","6723.699999928474","","","","0","stimuli/stim018_inanimate_tree_2.png","stimuli/stim009_animate_face_1.png","stimuli/stim010_animate_face_2.png","152"
"html-button-response-mod","160","767178","0.0-160.0","76000","","","","","","triplet","20059.600000023842","","","","2","stimuli/stim020_inanimate_tree_4.png","stimuli/bird_lowercase.png","stimuli/fish_uppercase.png","153"
"html-button-response-mod","161","769094","0.0-161.0","76000","","","","","","triplet","1407.6000000238419","","","","0","stimuli/stim006_animate_bird_2.png","stimuli/stim010_animate_face_2.png","stimuli/stim012_animate_face_4.png","154"
"html-button-response-mod","162","772495","0.0-162.0","76000","","","","","","triplet","2890.5","","","","1","stimuli/stim019_inanimate_tree_3.png","stimuli/stim003_animate_fish_3.png","stimuli/stim008_animate_bird_4.png","155"
"html-button-response-mod","163","775792","0.0-163.0","76000","","","","","","triplet","2790","","","","0","stimuli/tools_uppercase.png","stimuli/tree_uppercase.png","stimuli/stim004_animate_fish_4.png","156"
"html-button-response-mod","164","780275","0.0-164.0","76000","","","","","","triplet","3972.399999976158","","","","0","stimuli/tools_lowercase.png","stimuli/fish_uppercase.png","stimuli/stim015_inanimate_boats_3.png","157"
"html-button-response-mod","165","786809","0.0-165.0","76000","","","","","","triplet","6029.299999952316","","","","2","stimuli/boats_lowercase.png","stimuli/tools_lowercase.png","stimuli/stim004_animate_fish_4.png","158"
"html-button-response-mod","166","791775","0.0-166.0","76000","","","","","","triplet","4456.800000071526","","","","0","stimuli/stim011_animate_face_3.png","stimuli/bird_uppercase.png","stimuli/boats_lowercase.png","159"
"html-button-response-mod","167","795061","0.0-167.0","76000","","","","","","triplet","2776.899999976158","","","","2","stimuli/stim012_animate_face_4.png","stimuli/stim007_animate_bird_3.png","stimuli/boats_lowercase.png","160"
"html-button-response-mod","168","797375","0.0-168.0","76000","","","","","","triplet","1805.5999999046326","","","","2","stimuli/stim006_animate_bird_2.png","stimuli/stim018_inanimate_tree_2.png","stimuli/tools_uppercase.png","161"
"html-button-response-mod","169","801808","0.0-169.0","76000","","","","","","triplet","3927.399999976158","","","","0","stimuli/stim014_inanimate_boats_2.png","stimuli/stim007_animate_bird_3.png","stimuli/stim010_animate_face_2.png","162"
"html-button-response-mod","170","803993","0.0-170.0","76000","","","","","","triplet","1676.6999999284744","","","","0","stimuli/fish_uppercase.png","stimuli/stim017_inanimate_tree_1.png","stimuli/stim009_animate_face_1.png","163"
"html-button-response-mod","171","806328","0.0-171.0","76000","","","","","","triplet","1825.6999999284744","","","","2","stimuli/stim018_inanimate_tree_2.png","stimuli/stim016_inanimate_boats_4.png","stimuli/stim021_inanimate_tools_1.png","164"
"html-button-response-mod","172","811925","0.0-172.0","76000","","","","","","triplet","5087.399999976158","","","","2","stimuli/stim008_animate_bird_4.png","stimuli/tree_uppercase.png","stimuli/stim003_animate_fish_3.png","165"
"html-button-response-mod","173","814658","0.0-173.0","76000","","","","","","triplet","2223.5","","","","1","stimuli/stim019_inanimate_tree_3.png","stimuli/face_uppercase.png","stimuli/stim003_animate_fish_3.png","166"
"html-button-response-mod","174","818058","0.0-174.0","76000","","","","","","triplet","2890.899999976158","","","","0","stimuli/tools_lowercase.png","stimuli/tree_uppercase.png","stimuli/stim018_inanimate_tree_2.png","167"
"html-button-response-mod","175","821743","0.0-175.0","76000","","","","","","triplet","3173.600000023842","","","","1","stimuli/tools_uppercase.png","stimuli/stim012_animate_face_4.png","stimuli/boats_lowercase.png","168"
"html-button-response-mod","176","827093","0.0-176.0","76000","","","","","","triplet","4842.699999928474","","","","0","stimuli/stim019_inanimate_tree_3.png","stimuli/stim016_inanimate_boats_4.png","stimuli/stim021_inanimate_tools_1.png","169"
"html-button-response-mod","177","832845","0.0-177.0","76000","","","","","","triplet","5242.300000071526","","","","2","stimuli/stim023_inanimate_tools_3.png","stimuli/stim022_inanimate_tools_2.png","stimuli/stim003_animate_fish_3.png","170"
"html-button-response-mod","178","838876","0.0-178.0","76000","","","","","","triplet","5524.799999952316","","","","2","stimuli/stim001_animate_fish_1.png","stimuli/stim003_animate_fish_3.png","stimuli/tools_lowercase.png","171"
"html-button-response-mod","179","844875","0.0-179.0","76000","","","","","","triplet","5488.900000095367","","","","2","stimuli/stim017_inanimate_tree_1.png","stimuli/stim004_animate_fish_4.png","stimuli/boats_lowercase.png","172"
"html-button-response-mod","180","849474","0.0-180.0","76000","","","","","","triplet","4088.899999976158","","","","2","stimuli/stim013_inanimate_boats_1.png","stimuli/stim012_animate_face_4.png","stimuli/fish_lowercase.png","173"
"html-button-response-mod","181","854375","0.0-181.0","76000","","","","","","triplet","4391.899999976158","","","","0","stimuli/tools_lowercase.png","stimuli/stim011_animate_face_3.png","stimuli/stim018_inanimate_tree_2.png","174"
"html-button-response-mod","182","855910","0.0-182.0","76000","","","","","","triplet","1029.7000000476837","","","","2","stimuli/stim002_animate_fish_2.png","stimuli/stim003_animate_fish_3.png","stimuli/stim008_animate_bird_4.png","175"
"html-button-response-mod","183","857344","0.0-183.0","76000","","","","","","triplet","929.0999999046326","","","","0","stimuli/stim024_inanimate_tools_4.png","stimuli/stim003_animate_fish_3.png","stimuli/stim012_animate_face_4.png","176"
"html-button-response-mod","184","859675","0.0-184.0","76000","","","","","","triplet","1820.1000000238419","","","","0","stimuli/boats_uppercase.png","stimuli/stim003_animate_fish_3.png","stimuli/stim013_inanimate_boats_1.png","177"
"html-button-response-mod","185","862191","0.0-185.0","76000","","","","","","triplet","2011.5","","","","1","stimuli/stim017_inanimate_tree_1.png","stimuli/tools_lowercase.png","stimuli/stim012_animate_face_4.png","178"
"html-button-response-mod","186","868674","0.0-186.0","76000","","","","","","triplet","5972.699999928474","","","","1","stimuli/stim007_animate_bird_3.png","stimuli/stim008_animate_bird_4.png","stimuli/stim005_animate_bird_1.png","179"
"html-button-response-mod","187","871108","0.0-187.0","76000","","","","","","triplet","1923.9000000953674","","","","1","stimuli/stim012_animate_face_4.png","stimuli/fish_uppercase.png","stimuli/stim007_animate_bird_3.png","180"
"html-button-response-mod","188","872491","0.0-188.0","76000","","","","","","triplet","876.5","","","","2","stimuli/stim024_inanimate_tools_4.png","stimuli/stim007_animate_bird_3.png","stimuli/fish_lowercase.png","181"
"html-button-response-mod","189","874861","0.0-189.0","76000","","","","","","triplet","1864.5","","","","2","stimuli/stim024_inanimate_tools_4.png","stimuli/tools_lowercase.png","stimuli/stim001_animate_fish_1.png","182"
"html-button-response-mod","190","877123","0.0-190.0","76000","","","","","","triplet","1758.2999999523163","","","","0","stimuli/bird_uppercase.png","stimuli/stim023_inanimate_tools_3.png","stimuli/stim016_inanimate_boats_4.png","183"
"html-button-response-mod","191","880241","0.0-191.0","76000","","","","","","triplet","2611.100000023842","","","","0","stimuli/tools_lowercase.png","stimuli/stim004_animate_fish_4.png","stimuli/stim011_animate_face_3.png","184"
"html-button-response-mod","192","882876","0.0-192.0","76000","","","","","","triplet","2124","","","","0","stimuli/bird_uppercase.png","stimuli/stim015_inanimate_boats_3.png","stimuli/stim014_inanimate_boats_2.png","185"
"html-button-response-mod","193","887974","0.0-193.0","76000","","","","","","triplet","4587.799999952316","","","","0","stimuli/stim019_inanimate_tree_3.png","stimuli/stim022_inanimate_tools_2.png","stimuli/boats_lowercase.png","186"
"html-button-response-mod","194","896805","0.0-194.0","76000","","","","","","triplet","8321.799999952316","","","","2","stimuli/stim018_inanimate_tree_2.png","stimuli/fish_lowercase.png","stimuli/stim015_inanimate_boats_3.png","187"
"html-button-response-mod","195","903241","0.0-195.0","76000","","","","","","triplet","5926","","","","2","stimuli/face_lowercase.png","stimuli/stim007_animate_bird_3.png","stimuli/boats_uppercase.png","188"
"html-button-response-mod","196","908559","0.0-196.0","76000","","","","","","triplet","4808.199999928474","","","","1","stimuli/stim001_animate_fish_1.png","stimuli/stim014_inanimate_boats_2.png","stimuli/stim011_animate_face_3.png","189"
"html-button-response-mod","197","914040","0.0-197.0","76000","","","","","","triplet","4973.900000095367","","","","1","stimuli/stim011_animate_face_3.png","stimuli/boats_uppercase.png","stimuli/stim008_animate_bird_4.png","190"
"html-button-response-mod","198","916277","0.0-198.0","76000","","","","","","triplet","1728.8000000715256","","","","0","stimuli/stim002_animate_fish_2.png","stimuli/boats_uppercase.png","stimuli/boats_lowercase.png","191"
"html-button-response-mod","199","922209","0.0-199.0","76000","","","","","","triplet","5422.700000047684","","","","0","stimuli/stim001_animate_fish_1.png","stimuli/bird_uppercase.png","stimuli/stim011_animate_face_3.png","192"
"html-button-response-mod","200","923860","0.0-200.0","76000","","","","","","triplet","1143.5999999046326","","","","2","stimuli/stim023_inanimate_tools_3.png","stimuli/stim021_inanimate_tools_1.png","stimuli/bird_uppercase.png","193"
"html-button-response-mod","201","925492","0.0-201.0","76000","","","","","","triplet","1122.6000000238419","","","","0","stimuli/stim005_animate_bird_1.png","stimuli/stim017_inanimate_tree_1.png","stimuli/stim019_inanimate_tree_3.png","194"
"html-button-response-mod","202","937074","0.0-202.0","76000","","","","","","triplet","11070.799999952316","","","","1","stimuli/stim003_animate_fish_3.png","stimuli/stim024_inanimate_tools_4.png","stimuli/face_uppercase.png","195"
"html-button-response-mod","203","943774","0.0-203.0","76000","","","","","","triplet","6192.399999976158","","","","2","stimuli/stim015_inanimate_boats_3.png","stimuli/boats_lowercase.png","stimuli/stim019_inanimate_tree_3.png","196"
"html-button-response-mod","204","948273","0.0-204.0","76000","","","","","","triplet","3988.399999976158","","","","2","stimuli/fish_uppercase.png","stimuli/stim004_animate_fish_4.png","stimuli/stim008_animate_bird_4.png","197"
"html-button-response-mod","205","952025","0.0-205.0","76000","","","","","","triplet","3242.100000023842","","","","2","stimuli/stim022_inanimate_tools_2.png","stimuli/stim024_inanimate_tools_4.png","stimuli/boats_uppercase.png","198"
"html-button-response-mod","206","953773","0.0-206.0","76000","","","","","","triplet","1242.3999999761581","","","","2","stimuli/tree_lowercase.png","stimuli/stim017_inanimate_tree_1.png","stimuli/fish_uppercase.png","199"
"html-button-response","207","956492","0.0-207.0","76000","","","","","","break","2214.0999999046326","<p>BREAK</p><p>Take a break for as long as you need</p><p>Click the button to continue</p>","0","","","","","",""
"html-button-response-mod","208","959124","0.0-208.0","76000","","","","","","triplet","2629.1999999284744","","","","1","stimuli/face_uppercase.png","stimuli/stim022_inanimate_tools_2.png","stimuli/stim001_animate_fish_1.png","200"
"html-button-response-mod","209","960940","0.0-209.0","76000","","","","","","triplet","1306.1999999284744","","","","2","stimuli/stim011_animate_face_3.png","stimuli/face_uppercase.png","stimuli/fish_uppercase.png","201"
"html-button-response-mod","210","962407","0.0-210.0","76000","","","","","","triplet","962.1000000238419","","","","1","stimuli/stim017_inanimate_tree_1.png","stimuli/stim023_inanimate_tools_3.png","stimuli/stim019_inanimate_tree_3.png","202"
"html-button-response-mod","211","965494","0.0-211.0","76000","","","","","","triplet","2577.899999976158","","","","1","stimuli/stim022_inanimate_tools_2.png","stimuli/stim017_inanimate_tree_1.png","stimuli/tools_lowercase.png","203"
"html-button-response-mod","212","967390","0.0-212.0","76000","","","","","","triplet","1389.5","","","","2","stimuli/stim022_inanimate_tools_2.png","stimuli/tools_uppercase.png","stimuli/stim016_inanimate_boats_4.png","204"
"html-button-response-mod","213","969022","0.0-213.0","76000","","","","","","triplet","1122.3999999761581","","","","1","stimuli/stim011_animate_face_3.png","stimuli/stim004_animate_fish_4.png","stimuli/stim009_animate_face_1.png","205"
"html-button-response-mod","214","970589","0.0-214.0","76000","","","","","","triplet","1051.8999999761581","","","","1","stimuli/stim007_animate_bird_3.png","stimuli/face_uppercase.png","stimuli/stim008_animate_bird_4.png","206"
"html-button-response-mod","215","973724","0.0-215.0","76000","","","","","","triplet","2630","","","","2","stimuli/stim007_animate_bird_3.png","stimuli/stim009_animate_face_1.png","stimuli/stim004_animate_fish_4.png","207"
"html-button-response-mod","216","978724","0.0-216.0","76000","","","","","","triplet","4491.799999952316","","","","0","stimuli/stim017_inanimate_tree_1.png","stimuli/stim009_animate_face_1.png","stimuli/stim005_animate_bird_1.png","208"
"html-button-response-mod","217","980457","0.0-217.0","76000","","","","","","triplet","1223.4000000953674","","","","1","stimuli/stim005_animate_bird_1.png","stimuli/stim014_inanimate_boats_2.png","stimuli/stim004_animate_fish_4.png","209"
"html-button-response-mod","218","982039","0.0-218.0","76000","","","","","","triplet","1072","","","","2","stimuli/stim012_animate_face_4.png","stimuli/stim010_animate_face_2.png","stimuli/tools_lowercase.png","210"
"html-button-response-mod","219","984457","0.0-219.0","76000","","","","","","triplet","1911.4000000953674","","","","2","stimuli/bird_uppercase.png","stimuli/stim005_animate_bird_1.png","stimuli/stim012_animate_face_4.png","211"
"html-button-response-mod","220","986973","0.0-220.0","76000","","","","","","triplet","2007","","","","2","stimuli/stim006_animate_bird_2.png","stimuli/stim001_animate_fish_1.png","stimuli/stim009_animate_face_1.png","212"
"html-button-response-mod","221","990307","0.0-221.0","76000","","","","","","triplet","2826.3000000715256","","","","2","stimuli/stim008_animate_bird_4.png","stimuli/tree_uppercase.png","stimuli/boats_lowercase.png","213"
"html-button-response-mod","222","994607","0.0-222.0","76000","","","","","","triplet","3793.600000023842","","","","1","stimuli/stim023_inanimate_tools_3.png","stimuli/stim002_animate_fish_2.png","stimuli/stim018_inanimate_tree_2.png","214"
"html-button-response-mod","223","1000923","0.0-223.0","76000","","","","","","triplet","5806.100000023842","","","","2","stimuli/bird_uppercase.png","stimuli/stim002_animate_fish_2.png","stimuli/stim012_animate_face_4.png","215"
"html-button-response-mod","224","1007468","0.0-224.0","76000","","","","","","triplet","6038.899999976158","","","","2","stimuli/stim010_animate_face_2.png","stimuli/face_uppercase.png","stimuli/stim004_animate_fish_4.png","216"
"html-button-response-mod","225","1009137","0.0-225.0","76000","","","","","","triplet","1160.2999999523163","","","","2","stimuli/stim004_animate_fish_4.png","stimuli/stim003_animate_fish_3.png","stimuli/stim024_inanimate_tools_4.png","217"
"html-button-response-mod","226","1010803","0.0-226.0","76000","","","","","","triplet","1157.5999999046326","","","","1","stimuli/stim004_animate_fish_4.png","stimuli/stim022_inanimate_tools_2.png","stimuli/stim006_animate_bird_2.png","218"
"html-button-response-mod","227","1013185","0.0-227.0","76000","","","","","","triplet","1874.2000000476837","","","","2","stimuli/face_uppercase.png","stimuli/stim017_inanimate_tree_1.png","stimuli/stim014_inanimate_boats_2.png","219"
"html-button-response-mod","228","1017818","0.0-228.0","76000","","","","","","triplet","4124.699999928474","","","","1","stimuli/stim005_animate_bird_1.png","stimuli/boats_lowercase.png","stimuli/stim009_animate_face_1.png","220"
"html-button-response-mod","229","1019916","0.0-229.0","76000","","","","","","triplet","1590.5","","","","0","stimuli/stim023_inanimate_tools_3.png","stimuli/stim009_animate_face_1.png","stimuli/stim010_animate_face_2.png","221"
"html-button-response-mod","230","1021867","0.0-230.0","76000","","","","","","triplet","1441.1000000238419","","","","2","stimuli/bird_lowercase.png","stimuli/stim006_animate_bird_2.png","stimuli/stim011_animate_face_3.png","222"
"html-button-response-mod","231","1023515","0.0-231.0","76000","","","","","","triplet","1139.6000000238419","","","","2","stimuli/stim003_animate_fish_3.png","stimuli/stim006_animate_bird_2.png","stimuli/stim020_inanimate_tree_4.png","223"
"html-button-response-mod","232","1025214","0.0-232.0","76000","","","","","","triplet","1193.5","","","","1","stimuli/stim007_animate_bird_3.png","stimuli/boats_uppercase.png","stimuli/bird_uppercase.png","224"
"html-button-response-mod","233","1026748","0.0-233.0","76000","","","","","","triplet","1027.2999999523163","","","","0","stimuli/stim022_inanimate_tools_2.png","stimuli/stim004_animate_fish_4.png","stimuli/stim003_animate_fish_3.png","225"
"html-button-response-mod","234","1029015","0.0-234.0","76000","","","","","","triplet","1760.8999999761581","","","","2","stimuli/tools_uppercase.png","stimuli/stim022_inanimate_tools_2.png","stimuli/bird_uppercase.png","226"
"html-button-response-mod","235","1030481","0.0-235.0","76000","","","","","","triplet","958.1000000238419","","","","0","stimuli/stim014_inanimate_boats_2.png","stimuli/stim003_animate_fish_3.png","stimuli/stim004_animate_fish_4.png","227"
"html-button-response-mod","236","1032949","0.0-236.0","76000","","","","","","triplet","1960","","","","2","stimuli/bird_lowercase.png","stimuli/stim004_animate_fish_4.png","stimuli/stim010_animate_face_2.png","228"
"html-button-response-mod","237","1036247","0.0-237.0","76000","","","","","","triplet","2792.8000000715256","","","","2","stimuli/stim008_animate_bird_4.png","stimuli/stim019_inanimate_tree_3.png","stimuli/stim023_inanimate_tools_3.png","229"
"html-button-response-mod","238","1037697","0.0-238.0","76000","","","","","","triplet","942","","","","0","stimuli/stim016_inanimate_boats_4.png","stimuli/stim020_inanimate_tree_4.png","stimuli/stim017_inanimate_tree_1.png","230"
"html-button-response-mod","239","1042431","0.0-239.0","76000","","","","","","triplet","4224.799999952316","","","","0","stimuli/tree_lowercase.png","stimuli/stim003_animate_fish_3.png","stimuli/stim015_inanimate_boats_3.png","231"
"html-button-response-mod","240","1047214","0.0-240.0","76000","","","","","","triplet","4273.5","","","","1","stimuli/stim010_animate_face_2.png","stimuli/stim024_inanimate_tools_4.png","stimuli/face_uppercase.png","232"
"html-button-response-mod","241","1050145","0.0-241.0","76000","","","","","","triplet","2420.600000023842","","","","2","stimuli/bird_lowercase.png","stimuli/stim018_inanimate_tree_2.png","stimuli/stim016_inanimate_boats_4.png","233"
"html-button-response-mod","242","1052329","0.0-242.0","76000","","","","","","triplet","1678.5","","","","0","stimuli/fish_lowercase.png","stimuli/tree_uppercase.png","stimuli/stim020_inanimate_tree_4.png","234"
"html-button-response-mod","243","1055162","0.0-243.0","76000","","","","","","triplet","2321.7000000476837","","","","1","stimuli/stim022_inanimate_tools_2.png","stimuli/bird_uppercase.png","stimuli/stim016_inanimate_boats_4.png","235"
"html-button-response-mod","244","1059262","0.0-244.0","76000","","","","","","triplet","3590.7000000476837","","","","2","stimuli/stim006_animate_bird_2.png","stimuli/stim018_inanimate_tree_2.png","stimuli/stim016_inanimate_boats_4.png","236"
"html-button-response-mod","245","1083026","0.0-245.0","76000","","","","","","triplet","23253.900000095367","","","","2","stimuli/face_lowercase.png","stimuli/stim006_animate_bird_2.png","stimuli/tools_uppercase.png","237"
"html-button-response-mod","246","1086993","0.0-246.0","76000","","","","","","triplet","3456.399999976158","","","","0","stimuli/stim022_inanimate_tools_2.png","stimuli/stim020_inanimate_tree_4.png","stimuli/stim001_animate_fish_1.png","238"
"html-button-response-mod","247","1088628","0.0-247.0","76000","","","","","","triplet","1125.9000000953674","","","","2","stimuli/stim001_animate_fish_1.png","stimuli/fish_lowercase.png","stimuli/stim023_inanimate_tools_3.png","239"
"html-button-response-mod","248","1091526","0.0-248.0","76000","","","","","","triplet","2390.2000000476837","","","","0","stimuli/stim015_inanimate_boats_3.png","stimuli/stim017_inanimate_tree_1.png","stimuli/stim007_animate_bird_3.png","240"
"html-button-response-mod","249","1093209","0.0-249.0","76000","","","","","","triplet","1176.3999999761581","","","","2","stimuli/face_uppercase.png","stimuli/face_lowercase.png","stimuli/stim021_inanimate_tools_1.png","241"
"html-button-response-mod","250","1099910","0.0-250.0","76000","","","","","","triplet","6191.700000047684","","","","2","stimuli/stim023_inanimate_tools_3.png","stimuli/stim014_inanimate_boats_2.png","stimuli/stim003_animate_fish_3.png","242"
"html-button-response-mod","251","1101694","0.0-251.0","76000","","","","","","triplet","1273.1000000238419","","","","1","stimuli/face_uppercase.png","stimuli/stim011_animate_face_3.png","stimuli/fish_lowercase.png","243"
"html-button-response-mod","252","1105328","0.0-252.0","76000","","","","","","triplet","3124.2000000476837","","","","2","stimuli/stim024_inanimate_tools_4.png","stimuli/stim015_inanimate_boats_3.png","stimuli/stim010_animate_face_2.png","244"
"html-button-response-mod","253","1106845","0.0-253.0","76000","","","","","","triplet","1009.3999999761581","","","","0","stimuli/stim010_animate_face_2.png","stimuli/stim015_inanimate_boats_3.png","stimuli/stim013_inanimate_boats_1.png","245"
"html-button-response-mod","254","1108661","0.0-254.0","76000","","","","","","triplet","1306.3999999761581","","","","2","stimuli/stim010_animate_face_2.png","stimuli/bird_lowercase.png","stimuli/boats_lowercase.png","246"
"html-button-response-mod","255","1110510","0.0-255.0","76000","","","","","","triplet","1339.6999999284744","","","","0","stimuli/stim001_animate_fish_1.png","stimuli/face_uppercase.png","stimuli/stim010_animate_face_2.png","247"
"html-button-response-mod","256","1112276","0.0-256.0","76000","","","","","","triplet","1256.3000000715256","","","","1","stimuli/stim005_animate_bird_1.png","stimuli/stim015_inanimate_boats_3.png","stimuli/stim001_animate_fish_1.png","248"
"html-button-response-mod","257","1114528","0.0-257.0","76000","","","","","","triplet","1745.5","","","","0","stimuli/stim022_inanimate_tools_2.png","stimuli/stim013_inanimate_boats_1.png","stimuli/fish_uppercase.png","249"
"html-button-response","258","1357507","0.0-258.0","76000","","","","","","break","242469.80000007153","<p>BREAK</p><p>Take a break for as long as you need</p><p>Click the button to continue</p>","0","","","","","",""
"html-button-response-mod","259","1359254","0.0-259.0","76000","","","","","","triplet","1743.6000000238419","","","","2","stimuli/tree_lowercase.png","stimuli/stim019_inanimate_tree_3.png","stimuli/tools_uppercase.png","250"
"html-button-response-mod","260","1362170","0.0-260.0","76000","","","","","","triplet","2410.600000023842","","","","0","stimuli/stim004_animate_fish_4.png","stimuli/stim019_inanimate_tree_3.png","stimuli/stim014_inanimate_boats_2.png","251"
"html-button-response-mod","261","1365622","0.0-261.0","76000","","","","","","triplet","2940.600000023842","","","","2","stimuli/stim016_inanimate_boats_4.png","stimuli/stim011_animate_face_3.png","stimuli/stim021_inanimate_tools_1.png","252"
"html-button-response-mod","262","1367987","0.0-262.0","76000","","","","","","triplet","1857.8999999761581","","","","0","stimuli/tree_lowercase.png","stimuli/face_lowercase.png","stimuli/stim009_animate_face_1.png","253"
"html-button-response-mod","263","1370872","0.0-263.0","76000","","","","","","triplet","2376.600000023842","","","","1","stimuli/stim013_inanimate_boats_1.png","stimuli/stim019_inanimate_tree_3.png","stimuli/stim002_animate_fish_2.png","254"
"html-button-response-mod","264","1372206","0.0-264.0","76000","","","","","","triplet","824.3999999761581","","","","2","stimuli/stim004_animate_fish_4.png","stimuli/stim001_animate_fish_1.png","stimuli/stim013_inanimate_boats_1.png","255"
"html-button-response-mod","265","1373955","0.0-265.0","76000","","","","","","triplet","1238.5","","","","2","stimuli/stim007_animate_bird_3.png","stimuli/stim019_inanimate_tree_3.png","stimuli/face_uppercase.png","256"
"html-button-response-mod","266","1376123","0.0-266.0","76000","","","","","","triplet","1662.8000000715256","","","","2","stimuli/stim018_inanimate_tree_2.png","stimuli/bird_lowercase.png","stimuli/stim024_inanimate_tools_4.png","257"
"html-button-response-mod","267","1378155","0.0-267.0","76000","","","","","","triplet","1521.5","","","","1","stimuli/stim014_inanimate_boats_2.png","stimuli/stim021_inanimate_tools_1.png","stimuli/stim005_animate_bird_1.png","258"
"html-button-response-mod","268","1381139","0.0-268.0","76000","","","","","","triplet","2477.899999976158","","","","0","stimuli/face_lowercase.png","stimuli/boats_lowercase.png","stimuli/boats_uppercase.png","259"
"html-button-response-mod","269","1383156","0.0-269.0","76000","","","","","","triplet","1507.2000000476837","","","","2","stimuli/boats_lowercase.png","stimuli/stim004_animate_fish_4.png","stimuli/tree_uppercase.png","260"
"html-button-response-mod","270","1385606","0.0-270.0","76000","","","","","","triplet","1943.2999999523163","","","","0","stimuli/stim013_inanimate_boats_1.png","stimuli/bird_uppercase.png","stimuli/stim018_inanimate_tree_2.png","261"
"html-button-response-mod","271","1388006","0.0-271.0","76000","","","","","","triplet","1889.3999999761581","","","","2","stimuli/stim017_inanimate_tree_1.png","stimuli/stim007_animate_bird_3.png","stimuli/stim016_inanimate_boats_4.png","262"
"html-button-response-mod","272","1389823","0.0-272.0","76000","","","","","","triplet","1310.6000000238419","","","","1","stimuli/stim018_inanimate_tree_2.png","stimuli/stim023_inanimate_tools_3.png","stimuli/tree_lowercase.png","263"
"html-button-response-mod","273","1392589","0.0-273.0","76000","","","","","","triplet","2260.6999999284744","","","","0","stimuli/stim009_animate_face_1.png","stimuli/bird_uppercase.png","stimuli/stim018_inanimate_tree_2.png","264"
"html-button-response-mod","274","1394454","0.0-274.0","76000","","","","","","triplet","1355.2999999523163","","","","1","stimuli/stim019_inanimate_tree_3.png","stimuli/stim021_inanimate_tools_1.png","stimuli/fish_lowercase.png","265"
"html-button-response-mod","275","1397019","0.0-275.0","76000","","","","","","triplet","2058.2999999523163","","","","0","stimuli/tools_uppercase.png","stimuli/stim016_inanimate_boats_4.png","stimuli/stim014_inanimate_boats_2.png","266"
"html-button-response-mod","276","1398955","0.0-276.0","76000","","","","","","triplet","1427.8999999761581","","","","1","stimuli/stim013_inanimate_boats_1.png","stimuli/stim010_animate_face_2.png","stimuli/boats_uppercase.png","267"
"html-button-response-mod","277","1400755","0.0-277.0","76000","","","","","","triplet","1290.7000000476837","","","","1","stimuli/stim004_animate_fish_4.png","stimuli/stim022_inanimate_tools_2.png","stimuli/stim015_inanimate_boats_3.png","268"
"html-button-response-mod","278","1402903","0.0-278.0","76000","","","","","","triplet","1643.1999999284744","","","","2","stimuli/stim017_inanimate_tree_1.png","stimuli/tree_lowercase.png","stimuli/stim009_animate_face_1.png","269"
"html-button-response-mod","279","1419039","0.0-279.0","76000","","","","","","triplet","15628.600000023842","","","","2","stimuli/stim008_animate_bird_4.png","stimuli/stim020_inanimate_tree_4.png","stimuli/fish_uppercase.png","270"
"html-button-response-mod","280","1421640","0.0-280.0","76000","","","","","","triplet","2091.3000000715256","","","","1","stimuli/stim013_inanimate_boats_1.png","stimuli/stim011_animate_face_3.png","stimuli/stim002_animate_fish_2.png","271"
"html-button-response-mod","281","1425421","0.0-281.0","76000","","","","","","triplet","3273.2000000476837","","","","2","stimuli/stim013_inanimate_boats_1.png","stimuli/stim014_inanimate_boats_2.png","stimuli/stim019_inanimate_tree_3.png","272"
"html-button-response-mod","282","1429473","0.0-282.0","76000","","","","","","triplet","3543","","","","1","stimuli/tree_lowercase.png","stimuli/tools_lowercase.png","stimuli/stim002_animate_fish_2.png","273"
"html-button-response-mod","283","1434754","0.0-283.0","76000","","","","","","triplet","4771.799999952316","","","","2","stimuli/bird_lowercase.png","stimuli/stim011_animate_face_3.png","stimuli/tools_uppercase.png","274"
"html-button-response-mod","284","1443053","0.0-284.0","76000","","","","","","triplet","7789.399999976158","","","","0","stimuli/stim008_animate_bird_4.png","stimuli/tree_uppercase.png","stimuli/stim017_inanimate_tree_1.png","275"
"html-button-response-mod","285","1445136","0.0-285.0","76000","","","","","","triplet","1576","","","","0","stimuli/stim024_inanimate_tools_4.png","stimuli/stim001_animate_fish_1.png","stimuli/stim006_animate_bird_2.png","276"
"html-button-response-mod","286","1447469","0.0-286.0","76000","","","","","","triplet","1824.4000000953674","","","","0","stimuli/stim010_animate_face_2.png","stimuli/stim020_inanimate_tree_4.png","stimuli/bird_lowercase.png","277"
"html-button-response-mod","287","1450271","0.0-287.0","76000","","","","","","triplet","2290.100000023842","","","","1","stimuli/stim003_animate_fish_3.png","stimuli/fish_lowercase.png","stimuli/stim004_animate_fish_4.png","278"
"html-button-response-mod","288","1452770","0.0-288.0","76000","","","","","","triplet","1989.6999999284744","","","","1","stimuli/stim012_animate_face_4.png","stimuli/stim018_inanimate_tree_2.png","stimuli/face_uppercase.png","279"
"html-button-response-mod","289","1454254","0.0-289.0","76000","","","","","","triplet","973.1000000238419","","","","2","stimuli/stim001_animate_fish_1.png","stimuli/stim005_animate_bird_1.png","stimuli/stim013_inanimate_boats_1.png","280"
"html-button-response-mod","290","1455904","0.0-290.0","76000","","","","","","triplet","1143.8999999761581","","","","2","stimuli/stim013_inanimate_boats_1.png","stimuli/boats_uppercase.png","stimuli/stim023_inanimate_tools_3.png","281"
"html-button-response-mod","291","1458186","0.0-291.0","76000","","","","","","triplet","1775.4000000953674","","","","2","stimuli/stim002_animate_fish_2.png","stimuli/fish_lowercase.png","stimuli/stim014_inanimate_boats_2.png","282"
"html-button-response-mod","292","1460554","0.0-292.0","76000","","","","","","triplet","1859.8000000715256","","","","1","stimuli/stim012_animate_face_4.png","stimuli/stim024_inanimate_tools_4.png","stimuli/stim005_animate_bird_1.png","283"
"html-button-response-mod","293","1462419","0.0-293.0","76000","","","","","","triplet","1359","","","","1","stimuli/bird_uppercase.png","stimuli/stim021_inanimate_tools_1.png","stimuli/stim010_animate_face_2.png","284"
"html-button-response-mod","294","1464318","0.0-294.0","76000","","","","","","triplet","1392.3000000715256","","","","2","stimuli/tree_lowercase.png","stimuli/stim004_animate_fish_4.png","stimuli/stim011_animate_face_3.png","285"
"html-button-response-mod","295","1469503","0.0-295.0","76000","","","","","","triplet","4674.100000023842","","","","0","stimuli/tools_lowercase.png","stimuli/stim009_animate_face_1.png","stimuli/tree_lowercase.png","286"
"html-button-response-mod","296","1472420","0.0-296.0","76000","","","","","","triplet","2407.3000000715256","","","","2","stimuli/stim015_inanimate_boats_3.png","stimuli/stim014_inanimate_boats_2.png","stimuli/tree_uppercase.png","287"
"html-button-response-mod","297","1474754","0.0-297.0","76000","","","","","","triplet","1822.1000000238419","","","","2","stimuli/stim018_inanimate_tree_2.png","stimuli/stim006_animate_bird_2.png","stimuli/stim015_inanimate_boats_3.png","288"
"html-button-response-mod","298","1476372","0.0-298.0","76000","","","","","","triplet","1110","","","","2","stimuli/stim006_animate_bird_2.png","stimuli/stim019_inanimate_tree_3.png","stimuli/stim022_inanimate_tools_2.png","289"
"html-button-response-mod","299","1478821","0.0-299.0","76000","","","","","","triplet","1938","","","","0","stimuli/stim009_animate_face_1.png","stimuli/tools_uppercase.png","stimuli/boats_lowercase.png","290"
"html-button-response-mod","300","1480953","0.0-300.0","76000","","","","","","triplet","1623.5","","","","0","stimuli/stim021_inanimate_tools_1.png","stimuli/stim018_inanimate_tree_2.png","stimuli/face_uppercase.png","291"
"html-button-response-mod","301","1482485","0.0-301.0","76000","","","","","","triplet","1024.2000000476837","","","","0","stimuli/tools_lowercase.png","stimuli/stim017_inanimate_tree_1.png","stimuli/stim019_inanimate_tree_3.png","292"
"html-button-response-mod","302","1484620","0.0-302.0","76000","","","","","","triplet","1626.6000000238419","","","","1","stimuli/bird_uppercase.png","stimuli/stim003_animate_fish_3.png","stimuli/stim007_animate_bird_3.png","293"
"html-button-response-mod","303","1486252","0.0-303.0","76000","","","","","","triplet","1126.5999999046326","","","","0","stimuli/stim023_inanimate_tools_3.png","stimuli/stim018_inanimate_tree_2.png","stimuli/stim001_animate_fish_1.png","294"
"html-button-response-mod","304","1488020","0.0-304.0","76000","","","","","","triplet","1259.7000000476837","","","","0","stimuli/stim017_inanimate_tree_1.png","stimuli/stim013_inanimate_boats_1.png","stimuli/stim016_inanimate_boats_4.png","295"
"html-button-response-mod","305","1490002","0.0-305.0","76000","","","","","","triplet","1472","","","","0","stimuli/boats_uppercase.png","stimuli/stim002_animate_fish_2.png","stimuli/bird_lowercase.png","296"
"html-button-response-mod","306","1492551","0.0-306.0","76000","","","","","","triplet","2039.3999999761581","","","","0","stimuli/face_lowercase.png","stimuli/stim020_inanimate_tree_4.png","stimuli/tree_uppercase.png","297"
"html-button-response-mod","307","1497701","0.0-307.0","76000","","","","","","triplet","4641.099999904633","","","","0","stimuli/stim017_inanimate_tree_1.png","stimuli/stim023_inanimate_tools_3.png","stimuli/stim016_inanimate_boats_4.png","298"
"html-button-response-mod","308","1502268","0.0-308.0","76000","","","","","","triplet","4056.899999976158","","","","2","stimuli/boats_uppercase.png","stimuli/fish_uppercase.png","stimuli/bird_lowercase.png","299"
"html-button-response","309","1909527","0.0-309.0","76000","","","","","","break","406749.60000002384","<p>BREAK</p><p>Take a break for as long as you need</p><p>Click the button to continue</p>","0","","","","","",""
"html-button-response-mod","310","1910876","0.0-310.0","76000","","","","","","triplet","1346.1999999284744","","","","2","stimuli/stim016_inanimate_boats_4.png","stimuli/stim013_inanimate_boats_1.png","stimuli/stim010_animate_face_2.png","300"
"html-button-response-mod","311","1912628","0.0-311.0","76000","","","","","","triplet","1242.7999999523163","","","","0","stimuli/stim024_inanimate_tools_4.png","stimuli/stim011_animate_face_3.png","stimuli/stim009_animate_face_1.png","301"
"html-button-response-mod","312","1914545","0.0-312.0","76000","","","","","","triplet","1408.1000000238419","","","","0","stimuli/boats_lowercase.png","stimuli/bird_lowercase.png","stimuli/stim007_animate_bird_3.png","302"
"html-button-response-mod","313","1919528","0.0-313.0","76000","","","","","","triplet","4475","","","","2","stimuli/stim004_animate_fish_4.png","stimuli/stim019_inanimate_tree_3.png","stimuli/stim011_animate_face_3.png","303"
"html-button-response-mod","314","1921212","0.0-314.0","76000","","","","","","triplet","1173.7999999523163","","","","1","stimuli/stim008_animate_bird_4.png","stimuli/stim024_inanimate_tools_4.png","stimuli/stim005_animate_bird_1.png","304"
"html-button-response-mod","315","1922846","0.0-315.0","76000","","","","","","triplet","1128.8999999761581","","","","1","stimuli/stim007_animate_bird_3.png","stimuli/stim009_animate_face_1.png","stimuli/stim003_animate_fish_3.png","305"
"html-button-response-mod","316","1924546","0.0-316.0","76000","","","","","","triplet","1191","","","","2","stimuli/stim004_animate_fish_4.png","stimuli/stim014_inanimate_boats_2.png","stimuli/stim021_inanimate_tools_1.png","306"
"html-button-response-mod","317","1925895","0.0-317.0","76000","","","","","","triplet","839.6999999284744","","","","2","stimuli/stim016_inanimate_boats_4.png","stimuli/boats_uppercase.png","stimuli/stim001_animate_fish_1.png","307"
"html-button-response-mod","318","1927745","0.0-318.0","76000","","","","","","triplet","1344.5999999046326","","","","2","stimuli/stim001_animate_fish_1.png","stimuli/stim014_inanimate_boats_2.png","stimuli/stim005_animate_bird_1.png","308"
"html-button-response-mod","319","1929711","0.0-319.0","76000","","","","","","triplet","1456.2000000476837","","","","0","stimuli/boats_lowercase.png","stimuli/stim005_animate_bird_1.png","stimuli/stim016_inanimate_boats_4.png","309"
"html-button-response-mod","320","1931877","0.0-320.0","76000","","","","","","triplet","1655.2999999523163","","","","1","stimuli/bird_uppercase.png","stimuli/stim009_animate_face_1.png","stimuli/stim005_animate_bird_1.png","310"
"html-button-response-mod","321","1934295","0.0-321.0","76000","","","","","","triplet","1909","","","","1","stimuli/face_uppercase.png","stimuli/tools_uppercase.png","stimuli/stim002_animate_fish_2.png","311"
"html-button-response-mod","322","1937727","0.0-322.0","76000","","","","","","triplet","2921.5","","","","1","stimuli/face_lowercase.png","stimuli/boats_uppercase.png","stimuli/fish_lowercase.png","312"
"html-button-response-mod","323","1940663","0.0-323.0","76000","","","","","","triplet","2426","","","","0","stimuli/face_lowercase.png","stimuli/stim023_inanimate_tools_3.png","stimuli/stim014_inanimate_boats_2.png","313"
"html-button-response-mod","324","1942278","0.0-324.0","76000","","","","","","triplet","1106","","","","0","stimuli/stim011_animate_face_3.png","stimuli/stim021_inanimate_tools_1.png","stimuli/stim023_inanimate_tools_3.png","314"
"html-button-response-mod","325","1944580","0.0-325.0","76000","","","","","","triplet","1792.1999999284744","","","","2","stimuli/stim009_animate_face_1.png","stimuli/face_uppercase.png","stimuli/tools_uppercase.png","315"
"html-button-response-mod","326","1947845","0.0-326.0","76000","","","","","","triplet","2754.2000000476837","","","","1","stimuli/stim007_animate_bird_3.png","stimuli/stim023_inanimate_tools_3.png","stimuli/stim017_inanimate_tree_1.png","316"
"html-button-response-mod","327","1949077","0.0-327.0","76000","","","","","","triplet","724.8000000715256","","","","1","stimuli/stim017_inanimate_tree_1.png","stimuli/stim013_inanimate_boats_1.png","stimuli/stim020_inanimate_tree_4.png","317"
"html-button-response-mod","328","1952079","0.0-328.0","76000","","","","","","triplet","2496.6999999284744","","","","2","stimuli/boats_uppercase.png","stimuli/tools_uppercase.png","stimuli/bird_uppercase.png","318"
"html-button-response-mod","329","1955227","0.0-329.0","76000","","","","","","triplet","2638.8000000715256","","","","1","stimuli/stim001_animate_fish_1.png","stimuli/stim010_animate_face_2.png","stimuli/bird_lowercase.png","319"
"html-button-response-mod","330","1957460","0.0-330.0","76000","","","","","","triplet","1725.6000000238419","","","","0","stimuli/stim017_inanimate_tree_1.png","stimuli/stim004_animate_fish_4.png","stimuli/stim002_animate_fish_2.png","320"
"html-button-response-mod","331","1959543","0.0-331.0","76000","","","","","","triplet","1573.5999999046326","","","","0","stimuli/tools_uppercase.png","stimuli/stim015_inanimate_boats_3.png","stimuli/stim003_animate_fish_3.png","321"
"html-button-response-mod","332","1960994","0.0-332.0","76000","","","","","","triplet","941.7999999523163","","","","0","stimuli/stim011_animate_face_3.png","stimuli/stim016_inanimate_boats_4.png","stimuli/stim006_animate_bird_2.png","322"
"html-button-response-mod","333","1962827","0.0-333.0","76000","","","","","","triplet","1323.8999999761581","","","","1","stimuli/stim015_inanimate_boats_3.png","stimuli/stim010_animate_face_2.png","stimuli/stim005_animate_bird_1.png","323"
"html-button-response-mod","334","1964727","0.0-334.0","76000","","","","","","triplet","1393.9000000953674","","","","0","stimuli/stim017_inanimate_tree_1.png","stimuli/fish_uppercase.png","stimuli/fish_lowercase.png","324"
"html-button-response-mod","335","1966697","0.0-335.0","76000","","","","","","triplet","1460.8999999761581","","","","2","stimuli/boats_lowercase.png","stimuli/stim004_animate_fish_4.png","stimuli/face_uppercase.png","325"
"html-button-response-mod","336","1968476","0.0-336.0","76000","","","","","","triplet","1268.6999999284744","","","","1","stimuli/fish_lowercase.png","stimuli/boats_uppercase.png","stimuli/stim004_animate_fish_4.png","326"
"html-button-response-mod","337","1970127","0.0-337.0","76000","","","","","","triplet","1139.6999999284744","","","","0","stimuli/stim022_inanimate_tools_2.png","stimuli/bird_lowercase.png","stimuli/stim005_animate_bird_1.png","327"
"html-button-response-mod","338","1972309","0.0-338.0","76000","","","","","","triplet","1675.5999999046326","","","","1","stimuli/fish_lowercase.png","stimuli/stim021_inanimate_tools_1.png","stimuli/stim008_animate_bird_4.png","328"
"html-button-response-mod","339","1973843","0.0-339.0","76000","","","","","","triplet","1024.7000000476837","","","","0","stimuli/stim018_inanimate_tree_2.png","stimuli/stim008_animate_bird_4.png","stimuli/stim005_animate_bird_1.png","329"
"html-button-response-mod","340","1976075","0.0-340.0","76000","","","","","","triplet","1723.5","","","","1","stimuli/fish_uppercase.png","stimuli/tools_lowercase.png","stimuli/stim020_inanimate_tree_4.png","330"
"html-button-response-mod","341","1977726","0.0-341.0","76000","","","","","","triplet","1146.1000000238419","","","","0","stimuli/bird_lowercase.png","stimuli/stim007_animate_bird_3.png","stimuli/stim005_animate_bird_1.png","331"
"html-button-response-mod","342","1980595","0.0-342.0","76000","","","","","","triplet","2359.100000023842","","","","1","stimuli/stim018_inanimate_tree_2.png","stimuli/stim014_inanimate_boats_2.png","stimuli/tree_uppercase.png","332"
"html-button-response-mod","343","1982361","0.0-343.0","76000","","","","","","triplet","1257.8000000715256","","","","2","stimuli/stim017_inanimate_tree_1.png","stimuli/tree_lowercase.png","stimuli/stim013_inanimate_boats_1.png","333"
"html-button-response-mod","344","1984975","0.0-344.0","76000","","","","","","triplet","2109.899999976158","","","","0","stimuli/stim022_inanimate_tools_2.png","stimuli/stim018_inanimate_tree_2.png","stimuli/stim006_animate_bird_2.png","334"
"html-button-response-mod","345","1986995","0.0-345.0","76000","","","","","","triplet","1510.7999999523163","","","","2","stimuli/stim002_animate_fish_2.png","stimuli/tree_uppercase.png","stimuli/stim024_inanimate_tools_4.png","335"
"html-button-response-mod","346","1988709","0.0-346.0","76000","","","","","","triplet","1207.1999999284744","","","","2","stimuli/face_lowercase.png","stimuli/stim006_animate_bird_2.png","stimuli/stim010_animate_face_2.png","336"
"html-button-response-mod","347","1990910","0.0-347.0","76000","","","","","","triplet","1690.2000000476837","","","","0","stimuli/stim006_animate_bird_2.png","stimuli/tree_uppercase.png","stimuli/stim024_inanimate_tools_4.png","337"
"html-button-response-mod","348","1993076","0.0-348.0","76000","","","","","","triplet","1655","","","","0","stimuli/stim012_animate_face_4.png","stimuli/tools_lowercase.png","stimuli/stim019_inanimate_tree_3.png","338"
"html-button-response-mod","349","1994809","0.0-349.0","76000","","","","","","triplet","1222.2000000476837","","","","2","stimuli/stim018_inanimate_tree_2.png","stimuli/boats_lowercase.png","stimuli/stim021_inanimate_tools_1.png","339"
"html-button-response-mod","350","1996758","0.0-350.0","76000","","","","","","triplet","1443","","","","1","stimuli/tree_lowercase.png","stimuli/stim003_animate_fish_3.png","stimuli/tools_lowercase.png","340"
"html-button-response-mod","351","1998576","0.0-351.0","76000","","","","","","triplet","1308.7999999523163","","","","1","stimuli/tree_uppercase.png","stimuli/stim016_inanimate_boats_4.png","stimuli/stim008_animate_bird_4.png","341"
"html-button-response-mod","352","2000245","0.0-352.0","76000","","","","","","triplet","1161.5","","","","2","stimuli/stim001_animate_fish_1.png","stimuli/stim007_animate_bird_3.png","stimuli/stim021_inanimate_tools_1.png","342"
"html-button-response-mod","353","2002045","0.0-353.0","76000","","","","","","triplet","1289.5","","","","2","stimuli/stim002_animate_fish_2.png","stimuli/fish_lowercase.png","stimuli/stim021_inanimate_tools_1.png","343"
"html-button-response-mod","354","2003976","0.0-354.0","76000","","","","","","triplet","1419.7999999523163","","","","1","stimuli/tools_uppercase.png","stimuli/stim016_inanimate_boats_4.png","stimuli/stim015_inanimate_boats_3.png","344"
"html-button-response-mod","355","2006077","0.0-355.0","76000","","","","","","triplet","1593.5","","","","1","stimuli/boats_lowercase.png","stimuli/stim012_animate_face_4.png","stimuli/tree_lowercase.png","345"
"html-button-response-mod","356","2008409","0.0-356.0","76000","","","","","","triplet","1822.6999999284744","","","","2","stimuli/bird_lowercase.png","stimuli/stim013_inanimate_boats_1.png","stimuli/stim012_animate_face_4.png","346"
"html-button-response-mod","357","2011726","0.0-357.0","76000","","","","","","triplet","2809.7999999523163","","","","0","stimuli/bird_lowercase.png","stimuli/tools_uppercase.png","stimuli/boats_uppercase.png","347"
"html-button-response-mod","358","2014093","0.0-358.0","76000","","","","","","triplet","1860.5999999046326","","","","2","stimuli/stim016_inanimate_boats_4.png","stimuli/stim009_animate_face_1.png","stimuli/stim022_inanimate_tools_2.png","348"
"html-button-response-mod","359","2016343","0.0-359.0","76000","","","","","","triplet","1741.6000000238419","","","","1","stimuli/fish_uppercase.png","stimuli/stim017_inanimate_tree_1.png","stimuli/face_lowercase.png","349"
"html-button-response","360","2018078","0.0-360.0","76000","","","","","","break","1226.6000000238419","<p>BREAK</p><p>Take a break for as long as you need</p><p>Click the button to continue</p>","0","","","","","",""
"html-button-response-mod","361","2019509","0.0-361.0","76000","","","","","","triplet","1428","","","","1","stimuli/face_lowercase.png","stimuli/tools_uppercase.png","stimuli/stim012_animate_face_4.png","350"
"html-button-response-mod","362","2021528","0.0-362.0","76000","","","","","","triplet","1508.1999999284744","","","","0","stimuli/boats_lowercase.png","stimuli/stim003_animate_fish_3.png","stimuli/stim006_animate_bird_2.png","351"
"html-button-response-mod","363","2024212","0.0-363.0","76000","","","","","","triplet","2178.2999999523163","","","","2","stimuli/stim010_animate_face_2.png","stimuli/stim015_inanimate_boats_3.png","stimuli/stim022_inanimate_tools_2.png","352"
"html-button-response-mod","364","2027923","0.0-364.0","76000","","","","","","triplet","3201.7999999523163","","","","0","stimuli/stim013_inanimate_boats_1.png","stimuli/stim003_animate_fish_3.png","stimuli/tools_uppercase.png","353"
"html-button-response-mod","365","2030025","0.0-365.0","76000","","","","","","triplet","1591.2000000476837","","","","0","stimuli/stim019_inanimate_tree_3.png","stimuli/stim008_animate_bird_4.png","stimuli/stim001_animate_fish_1.png","354"
"html-button-response-mod","366","2031976","0.0-366.0","76000","","","","","","triplet","1445.7999999523163","","","","1","stimuli/stim003_animate_fish_3.png","stimuli/bird_lowercase.png","stimuli/stim008_animate_bird_4.png","355"
"html-button-response-mod","367","2035519","0.0-367.0","76000","","","","","","triplet","3033.9000000953674","","","","1","stimuli/stim010_animate_face_2.png","stimuli/stim008_animate_bird_4.png","stimuli/face_lowercase.png","356"
"html-button-response-mod","368","2038691","0.0-368.0","76000","","","","","","triplet","2663.7000000476837","","","","0","stimuli/stim009_animate_face_1.png","stimuli/boats_uppercase.png","stimuli/tools_uppercase.png","357"
"html-button-response-mod","369","2042125","0.0-369.0","76000","","","","","","triplet","2924.5999999046326","","","","2","stimuli/stim003_animate_fish_3.png","stimuli/stim014_inanimate_boats_2.png","stimuli/stim010_animate_face_2.png","358"
"html-button-response-mod","370","2044492","0.0-370.0","76000","","","","","","triplet","1857.5999999046326","","","","1","stimuli/stim005_animate_bird_1.png","stimuli/stim023_inanimate_tools_3.png","stimuli/tree_lowercase.png","359"
"html-button-response-mod","371","2046674","0.0-371.0","76000","","","","","","triplet","1671.8999999761581","","","","1","stimuli/boats_lowercase.png","stimuli/stim024_inanimate_tools_4.png","stimuli/tree_lowercase.png","360"
"html-button-response-mod","372","2048776","0.0-372.0","76000","","","","","","triplet","1590.7999999523163","","","","0","stimuli/stim016_inanimate_boats_4.png","stimuli/tree_uppercase.png","stimuli/bird_uppercase.png","361"
"html-button-response-mod","373","2051126","0.0-373.0","76000","","","","","","triplet","1840.7999999523163","","","","1","stimuli/stim005_animate_bird_1.png","stimuli/stim018_inanimate_tree_2.png","stimuli/bird_lowercase.png","362"
"html-button-response-mod","374","2053374","0.0-374.0","76000","","","","","","triplet","1738","","","","0","stimuli/stim021_inanimate_tools_1.png","stimuli/stim010_animate_face_2.png","stimuli/bird_lowercase.png","363"
"html-button-response-mod","375","2054893","0.0-375.0","76000","","","","","","triplet","1009.1000000238419","","","","1","stimuli/stim006_animate_bird_2.png","stimuli/stim010_animate_face_2.png","stimuli/stim002_animate_fish_2.png","364"
"html-button-response-mod","376","2056776","0.0-376.0","76000","","","","","","triplet","1374.1999999284744","","","","0","stimuli/stim003_animate_fish_3.png","stimuli/stim014_inanimate_boats_2.png","stimuli/boats_uppercase.png","365"
"html-button-response-mod","377","2058410","0.0-377.0","76000","","","","","","triplet","1125.7999999523163","","","","2","stimuli/stim001_animate_fish_1.png","stimuli/stim004_animate_fish_4.png","stimuli/tree_uppercase.png","366"
"html-button-response-mod","378","2060609","0.0-378.0","76000","","","","","","triplet","1688.3000000715256","","","","0","stimuli/stim015_inanimate_boats_3.png","stimuli/tools_uppercase.png","stimuli/bird_uppercase.png","367"
"html-button-response-mod","379","2062508","0.0-379.0","76000","","","","","","triplet","1389.1000000238419","","","","2","stimuli/stim016_inanimate_boats_4.png","stimuli/stim015_inanimate_boats_3.png","stimuli/fish_lowercase.png","368"
"html-button-response-mod","380","2066489","0.0-380.0","76000","","","","","","triplet","3474.5","","","","1","stimuli/stim007_animate_bird_3.png","stimuli/face_lowercase.png","stimuli/tree_lowercase.png","369"
"html-button-response-mod","381","2070291","0.0-381.0","76000","","","","","","triplet","3296.3000000715256","","","","2","stimuli/stim002_animate_fish_2.png","stimuli/tree_uppercase.png","stimuli/tools_lowercase.png","370"
"html-button-response-mod","382","2072274","0.0-382.0","76000","","","","","","triplet","1476.2999999523163","","","","2","stimuli/stim018_inanimate_tree_2.png","stimuli/tree_uppercase.png","stimuli/stim011_animate_face_3.png","371"
"html-button-response-mod","383","2074141","0.0-383.0","76000","","","","","","triplet","1360.6999999284744","","","","2","stimuli/tools_uppercase.png","stimuli/fish_uppercase.png","stimuli/stim019_inanimate_tree_3.png","372"
"html-button-response-mod","384","2076861","0.0-384.0","76000","","","","","","triplet","2214.8000000715256","","","","0","stimuli/stim023_inanimate_tools_3.png","stimuli/stim014_inanimate_boats_2.png","stimuli/stim019_inanimate_tree_3.png","373"
"html-button-response-mod","385","2078992","0.0-385.0","76000","","","","","","triplet","1626.2000000476837","","","","2","stimuli/stim003_animate_fish_3.png","stimuli/stim005_animate_bird_1.png","stimuli/stim022_inanimate_tools_2.png","374"
"html-button-response-mod","386","2081208","0.0-386.0","76000","","","","","","triplet","1706.7000000476837","","","","0","stimuli/stim010_animate_face_2.png","stimuli/stim012_animate_face_4.png","stimuli/stim011_animate_face_3.png","375"
"html-button-response-mod","387","2084622","0.0-387.0","76000","","","","","","triplet","2911","","","","0","stimuli/stim012_animate_face_4.png","stimuli/stim008_animate_bird_4.png","stimuli/bird_uppercase.png","376"
"html-button-response-mod","388","2088308","0.0-388.0","76000","","","","","","triplet","3175.899999976158","","","","0","stimuli/boats_lowercase.png","stimuli/fish_uppercase.png","stimuli/tree_uppercase.png","377"
"html-button-response-mod","389","2091924","0.0-389.0","76000","","","","","","triplet","3109.2999999523163","","","","1","stimuli/bird_lowercase.png","stimuli/stim021_inanimate_tools_1.png","stimuli/face_lowercase.png","378"
"html-button-response-mod","390","2094208","0.0-390.0","76000","","","","","","triplet","1774.5999999046326","","","","1","stimuli/bird_uppercase.png","stimuli/stim022_inanimate_tools_2.png","stimuli/stim017_inanimate_tree_1.png","379"
"html-button-response-mod","391","2100791","0.0-391.0","76000","","","","","","triplet","6077.5","","","","0","stimuli/tree_lowercase.png","stimuli/fish_lowercase.png","stimuli/bird_lowercase.png","380"
"html-button-response-mod","392","2102575","0.0-392.0","76000","","","","","","triplet","1276.7000000476837","","","","1","stimuli/face_uppercase.png","stimuli/stim013_inanimate_boats_1.png","stimuli/tree_uppercase.png","381"
"html-button-response-mod","393","2105392","0.0-393.0","76000","","","","","","triplet","2306.899999976158","","","","2","stimuli/boats_uppercase.png","stimuli/tree_lowercase.png","stimuli/stim021_inanimate_tools_1.png","382"
"html-button-response-mod","394","2107224","0.0-394.0","76000","","","","","","triplet","1321.3999999761581","","","","1","stimuli/stim006_animate_bird_2.png","stimuli/stim022_inanimate_tools_2.png","stimuli/stim020_inanimate_tree_4.png","383"
"html-button-response-mod","395","2110807","0.0-395.0","76000","","","","","","triplet","3072.600000023842","","","","2","stimuli/stim015_inanimate_boats_3.png","stimuli/face_lowercase.png","stimuli/tools_uppercase.png","384"
"html-button-response-mod","396","2113426","0.0-396.0","76000","","","","","","triplet","2112.7999999523163","","","","0","stimuli/tools_uppercase.png","stimuli/stim014_inanimate_boats_2.png","stimuli/stim020_inanimate_tree_4.png","385"
"html-button-response-mod","397","2116324","0.0-397.0","76000","","","","","","triplet","2390.5","","","","2","stimuli/fish_lowercase.png","stimuli/stim009_animate_face_1.png","stimuli/tree_lowercase.png","386"
"html-button-response-mod","398","2119524","0.0-398.0","76000","","","","","","triplet","2690.2999999523163","","","","0","stimuli/stim021_inanimate_tools_1.png","stimuli/stim004_animate_fish_4.png","stimuli/stim008_animate_bird_4.png","387"
"html-button-response-mod","399","2123075","0.0-399.0","76000","","","","","","triplet","3043.5","","","","2","stimuli/fish_lowercase.png","stimuli/face_lowercase.png","stimuli/stim007_animate_bird_3.png","388"
"html-button-response-mod","400","2126307","0.0-400.0","76000","","","","","","triplet","2723.399999976158","","","","1","stimuli/stim011_animate_face_3.png","stimuli/stim019_inanimate_tree_3.png","stimuli/stim007_animate_bird_3.png","389"
"html-button-response-mod","401","2129606","0.0-401.0","76000","","","","","","triplet","2789.399999976158","","","","0","stimuli/stim024_inanimate_tools_4.png","stimuli/tree_lowercase.png","stimuli/stim004_animate_fish_4.png","390"
"html-button-response-mod","402","2131557","0.0-402.0","76000","","","","","","triplet","1440.9000000953674","","","","1","stimuli/tools_lowercase.png","stimuli/stim016_inanimate_boats_4.png","stimuli/stim022_inanimate_tools_2.png","391"
"html-button-response-mod","403","2133708","0.0-403.0","76000","","","","","","triplet","1639.6000000238419","","","","0","stimuli/fish_uppercase.png","stimuli/stim013_inanimate_boats_1.png","stimuli/stim016_inanimate_boats_4.png","392"
"html-button-response-mod","404","2137623","0.0-404.0","76000","","","","","","triplet","3404.5999999046326","","","","1","stimuli/stim002_animate_fish_2.png","stimuli/stim019_inanimate_tree_3.png","stimuli/stim012_animate_face_4.png","393"
"html-button-response-mod","405","2139725","0.0-405.0","76000","","","","","","triplet","1590.6999999284744","","","","0","stimuli/stim020_inanimate_tree_4.png","stimuli/face_lowercase.png","stimuli/face_uppercase.png","394"
"html-button-response-mod","406","2142023","0.0-406.0","76000","","","","","","triplet","1787.7000000476837","","","","2","stimuli/stim014_inanimate_boats_2.png","stimuli/stim016_inanimate_boats_4.png","stimuli/stim004_animate_fish_4.png","395"
"html-button-response-mod","407","2145557","0.0-407.0","76000","","","","","","triplet","3027.2000000476837","","","","0","stimuli/boats_uppercase.png","stimuli/tree_uppercase.png","stimuli/face_uppercase.png","396"
"html-button-response-mod","408","2147190","0.0-408.0","76000","","","","","","triplet","1123.6999999284744","","","","0","stimuli/stim004_animate_fish_4.png","stimuli/stim015_inanimate_boats_3.png","stimuli/stim013_inanimate_boats_1.png","397"
"html-button-response-mod","409","2148673","0.0-409.0","76000","","","","","","triplet","975","","","","0","stimuli/stim012_animate_face_4.png","stimuli/stim017_inanimate_tree_1.png","stimuli/stim005_animate_bird_1.png","398"
"html-button-response-mod","410","2150792","0.0-410.0","76000","","","","","","triplet","1612","","","","1","stimuli/stim019_inanimate_tree_3.png","stimuli/tools_lowercase.png","stimuli/stim013_inanimate_boats_1.png","399"
"html-button-response","411","2152658","0.0-411.0","76000","","","","","","break","1355.7000000476837","<p>BREAK</p><p>Take a break for as long as you need</p><p>Click the button to continue</p>","0","","","","","",""
"survey-text","412","2304240","0.0-412.0","76000","","","","","","data_patterns","151572.60000002384","","{""Q0"":""if there were two living organisms i would tend to pick the tool or boat or whatever wasnt alive\n\nif tree and bird plus something ealse, birds live in trees so i pick the something else \n\nsometimes the face and fish word pictures looked as though they were written similarly so the picture would be chosen instead\n\ntree might be related to boat because boat is made of wood so the other option would be chosen unless there was a fish and in that case i would choose the tree since boats and fishes stay in the ocean. ""}","","","","","",""
"survey-text","413","2307387","0.0-413.0","76000","","","","","","age_question","3143.899999976158","","{""Age"":""19""}","","","","","",""
"html-button-response","414","2310003","0.0-414.0","76000","","","","","","gender_question","2613.7000000476837","How would you like your gender to be recorded?","0","","","","","",""
