"trial_type","trial_index","time_elapsed","internal_node_id","subject","success","timeout","failed_images","failed_audio","failed_video","test_part","rt","stimulus","response","end_time","button_pressed","stim0","stim1","stim2","trialnr"
"pavlovia","0","29","0.0-0.0","74181","","","","","","","","","","","","","","",""
"preload","1","1967","0.0-1.0","74181","true","false","[]","[]","[]","preload","","","","","","","","",""
"html-button-response","2","19333","0.0-2.0","74181","","","","","","","17362.399999976158","<p>Welcome to the experiment. To begin, please read the following and press the button at the bottom of the screen.</p><p></p><p><strong>Project Name: A study on cognitive processes involved in visual perception</p></strong><p></p><p><strong>PARTICIPANT INFORMATION STATEMENT</strong></p><p></p><strong>(1) What is the study about?</strong><br>You are invited to participate in a study that investigates the cognitive processes involved in perceiving and recognizing visual stimuli.If you decide to participate, you will be asked to complete a task in which you will view pictures, letters, numbers, or words presented on a computer screen.<br><strong>(2) Who can participate?</strong><br>Anyone aged 18 years or over with access to a computer (not a phone/tablet)<br><strong>(3) Where is the study located?</strong><br>The study will be conducted in your browser<br><strong>(4) Who is carrying out the study?</strong><br>The study is being conducted by Sophia Shatek from the Computational Cognitive Neuroscience laboratory at the University of Sydney.<br><strong>(5) What does the study involve?</strong><br>In this study, you will be asked to perform tasks where you will see different stimuli appear on the computer screen.You will respond by pressing a key or using a computer mouse.<br><strong>(6) How much time will the study take?</strong><br>The study takes about 30 minutes<br><strong>(7)	Can I withdraw from the study?</strong><br>Being in this study is completely voluntary - you are not under any obligation to consent. You can withdraw at any time without having to give a reason and without penalty.<br><strong>(8) Will anyone else know the results?</strong><br>All aspects of the study, including results, will be strictly confidential and only the researchers will have access to information on participants.The results and data from the study may be submitted for publication or shared with other research labs, but individual participants will not be identifiable.<br><strong>(9) Will the study benefit me?</strong><br>You will be awarded 0.5 credits for your participation.<br><strong>(10) Can I tell other people about the study?</strong><br>Yes, please tell them to contact Dr Thomas Carlson by email at thomas.carlson@sydney.edu.au.<br><strong>(11) What if I require further information about the study or my involvement in it?</strong><br>When you have read this information, the investigator will discuss it with you further and answer any questions you may have.If you would like to know more at any stage, please feel free to contact Dr Thomas Carlson directly by email at thomas.carlson@sydney.edu.au.If you would like to be informed about the outcomes of the study, contact Dr Thomas Carlson directly by email at thomas.carlson@sydney.edu.au.<br><strong>(12) What if I have a complaint or any concerns?</strong><br>Any person with concerns or complaints about the conduct of a research study can contact The Manager,Human Ethics Administration, University of Sydney on +61 2 8627 8176 (Telephone); +61 2 8627 8177 (Facsimile) or ro.humanethics@sydney.edu.au (Email).</p><p></p><strong>By participating in this experiment, you consent to participate in this study and acknowledge that:</strong><br>1. The procedures required for the project and the times involved have been explained to me, and any questions I have about the project have been answered to my satisfaction.<br>2.	I have read the Above Information Statement and have been given the opportunity to discuss the information and my involvement in the project with the researcher/s.<br>3. I understand that allowing my data to be used in research reports is completely voluntary - I am not under any obligation to consent.<br>4. I understand that my involvement is strictly confidential. I understand that any research data gathered from the results of the study may be publishedhowever no information about me will be used in any way that is identifiable.</p><p></p>","0","","","","","",""
"html-button-response","3","25544","0.0-3.0","74181","","","","","","opening_instructions","6205.800000011921","<p>In this experiment, you will see three images appear on the screen.</p><p>You need to click the 'odd one out', or the image </p><p>that LOOKS MOST DIFFERENT to the other two. </p><p>Just go with your intuition, don't spend too long thinking about each one.</p>","0","29383.599999964237","","","","",""
"html-button-response-mod","4","27356","0.0-4.0","74181","","","","","","triplet","1809.0999999642372","","","","1","stimuli/stim016_inanimate_boats_4.png","stimuli/tools_uppercase.png","stimuli/stim004_animate_fish_4.png","0"
"html-button-response-mod","5","30881","0.0-5.0","74181","","","","","","triplet","3021.300000011921","","","","0","stimuli/stim019_inanimate_tree_3.png","stimuli/stim011_animate_face_3.png","stimuli/stim010_animate_face_2.png","1"
"html-button-response-mod","6","32347","0.0-6.0","74181","","","","","","triplet","963.3000000119209","","","","0","stimuli/stim014_inanimate_boats_2.png","stimuli/stim011_animate_face_3.png","stimuli/stim009_animate_face_1.png","2"
"html-button-response-mod","7","33536","0.0-7.0","74181","","","","","","triplet","684.5","","","","0","stimuli/boats_uppercase.png","stimuli/stim016_inanimate_boats_4.png","stimuli/stim019_inanimate_tree_3.png","3"
"html-button-response-mod","8","38089","0.0-8.0","74181","","","","","","triplet","4047.199999988079","","","","0","stimuli/stim024_inanimate_tools_4.png","stimuli/stim014_inanimate_boats_2.png","stimuli/stim019_inanimate_tree_3.png","4"
"html-button-response-mod","9","40132","0.0-9.0","74181","","","","","","triplet","1538.8999999761581","","","","2","stimuli/stim001_animate_fish_1.png","stimuli/stim007_animate_bird_3.png","stimuli/stim012_animate_face_4.png","5"
"html-button-response-mod","10","42282","0.0-10.0","74181","","","","","","triplet","1645.5","","","","2","stimuli/stim003_animate_fish_3.png","stimuli/stim002_animate_fish_2.png","stimuli/tools_lowercase.png","6"
"html-button-response-mod","11","45468","0.0-11.0","74181","","","","","","triplet","2682.900000035763","","","","2","stimuli/stim017_inanimate_tree_1.png","stimuli/stim001_animate_fish_1.png","stimuli/tree_uppercase.png","7"
"html-button-response-mod","12","50329","0.0-12.0","74181","","","","","","triplet","4357.199999988079","","","","2","stimuli/stim017_inanimate_tree_1.png","stimuli/stim013_inanimate_boats_1.png","stimuli/bird_uppercase.png","8"
"html-button-response-mod","13","52136","0.0-13.0","74181","","","","","","triplet","1304.800000011921","","","","2","stimuli/bird_uppercase.png","stimuli/boats_lowercase.png","stimuli/stim014_inanimate_boats_2.png","9"
"html-button-response-mod","14","54718","0.0-14.0","74181","","","","","","triplet","2076.7000000476837","","","","0","stimuli/stim007_animate_bird_3.png","stimuli/boats_uppercase.png","stimuli/tree_lowercase.png","10"
"html-button-response-mod","15","57033","0.0-15.0","74181","","","","","","triplet","1807.6000000238419","","","","2","stimuli/tools_lowercase.png","stimuli/bird_lowercase.png","stimuli/stim010_animate_face_2.png","11"
"html-button-response-mod","16","58918","0.0-16.0","74181","","","","","","triplet","1382.5","","","","2","stimuli/stim003_animate_fish_3.png","stimuli/stim005_animate_bird_1.png","stimuli/face_lowercase.png","12"
"html-button-response-mod","17","60496","0.0-17.0","74181","","","","","","triplet","1073.5999999642372","","","","2","stimuli/stim007_animate_bird_3.png","stimuli/stim017_inanimate_tree_1.png","stimuli/stim024_inanimate_tools_4.png","13"
"html-button-response-mod","18","62002","0.0-18.0","74181","","","","","","triplet","1003.5","","","","2","stimuli/stim023_inanimate_tools_3.png","stimuli/stim021_inanimate_tools_1.png","stimuli/bird_uppercase.png","14"
"html-button-response-mod","19","64225","0.0-19.0","74181","","","","","","triplet","1718.300000011921","","","","2","stimuli/stim017_inanimate_tree_1.png","stimuli/stim016_inanimate_boats_4.png","stimuli/stim022_inanimate_tools_2.png","15"
"html-button-response-mod","20","65730","0.0-20.0","74181","","","","","","triplet","1002.3000000119209","","","","0","stimuli/tree_lowercase.png","stimuli/stim015_inanimate_boats_3.png","stimuli/stim018_inanimate_tree_2.png","16"
"html-button-response-mod","21","68346","0.0-21.0","74181","","","","","","triplet","2110.2999999523163","","","","0","stimuli/stim021_inanimate_tools_1.png","stimuli/stim020_inanimate_tree_4.png","stimuli/stim008_animate_bird_4.png","17"
"html-button-response-mod","22","69914","0.0-22.0","74181","","","","","","triplet","1064.7000000476837","","","","2","stimuli/boats_lowercase.png","stimuli/tree_uppercase.png","stimuli/stim001_animate_fish_1.png","18"
"html-button-response-mod","23","73906","0.0-23.0","74181","","","","","","triplet","3488.599999964237","","","","2","stimuli/stim019_inanimate_tree_3.png","stimuli/stim011_animate_face_3.png","stimuli/stim024_inanimate_tools_4.png","19"
"html-button-response-mod","24","75647","0.0-24.0","74181","","","","","","triplet","1235.8999999761581","","","","1","stimuli/stim019_inanimate_tree_3.png","stimuli/bird_uppercase.png","stimuli/stim002_animate_fish_2.png","20"
"html-button-response-mod","25","77810","0.0-25.0","74181","","","","","","triplet","1657.300000011921","","","","2","stimuli/stim021_inanimate_tools_1.png","stimuli/stim004_animate_fish_4.png","stimuli/face_uppercase.png","21"
"html-button-response-mod","26","79911","0.0-26.0","74181","","","","","","triplet","1598.0999999642372","","","","1","stimuli/stim018_inanimate_tree_2.png","stimuli/stim024_inanimate_tools_4.png","stimuli/stim007_animate_bird_3.png","22"
"html-button-response-mod","27","81280","0.0-27.0","74181","","","","","","triplet","866.6000000238419","","","","0","stimuli/tree_lowercase.png","stimuli/stim024_inanimate_tools_4.png","stimuli/stim002_animate_fish_2.png","23"
"html-button-response-mod","28","83122","0.0-28.0","74181","","","","","","triplet","1338.5","","","","1","stimuli/stim008_animate_bird_4.png","stimuli/tools_uppercase.png","stimuli/stim002_animate_fish_2.png","24"
"html-button-response-mod","29","84110","0.0-29.0","74181","","","","","","triplet","486.30000001192093","","","","1","stimuli/stim023_inanimate_tools_3.png","stimuli/tools_uppercase.png","stimuli/stim009_animate_face_1.png","25"
"html-button-response-mod","30","85479","0.0-30.0","74181","","","","","","triplet","862.9000000357628","","","","2","stimuli/stim012_animate_face_4.png","stimuli/stim018_inanimate_tree_2.png","stimuli/boats_uppercase.png","26"
"html-button-response-mod","31","86728","0.0-31.0","74181","","","","","","triplet","746.8000000119209","","","","2","stimuli/stim023_inanimate_tools_3.png","stimuli/stim004_animate_fish_4.png","stimuli/boats_uppercase.png","27"
"html-button-response-mod","32","105797","0.0-32.0","74181","","","","","","triplet","18562.399999976158","","","","0","stimuli/stim022_inanimate_tools_2.png","stimuli/stim016_inanimate_boats_4.png","stimuli/stim003_animate_fish_3.png","28"
"html-button-response-mod","33","113366","0.0-33.0","74181","","","","","","triplet","7062.200000047684","","","","1","stimuli/stim024_inanimate_tools_4.png","stimuli/stim012_animate_face_4.png","stimuli/stim021_inanimate_tools_1.png","29"
"html-button-response-mod","34","114773","0.0-34.0","74181","","","","","","triplet","904.6999999880791","","","","2","stimuli/stim006_animate_bird_2.png","stimuli/stim016_inanimate_boats_4.png","stimuli/tree_lowercase.png","30"
"html-button-response-mod","35","117660","0.0-35.0","74181","","","","","","triplet","2380.5","","","","1","stimuli/stim009_animate_face_1.png","stimuli/stim023_inanimate_tools_3.png","stimuli/stim001_animate_fish_1.png","31"
"html-button-response-mod","36","133845","0.0-36.0","74181","","","","","","triplet","15680.199999988079","","","","1","stimuli/stim019_inanimate_tree_3.png","stimuli/stim021_inanimate_tools_1.png","stimuli/stim010_animate_face_2.png","32"
"html-button-response-mod","37","135362","0.0-37.0","74181","","","","","","triplet","1013.1000000238419","","","","0","stimuli/tree_uppercase.png","stimuli/stim018_inanimate_tree_2.png","stimuli/stim012_animate_face_4.png","33"
"html-button-response-mod","38","136691","0.0-38.0","74181","","","","","","triplet","827","","","","2","stimuli/stim018_inanimate_tree_2.png","stimuli/stim020_inanimate_tree_4.png","stimuli/tree_uppercase.png","34"
"html-button-response-mod","39","138337","0.0-39.0","74181","","","","","","triplet","1143.3999999761581","","","","1","stimuli/fish_uppercase.png","stimuli/stim020_inanimate_tree_4.png","stimuli/boats_lowercase.png","35"
"html-button-response-mod","40","140235","0.0-40.0","74181","","","","","","triplet","1393","","","","2","stimuli/stim019_inanimate_tree_3.png","stimuli/stim011_animate_face_3.png","stimuli/stim016_inanimate_boats_4.png","36"
"html-button-response-mod","41","141924","0.0-41.0","74181","","","","","","triplet","1184.300000011921","","","","2","stimuli/fish_lowercase.png","stimuli/boats_lowercase.png","stimuli/stim008_animate_bird_4.png","37"
"html-button-response-mod","42","143500","0.0-42.0","74181","","","","","","triplet","1070.199999988079","","","","0","stimuli/tree_uppercase.png","stimuli/stim010_animate_face_2.png","stimuli/stim008_animate_bird_4.png","38"
"html-button-response-mod","43","147833","0.0-43.0","74181","","","","","","triplet","3831.399999976158","","","","2","stimuli/stim010_animate_face_2.png","stimuli/stim011_animate_face_3.png","stimuli/stim021_inanimate_tools_1.png","39"
"html-button-response-mod","44","149258","0.0-44.0","74181","","","","","","triplet","918","","","","1","stimuli/stim005_animate_bird_1.png","stimuli/face_uppercase.png","stimuli/stim011_animate_face_3.png","40"
"html-button-response-mod","45","150933","0.0-45.0","74181","","","","","","triplet","1170.300000011921","","","","1","stimuli/bird_lowercase.png","stimuli/stim010_animate_face_2.png","stimuli/boats_uppercase.png","41"
"html-button-response-mod","46","152417","0.0-46.0","74181","","","","","","triplet","981.5","","","","1","stimuli/boats_uppercase.png","stimuli/stim007_animate_bird_3.png","stimuli/face_lowercase.png","42"
"html-button-response-mod","47","153681","0.0-47.0","74181","","","","","","triplet","761.1000000238419","","","","1","stimuli/stim004_animate_fish_4.png","stimuli/tree_lowercase.png","stimuli/stim008_animate_bird_4.png","43"
"html-button-response-mod","48","155943","0.0-48.0","74181","","","","","","triplet","1757.8999999761581","","","","2","stimuli/stim004_animate_fish_4.png","stimuli/stim003_animate_fish_3.png","stimuli/stim010_animate_face_2.png","44"
"html-button-response-mod","49","157449","0.0-49.0","74181","","","","","","triplet","999.6000000238419","","","","2","stimuli/stim005_animate_bird_1.png","stimuli/stim013_inanimate_boats_1.png","stimuli/tree_lowercase.png","45"
"html-button-response-mod","50","158786","0.0-50.0","74181","","","","","","triplet","832.6000000238419","","","","1","stimuli/stim021_inanimate_tools_1.png","stimuli/face_uppercase.png","stimuli/stim008_animate_bird_4.png","46"
"html-button-response-mod","51","161088","0.0-51.0","74181","","","","","","triplet","1799.300000011921","","","","0","stimuli/stim013_inanimate_boats_1.png","stimuli/stim008_animate_bird_4.png","stimuli/stim007_animate_bird_3.png","47"
"html-button-response-mod","52","164546","0.0-52.0","74181","","","","","","triplet","2956.300000011921","","","","1","stimuli/stim021_inanimate_tools_1.png","stimuli/stim006_animate_bird_2.png","stimuli/stim013_inanimate_boats_1.png","48"
"html-button-response-mod","53","166071","0.0-53.0","74181","","","","","","triplet","1020.5","","","","2","stimuli/fish_uppercase.png","stimuli/fish_lowercase.png","stimuli/stim011_animate_face_3.png","49"
"html-button-response","54","620571","0.0-54.0","74181","","","","","","break","453966.1999999881","<p>BREAK</p><p>Take a break for as long as you need</p><p>Click the button to continue</p>","0","","","","","",""
"html-button-response-mod","55","622388","0.0-55.0","74181","","","","","","triplet","1812.0999999642372","","","","0","stimuli/stim023_inanimate_tools_3.png","stimuli/stim020_inanimate_tree_4.png","stimuli/stim003_animate_fish_3.png","50"
"html-button-response-mod","56","625097","0.0-56.0","74181","","","","","","triplet","2205.5","","","","2","stimuli/stim008_animate_bird_4.png","stimuli/stim001_animate_fish_1.png","stimuli/bird_lowercase.png","51"
"html-button-response-mod","57","627515","0.0-57.0","74181","","","","","","triplet","1913.300000011921","","","","1","stimuli/stim017_inanimate_tree_1.png","stimuli/face_lowercase.png","stimuli/stim016_inanimate_boats_4.png","52"
"html-button-response-mod","58","630008","0.0-58.0","74181","","","","","","triplet","1990.800000011921","","","","0","stimuli/stim007_animate_bird_3.png","stimuli/stim023_inanimate_tools_3.png","stimuli/stim014_inanimate_boats_2.png","53"
"html-button-response-mod","59","631898","0.0-59.0","74181","","","","","","triplet","1384.699999988079","","","","1","stimuli/stim011_animate_face_3.png","stimuli/bird_uppercase.png","stimuli/stim016_inanimate_boats_4.png","54"
"html-button-response-mod","60","634199","0.0-60.0","74181","","","","","","triplet","1798.3999999761581","","","","1","stimuli/stim019_inanimate_tree_3.png","stimuli/stim021_inanimate_tools_1.png","stimuli/stim008_animate_bird_4.png","55"
"html-button-response-mod","61","636023","0.0-61.0","74181","","","","","","triplet","1318.300000011921","","","","2","stimuli/stim016_inanimate_boats_4.png","stimuli/stim005_animate_bird_1.png","stimuli/tools_uppercase.png","56"
"html-button-response-mod","62","637804","0.0-62.0","74181","","","","","","triplet","1277.0999999642372","","","","0","stimuli/stim024_inanimate_tools_4.png","stimuli/stim007_animate_bird_3.png","stimuli/stim006_animate_bird_2.png","57"
"html-button-response-mod","63","639157","0.0-63.0","74181","","","","","","triplet","847.7000000476837","","","","1","stimuli/stim001_animate_fish_1.png","stimuli/tree_uppercase.png","stimuli/stim019_inanimate_tree_3.png","58"
"html-button-response-mod","64","642371","0.0-64.0","74181","","","","","","triplet","2709.5","","","","0","stimuli/stim020_inanimate_tree_4.png","stimuli/fish_uppercase.png","stimuli/tools_uppercase.png","59"
"html-button-response-mod","65","647896","0.0-65.0","74181","","","","","","triplet","5018.199999988079","","","","1","stimuli/stim004_animate_fish_4.png","stimuli/stim011_animate_face_3.png","stimuli/stim003_animate_fish_3.png","60"
"html-button-response-mod","66","657733","0.0-66.0","74181","","","","","","triplet","9334.900000035763","","","","2","stimuli/stim011_animate_face_3.png","stimuli/stim022_inanimate_tools_2.png","stimuli/tools_lowercase.png","61"
"html-button-response-mod","67","659678","0.0-67.0","74181","","","","","","triplet","1439.800000011921","","","","1","stimuli/stim014_inanimate_boats_2.png","stimuli/stim021_inanimate_tools_1.png","stimuli/stim016_inanimate_boats_4.png","62"
"html-button-response-mod","68","661203","0.0-68.0","74181","","","","","","triplet","1020.3999999761581","","","","2","stimuli/stim008_animate_bird_4.png","stimuli/stim001_animate_fish_1.png","stimuli/fish_lowercase.png","63"
"html-button-response-mod","69","663877","0.0-69.0","74181","","","","","","triplet","2167.199999988079","","","","2","stimuli/stim021_inanimate_tools_1.png","stimuli/stim019_inanimate_tree_3.png","stimuli/fish_lowercase.png","64"
"html-button-response-mod","70","665242","0.0-70.0","74181","","","","","","triplet","861.6999999880791","","","","0","stimuli/face_uppercase.png","stimuli/stim017_inanimate_tree_1.png","stimuli/stim022_inanimate_tools_2.png","65"
"html-button-response-mod","71","668401","0.0-71.0","74181","","","","","","triplet","2656.699999988079","","","","0","stimuli/face_lowercase.png","stimuli/stim018_inanimate_tree_2.png","stimuli/stim010_animate_face_2.png","66"
"html-button-response-mod","72","669814","0.0-72.0","74181","","","","","","triplet","910.6000000238419","","","","1","stimuli/fish_uppercase.png","stimuli/stim018_inanimate_tree_2.png","stimuli/bird_uppercase.png","67"
"html-button-response-mod","73","671094","0.0-73.0","74181","","","","","","triplet","775.3000000119209","","","","1","stimuli/stim006_animate_bird_2.png","stimuli/bird_uppercase.png","stimuli/stim002_animate_fish_2.png","68"
"html-button-response-mod","74","672526","0.0-74.0","74181","","","","","","triplet","930","","","","1","stimuli/stim002_animate_fish_2.png","stimuli/stim010_animate_face_2.png","stimuli/stim014_inanimate_boats_2.png","69"
"html-button-response-mod","75","674188","0.0-75.0","74181","","","","","","triplet","1157.800000011921","","","","0","stimuli/stim002_animate_fish_2.png","stimuli/tree_lowercase.png","stimuli/boats_uppercase.png","70"
"html-button-response-mod","76","675485","0.0-76.0","74181","","","","","","triplet","794.6999999880791","","","","2","stimuli/boats_lowercase.png","stimuli/bird_uppercase.png","stimuli/stim016_inanimate_boats_4.png","71"
"html-button-response-mod","77","676796","0.0-77.0","74181","","","","","","triplet","806","","","","0","stimuli/stim011_animate_face_3.png","stimuli/tree_uppercase.png","stimuli/bird_uppercase.png","72"
"html-button-response-mod","78","681044","0.0-78.0","74181","","","","","","triplet","3742","","","","2","stimuli/stim010_animate_face_2.png","stimuli/stim003_animate_fish_3.png","stimuli/stim015_inanimate_boats_3.png","73"
"html-button-response-mod","79","682867","0.0-79.0","74181","","","","","","triplet","1319.9000000357628","","","","2","stimuli/stim022_inanimate_tools_2.png","stimuli/stim013_inanimate_boats_1.png","stimuli/stim002_animate_fish_2.png","74"
"html-button-response-mod","80","684307","0.0-80.0","74181","","","","","","triplet","936.5999999642372","","","","1","stimuli/tools_uppercase.png","stimuli/stim020_inanimate_tree_4.png","stimuli/boats_uppercase.png","75"
"html-button-response-mod","81","685619","0.0-81.0","74181","","","","","","triplet","810.5999999642372","","","","0","stimuli/bird_lowercase.png","stimuli/stim006_animate_bird_2.png","stimuli/stim012_animate_face_4.png","76"
"html-button-response-mod","82","690032","0.0-82.0","74181","","","","","","triplet","3910.2000000476837","","","","0","stimuli/stim015_inanimate_boats_3.png","stimuli/boats_uppercase.png","stimuli/fish_uppercase.png","77"
"html-button-response-mod","83","691510","0.0-83.0","74181","","","","","","triplet","971.4000000357628","","","","2","stimuli/stim013_inanimate_boats_1.png","stimuli/stim004_animate_fish_4.png","stimuli/boats_uppercase.png","78"
"html-button-response-mod","84","693352","0.0-84.0","74181","","","","","","triplet","1340.1000000238419","","","","1","stimuli/stim023_inanimate_tools_3.png","stimuli/stim004_animate_fish_4.png","stimuli/stim021_inanimate_tools_1.png","79"
"html-button-response-mod","85","698632","0.0-85.0","74181","","","","","","triplet","4777.100000023842","","","","1","stimuli/stim012_animate_face_4.png","stimuli/stim022_inanimate_tools_2.png","stimuli/stim017_inanimate_tree_1.png","80"
"html-button-response-mod","86","700909","0.0-86.0","74181","","","","","","triplet","1773.699999988079","","","","0","stimuli/tree_lowercase.png","stimuli/stim012_animate_face_4.png","stimuli/stim021_inanimate_tools_1.png","81"
"html-button-response-mod","87","707523","0.0-87.0","74181","","","","","","triplet","6111.400000035763","","","","2","stimuli/stim019_inanimate_tree_3.png","stimuli/stim002_animate_fish_2.png","stimuli/stim023_inanimate_tools_3.png","82"
"html-button-response-mod","88","712161","0.0-88.0","74181","","","","","","triplet","4131.699999988079","","","","1","stimuli/stim015_inanimate_boats_3.png","stimuli/stim006_animate_bird_2.png","stimuli/stim016_inanimate_boats_4.png","83"
"html-button-response-mod","89","714451","0.0-89.0","74181","","","","","","triplet","1782.8999999761581","","","","1","stimuli/stim011_animate_face_3.png","stimuli/stim014_inanimate_boats_2.png","stimuli/stim018_inanimate_tree_2.png","84"
"html-button-response-mod","90","716231","0.0-90.0","74181","","","","","","triplet","1276.1000000238419","","","","1","stimuli/stim012_animate_face_4.png","stimuli/tree_uppercase.png","stimuli/stim011_animate_face_3.png","85"
"html-button-response-mod","91","717488","0.0-91.0","74181","","","","","","triplet","751.2999999523163","","","","1","stimuli/stim015_inanimate_boats_3.png","stimuli/boats_uppercase.png","stimuli/stim016_inanimate_boats_4.png","86"
"html-button-response-mod","92","719570","0.0-92.0","74181","","","","","","triplet","1578.5999999642372","","","","0","stimuli/stim022_inanimate_tools_2.png","stimuli/tree_uppercase.png","stimuli/boats_uppercase.png","87"
"html-button-response-mod","93","721189","0.0-93.0","74181","","","","","","triplet","1114.2999999523163","","","","0","stimuli/boats_uppercase.png","stimuli/stim023_inanimate_tools_3.png","stimuli/stim017_inanimate_tree_1.png","88"
"html-button-response-mod","94","722655","0.0-94.0","74181","","","","","","triplet","959.9000000357628","","","","1","stimuli/tools_uppercase.png","stimuli/stim024_inanimate_tools_4.png","stimuli/fish_lowercase.png","89"
"html-button-response-mod","95","724507","0.0-95.0","74181","","","","","","triplet","1349.8999999761581","","","","2","stimuli/stim013_inanimate_boats_1.png","stimuli/stim003_animate_fish_3.png","stimuli/bird_lowercase.png","90"
"html-button-response-mod","96","729610","0.0-96.0","74181","","","","","","triplet","4600.100000023842","","","","0","stimuli/fish_lowercase.png","stimuli/tools_lowercase.png","stimuli/boats_lowercase.png","91"
"html-button-response-mod","97","732043","0.0-97.0","74181","","","","","","triplet","1930.8999999761581","","","","0","stimuli/bird_uppercase.png","stimuli/stim015_inanimate_boats_3.png","stimuli/stim007_animate_bird_3.png","92"
"html-button-response-mod","98","733543","0.0-98.0","74181","","","","","","triplet","998.3000000119209","","","","2","stimuli/stim022_inanimate_tools_2.png","stimuli/stim016_inanimate_boats_4.png","stimuli/face_uppercase.png","93"
"html-button-response-mod","99","739289","0.0-99.0","74181","","","","","","triplet","5240.799999952316","","","","2","stimuli/stim011_animate_face_3.png","stimuli/stim015_inanimate_boats_3.png","stimuli/tools_lowercase.png","94"
"html-button-response-mod","100","741177","0.0-100.0","74181","","","","","","triplet","1382.199999988079","","","","0","stimuli/stim004_animate_fish_4.png","stimuli/bird_lowercase.png","stimuli/face_uppercase.png","95"
"html-button-response-mod","101","745731","0.0-101.0","74181","","","","","","triplet","4048.800000011921","","","","2","stimuli/stim017_inanimate_tree_1.png","stimuli/stim006_animate_bird_2.png","stimuli/stim023_inanimate_tools_3.png","96"
"html-button-response-mod","102","750673","0.0-102.0","74181","","","","","","triplet","4439.899999976158","","","","0","stimuli/stim016_inanimate_boats_4.png","stimuli/face_lowercase.png","stimuli/tools_uppercase.png","97"
"html-button-response-mod","103","752089","0.0-103.0","74181","","","","","","triplet","913.7999999523163","","","","2","stimuli/stim017_inanimate_tree_1.png","stimuli/stim004_animate_fish_4.png","stimuli/fish_uppercase.png","98"
"html-button-response-mod","104","753670","0.0-104.0","74181","","","","","","triplet","1074.5999999642372","","","","1","stimuli/tools_lowercase.png","stimuli/stim024_inanimate_tools_4.png","stimuli/boats_uppercase.png","99"
"html-button-response","105","825239","0.0-105.0","74181","","","","","","break","71061.39999997616","<p>BREAK</p><p>Take a break for as long as you need</p><p>Click the button to continue</p>","0","","","","","",""
"html-button-response-mod","106","826247","0.0-106.0","74181","","","","","","triplet","1006.1999999880791","","","","0","stimuli/stim019_inanimate_tree_3.png","stimuli/fish_lowercase.png","stimuli/boats_uppercase.png","100"
"html-button-response-mod","107","827592","0.0-107.0","74181","","","","","","triplet","841.8000000119209","","","","0","stimuli/fish_lowercase.png","stimuli/stim024_inanimate_tools_4.png","stimuli/stim017_inanimate_tree_1.png","101"
"html-button-response-mod","108","828748","0.0-108.0","74181","","","","","","triplet","653.5","","","","1","stimuli/stim005_animate_bird_1.png","stimuli/boats_uppercase.png","stimuli/stim016_inanimate_boats_4.png","102"
"html-button-response-mod","109","830085","0.0-109.0","74181","","","","","","triplet","834.3000000119209","","","","1","stimuli/stim021_inanimate_tools_1.png","stimuli/face_lowercase.png","stimuli/stim013_inanimate_boats_1.png","103"
"html-button-response-mod","110","831470","0.0-110.0","74181","","","","","","triplet","882.0999999642372","","","","0","stimuli/face_uppercase.png","stimuli/stim004_animate_fish_4.png","stimuli/stim002_animate_fish_2.png","104"
"html-button-response-mod","111","833747","0.0-111.0","74181","","","","","","triplet","1771.5","","","","1","stimuli/stim018_inanimate_tree_2.png","stimuli/tools_uppercase.png","stimuli/stim023_inanimate_tools_3.png","105"
"html-button-response-mod","112","836360","0.0-112.0","74181","","","","","","triplet","2109.199999988079","","","","0","stimuli/stim017_inanimate_tree_1.png","stimuli/fish_uppercase.png","stimuli/bird_lowercase.png","106"
"html-button-response-mod","113","839298","0.0-113.0","74181","","","","","","triplet","2434.600000023842","","","","0","stimuli/stim006_animate_bird_2.png","stimuli/bird_lowercase.png","stimuli/face_lowercase.png","107"
"html-button-response-mod","114","840615","0.0-114.0","74181","","","","","","triplet","813.9000000357628","","","","0","stimuli/stim022_inanimate_tools_2.png","stimuli/boats_lowercase.png","stimuli/face_lowercase.png","108"
"html-button-response-mod","115","843433","0.0-115.0","74181","","","","","","triplet","2314.399999976158","","","","0","stimuli/stim015_inanimate_boats_3.png","stimuli/stim005_animate_bird_1.png","stimuli/stim002_animate_fish_2.png","109"
"html-button-response-mod","116","845035","0.0-116.0","74181","","","","","","triplet","1099.3999999761581","","","","2","stimuli/fish_lowercase.png","stimuli/fish_uppercase.png","stimuli/stim018_inanimate_tree_2.png","110"
"html-button-response-mod","117","846508","0.0-117.0","74181","","","","","","triplet","968.0999999642372","","","","2","stimuli/stim007_animate_bird_3.png","stimuli/stim003_animate_fish_3.png","stimuli/boats_uppercase.png","111"
"html-button-response-mod","118","848077","0.0-118.0","74181","","","","","","triplet","1066.6000000238419","","","","1","stimuli/stim014_inanimate_boats_2.png","stimuli/tools_lowercase.png","stimuli/stim017_inanimate_tree_1.png","112"
"html-button-response-mod","119","849946","0.0-119.0","74181","","","","","","triplet","1362.300000011921","","","","2","stimuli/stim019_inanimate_tree_3.png","stimuli/stim023_inanimate_tools_3.png","stimuli/boats_lowercase.png","113"
"html-button-response-mod","120","851250","0.0-120.0","74181","","","","","","triplet","801.1000000238419","","","","0","stimuli/bird_lowercase.png","stimuli/stim017_inanimate_tree_1.png","stimuli/stim001_animate_fish_1.png","114"
"html-button-response-mod","121","852628","0.0-121.0","74181","","","","","","triplet","872.0999999642372","","","","2","stimuli/boats_lowercase.png","stimuli/bird_lowercase.png","stimuli/stim012_animate_face_4.png","115"
"html-button-response-mod","122","853968","0.0-122.0","74181","","","","","","triplet","838.5","","","","2","stimuli/bird_lowercase.png","stimuli/tree_uppercase.png","stimuli/stim002_animate_fish_2.png","116"
"html-button-response-mod","123","855961","0.0-123.0","74181","","","","","","triplet","1490.5","","","","2","stimuli/tree_uppercase.png","stimuli/bird_lowercase.png","stimuli/stim010_animate_face_2.png","117"
"html-button-response-mod","124","857950","0.0-124.0","74181","","","","","","triplet","1487.3999999761581","","","","2","stimuli/stim018_inanimate_tree_2.png","stimuli/stim023_inanimate_tools_3.png","stimuli/tree_uppercase.png","118"
"html-button-response-mod","125","859351","0.0-125.0","74181","","","","","","triplet","898.2000000476837","","","","0","stimuli/stim009_animate_face_1.png","stimuli/stim020_inanimate_tree_4.png","stimuli/stim017_inanimate_tree_1.png","119"
"html-button-response-mod","126","861012","0.0-126.0","74181","","","","","","triplet","1155.300000011921","","","","1","stimuli/fish_uppercase.png","stimuli/stim009_animate_face_1.png","stimuli/tree_lowercase.png","120"
"html-button-response-mod","127","863471","0.0-127.0","74181","","","","","","triplet","1953.1000000238419","","","","0","stimuli/tree_lowercase.png","stimuli/stim010_animate_face_2.png","stimuli/stim017_inanimate_tree_1.png","121"
"html-button-response-mod","128","864703","0.0-128.0","74181","","","","","","triplet","729.5","","","","2","stimuli/stim020_inanimate_tree_4.png","stimuli/stim017_inanimate_tree_1.png","stimuli/fish_uppercase.png","122"
"html-button-response-mod","129","865995","0.0-129.0","74181","","","","","","triplet","787.5","","","","2","stimuli/stim005_animate_bird_1.png","stimuli/stim007_animate_bird_3.png","stimuli/bird_lowercase.png","123"
"html-button-response-mod","130","867308","0.0-130.0","74181","","","","","","triplet","809.6999999880791","","","","0","stimuli/stim012_animate_face_4.png","stimuli/bird_uppercase.png","stimuli/face_lowercase.png","124"
"html-button-response-mod","131","872651","0.0-131.0","74181","","","","","","triplet","4840.600000023842","","","","2","stimuli/stim018_inanimate_tree_2.png","stimuli/stim008_animate_bird_4.png","stimuli/stim014_inanimate_boats_2.png","125"
"html-button-response-mod","132","874583","0.0-132.0","74181","","","","","","triplet","1426.9000000357628","","","","0","stimuli/stim017_inanimate_tree_1.png","stimuli/stim006_animate_bird_2.png","stimuli/stim008_animate_bird_4.png","126"
"html-button-response-mod","133","875968","0.0-133.0","74181","","","","","","triplet","877.7000000476837","","","","2","stimuli/stim005_animate_bird_1.png","stimuli/stim013_inanimate_boats_1.png","stimuli/fish_uppercase.png","127"
"html-button-response-mod","134","877459","0.0-134.0","74181","","","","","","triplet","987.7999999523163","","","","1","stimuli/stim020_inanimate_tree_4.png","stimuli/boats_uppercase.png","stimuli/stim014_inanimate_boats_2.png","128"
"html-button-response-mod","135","879421","0.0-135.0","74181","","","","","","triplet","1457.199999988079","","","","1","stimuli/fish_lowercase.png","stimuli/stim019_inanimate_tree_3.png","stimuli/bird_lowercase.png","129"
"html-button-response-mod","136","880853","0.0-136.0","74181","","","","","","triplet","927.1999999880791","","","","0","stimuli/tools_uppercase.png","stimuli/stim017_inanimate_tree_1.png","stimuli/stim004_animate_fish_4.png","130"
"html-button-response-mod","137","882025","0.0-137.0","74181","","","","","","triplet","665.6999999880791","","","","0","stimuli/tools_uppercase.png","stimuli/stim010_animate_face_2.png","stimuli/stim023_inanimate_tools_3.png","131"
"html-button-response-mod","138","883994","0.0-138.0","74181","","","","","","triplet","1465.5999999642372","","","","1","stimuli/face_uppercase.png","stimuli/stim018_inanimate_tree_2.png","stimuli/boats_lowercase.png","132"
"html-button-response-mod","139","886109","0.0-139.0","74181","","","","","","triplet","1613.199999988079","","","","1","stimuli/tree_uppercase.png","stimuli/stim020_inanimate_tree_4.png","stimuli/bird_lowercase.png","133"
"html-button-response-mod","140","888679","0.0-140.0","74181","","","","","","triplet","2065.199999988079","","","","1","stimuli/face_lowercase.png","stimuli/stim008_animate_bird_4.png","stimuli/bird_lowercase.png","134"
"html-button-response-mod","141","890772","0.0-141.0","74181","","","","","","triplet","1586.5999999642372","","","","2","stimuli/stim005_animate_bird_1.png","stimuli/stim002_animate_fish_2.png","stimuli/stim010_animate_face_2.png","135"
"html-button-response-mod","142","892868","0.0-142.0","74181","","","","","","triplet","1592.7000000476837","","","","2","stimuli/stim012_animate_face_4.png","stimuli/stim013_inanimate_boats_1.png","stimuli/face_uppercase.png","136"
"html-button-response-mod","143","898327","0.0-143.0","74181","","","","","","triplet","4956.100000023842","","","","0","stimuli/stim024_inanimate_tools_4.png","stimuli/stim018_inanimate_tree_2.png","stimuli/stim003_animate_fish_3.png","137"
"html-button-response-mod","144","903599","0.0-144.0","74181","","","","","","triplet","4765.399999976158","","","","1","stimuli/stim004_animate_fish_4.png","stimuli/tree_lowercase.png","stimuli/stim012_animate_face_4.png","138"
"html-button-response-mod","145","905152","0.0-145.0","74181","","","","","","triplet","1047.199999988079","","","","1","stimuli/stim004_animate_fish_4.png","stimuli/face_lowercase.png","stimuli/stim023_inanimate_tools_3.png","139"
"html-button-response-mod","146","906352","0.0-146.0","74181","","","","","","triplet","695.1999999880791","","","","1","stimuli/stim010_animate_face_2.png","stimuli/bird_uppercase.png","stimuli/stim020_inanimate_tree_4.png","140"
"html-button-response-mod","147","908070","0.0-147.0","74181","","","","","","triplet","1214.6000000238419","","","","0","stimuli/bird_lowercase.png","stimuli/stim023_inanimate_tools_3.png","stimuli/stim013_inanimate_boats_1.png","141"
"html-button-response-mod","148","910812","0.0-148.0","74181","","","","","","triplet","2237.100000023842","","","","0","stimuli/fish_lowercase.png","stimuli/stim016_inanimate_boats_4.png","stimuli/stim023_inanimate_tools_3.png","142"
"html-button-response-mod","149","916245","0.0-149.0","74181","","","","","","triplet","4930.800000011921","","","","1","stimuli/stim018_inanimate_tree_2.png","stimuli/boats_uppercase.png","stimuli/stim017_inanimate_tree_1.png","143"
"html-button-response-mod","150","918947","0.0-150.0","74181","","","","","","triplet","2199.099999964237","","","","2","stimuli/stim012_animate_face_4.png","stimuli/stim009_animate_face_1.png","stimuli/stim006_animate_bird_2.png","144"
"html-button-response-mod","151","920948","0.0-151.0","74181","","","","","","triplet","1494.699999988079","","","","2","stimuli/stim014_inanimate_boats_2.png","stimuli/stim023_inanimate_tools_3.png","stimuli/stim001_animate_fish_1.png","145"
"html-button-response-mod","152","924402","0.0-152.0","74181","","","","","","triplet","2952.100000023842","","","","0","stimuli/stim012_animate_face_4.png","stimuli/stim008_animate_bird_4.png","stimuli/stim005_animate_bird_1.png","146"
"html-button-response-mod","153","926171","0.0-153.0","74181","","","","","","triplet","1266.1000000238419","","","","0","stimuli/fish_lowercase.png","stimuli/stim022_inanimate_tools_2.png","stimuli/stim016_inanimate_boats_4.png","147"
"html-button-response-mod","154","927488","0.0-154.0","74181","","","","","","triplet","813.3000000119209","","","","2","stimuli/stim013_inanimate_boats_1.png","stimuli/stim017_inanimate_tree_1.png","stimuli/tree_uppercase.png","148"
"html-button-response-mod","155","929497","0.0-155.0","74181","","","","","","triplet","1504.8999999761581","","","","0","stimuli/stim009_animate_face_1.png","stimuli/stim015_inanimate_boats_3.png","stimuli/stim023_inanimate_tools_3.png","149"
"html-button-response","156","931438","0.0-156.0","74181","","","","","","break","1436.8999999761581","<p>BREAK</p><p>Take a break for as long as you need</p><p>Click the button to continue</p>","0","","","","","",""
"html-button-response-mod","157","934183","0.0-157.0","74181","","","","","","triplet","2743","","","","1","stimuli/stim020_inanimate_tree_4.png","stimuli/stim016_inanimate_boats_4.png","stimuli/stim005_animate_bird_1.png","150"
"html-button-response-mod","158","936004","0.0-158.0","74181","","","","","","triplet","1318.300000011921","","","","2","stimuli/stim020_inanimate_tree_4.png","stimuli/stim001_animate_fish_1.png","stimuli/fish_lowercase.png","151"
"html-button-response-mod","159","937309","0.0-159.0","74181","","","","","","triplet","800.1000000238419","","","","0","stimuli/boats_lowercase.png","stimuli/stim006_animate_bird_2.png","stimuli/stim001_animate_fish_1.png","152"
"html-button-response-mod","160","938622","0.0-160.0","74181","","","","","","triplet","807.3999999761581","","","","2","stimuli/stim023_inanimate_tools_3.png","stimuli/stim022_inanimate_tools_2.png","stimuli/tools_lowercase.png","153"
"html-button-response-mod","161","939867","0.0-161.0","74181","","","","","","triplet","740.5","","","","1","stimuli/stim021_inanimate_tools_1.png","stimuli/fish_lowercase.png","stimuli/stim024_inanimate_tools_4.png","154"
"html-button-response-mod","162","941516","0.0-162.0","74181","","","","","","triplet","1147","","","","1","stimuli/boats_lowercase.png","stimuli/stim024_inanimate_tools_4.png","stimuli/tools_lowercase.png","155"
"html-button-response-mod","163","943485","0.0-163.0","74181","","","","","","triplet","1466.800000011921","","","","1","stimuli/stim004_animate_fish_4.png","stimuli/stim020_inanimate_tree_4.png","stimuli/stim007_animate_bird_3.png","156"
"html-button-response-mod","164","945217","0.0-164.0","74181","","","","","","triplet","1225.8999999761581","","","","2","stimuli/boats_uppercase.png","stimuli/fish_uppercase.png","stimuli/stim002_animate_fish_2.png","157"
"html-button-response-mod","165","946674","0.0-165.0","74181","","","","","","triplet","952.9000000357628","","","","1","stimuli/tools_uppercase.png","stimuli/stim002_animate_fish_2.png","stimuli/bird_uppercase.png","158"
"html-button-response-mod","166","948159","0.0-166.0","74181","","","","","","triplet","982.5999999642372","","","","1","stimuli/stim002_animate_fish_2.png","stimuli/face_uppercase.png","stimuli/stim008_animate_bird_4.png","159"
"html-button-response-mod","167","952191","0.0-167.0","74181","","","","","","triplet","3526.100000023842","","","","1","stimuli/boats_lowercase.png","stimuli/stim020_inanimate_tree_4.png","stimuli/tree_uppercase.png","160"
"html-button-response-mod","168","955305","0.0-168.0","74181","","","","","","triplet","2611.099999964237","","","","0","stimuli/boats_uppercase.png","stimuli/stim011_animate_face_3.png","stimuli/stim023_inanimate_tools_3.png","161"
"html-button-response-mod","169","957246","0.0-169.0","74181","","","","","","triplet","1434.8999999761581","","","","2","stimuli/stim014_inanimate_boats_2.png","stimuli/stim016_inanimate_boats_4.png","stimuli/stim020_inanimate_tree_4.png","162"
"html-button-response-mod","170","958671","0.0-170.0","74181","","","","","","triplet","921.1999999880791","","","","0","stimuli/tools_lowercase.png","stimuli/stim015_inanimate_boats_3.png","stimuli/stim014_inanimate_boats_2.png","163"
"html-button-response-mod","171","960388","0.0-171.0","74181","","","","","","triplet","1214.800000011921","","","","0","stimuli/stim010_animate_face_2.png","stimuli/stim020_inanimate_tree_4.png","stimuli/stim018_inanimate_tree_2.png","164"
"html-button-response-mod","172","962197","0.0-172.0","74181","","","","","","triplet","1306","","","","2","stimuli/stim008_animate_bird_4.png","stimuli/stim009_animate_face_1.png","stimuli/tools_uppercase.png","165"
"html-button-response-mod","173","965675","0.0-173.0","74181","","","","","","triplet","2973","","","","0","stimuli/stim019_inanimate_tree_3.png","stimuli/tree_uppercase.png","stimuli/fish_uppercase.png","166"
"html-button-response-mod","174","967011","0.0-174.0","74181","","","","","","triplet","831.8999999761581","","","","2","stimuli/stim005_animate_bird_1.png","stimuli/stim006_animate_bird_2.png","stimuli/bird_lowercase.png","167"
"html-button-response-mod","175","968681","0.0-175.0","74181","","","","","","triplet","1166.3999999761581","","","","1","stimuli/stim019_inanimate_tree_3.png","stimuli/boats_uppercase.png","stimuli/stim004_animate_fish_4.png","168"
"html-button-response-mod","176","970802","0.0-176.0","74181","","","","","","triplet","1615.800000011921","","","","2","stimuli/stim010_animate_face_2.png","stimuli/stim012_animate_face_4.png","stimuli/stim021_inanimate_tools_1.png","169"
"html-button-response-mod","177","972523","0.0-177.0","74181","","","","","","triplet","1218","","","","1","stimuli/boats_uppercase.png","stimuli/stim021_inanimate_tools_1.png","stimuli/bird_lowercase.png","170"
"html-button-response-mod","178","973864","0.0-178.0","74181","","","","","","triplet","838.0999999642372","","","","2","stimuli/bird_lowercase.png","stimuli/boats_lowercase.png","stimuli/stim009_animate_face_1.png","171"
"html-button-response-mod","179","976513","0.0-179.0","74181","","","","","","triplet","2142.399999976158","","","","1","stimuli/stim001_animate_fish_1.png","stimuli/stim006_animate_bird_2.png","stimuli/stim003_animate_fish_3.png","172"
"html-button-response-mod","180","977982","0.0-180.0","74181","","","","","","triplet","964.0999999642372","","","","1","stimuli/boats_lowercase.png","stimuli/stim015_inanimate_boats_3.png","stimuli/tree_uppercase.png","173"
"html-button-response-mod","181","983662","0.0-181.0","74181","","","","","","triplet","5175.600000023842","","","","2","stimuli/stim002_animate_fish_2.png","stimuli/stim010_animate_face_2.png","stimuli/stim016_inanimate_boats_4.png","174"
"html-button-response-mod","182","985302","0.0-182.0","74181","","","","","","triplet","1137.199999988079","","","","1","stimuli/stim013_inanimate_boats_1.png","stimuli/tools_lowercase.png","stimuli/stim012_animate_face_4.png","175"
"html-button-response-mod","183","992758","0.0-183.0","74181","","","","","","triplet","6952","","","","0","stimuli/bird_lowercase.png","stimuli/stim020_inanimate_tree_4.png","stimuli/stim015_inanimate_boats_3.png","176"
"html-button-response-mod","184","994103","0.0-184.0","74181","","","","","","triplet","842.3999999761581","","","","1","stimuli/tree_uppercase.png","stimuli/stim004_animate_fish_4.png","stimuli/bird_lowercase.png","177"
"html-button-response-mod","185","995471","0.0-185.0","74181","","","","","","triplet","864.1999999880791","","","","2","stimuli/stim015_inanimate_boats_3.png","stimuli/stim003_animate_fish_3.png","stimuli/bird_lowercase.png","178"
"html-button-response-mod","186","1000593","0.0-186.0","74181","","","","","","triplet","4616.399999976158","","","","0","stimuli/stim024_inanimate_tools_4.png","stimuli/stim002_animate_fish_2.png","stimuli/stim009_animate_face_1.png","179"
"html-button-response-mod","187","1002082","0.0-187.0","74181","","","","","","triplet","985.8999999761581","","","","0","stimuli/boats_lowercase.png","stimuli/stim001_animate_fish_1.png","stimuli/stim003_animate_fish_3.png","180"
"html-button-response-mod","188","1003733","0.0-188.0","74181","","","","","","triplet","1144.5","","","","0","stimuli/bird_uppercase.png","stimuli/stim005_animate_bird_1.png","stimuli/stim012_animate_face_4.png","181"
"html-button-response-mod","189","1007520","0.0-189.0","74181","","","","","","triplet","3282.899999976158","","","","0","stimuli/stim011_animate_face_3.png","stimuli/stim020_inanimate_tree_4.png","stimuli/stim019_inanimate_tree_3.png","182"
"html-button-response-mod","190","1008869","0.0-190.0","74181","","","","","","triplet","846.1999999880791","","","","1","stimuli/stim009_animate_face_1.png","stimuli/bird_lowercase.png","stimuli/stim002_animate_fish_2.png","183"
"html-button-response-mod","191","1009821","0.0-191.0","74181","","","","","","triplet","446.19999998807907","","","","0","stimuli/bird_uppercase.png","stimuli/stim005_animate_bird_1.png","stimuli/stim021_inanimate_tools_1.png","184"
"html-button-response-mod","192","1010758","0.0-192.0","74181","","","","","","triplet","430.5","","","","0","stimuli/bird_uppercase.png","stimuli/stim004_animate_fish_4.png","stimuli/stim021_inanimate_tools_1.png","185"
"html-button-response-mod","193","1012069","0.0-193.0","74181","","","","","","triplet","807.6999999880791","","","","2","stimuli/stim006_animate_bird_2.png","stimuli/stim024_inanimate_tools_4.png","stimuli/face_lowercase.png","186"
"html-button-response-mod","194","1013635","0.0-194.0","74181","","","","","","triplet","1061","","","","2","stimuli/face_lowercase.png","stimuli/fish_uppercase.png","stimuli/stim011_animate_face_3.png","187"
"html-button-response-mod","195","1016196","0.0-195.0","74181","","","","","","triplet","2054.600000023842","","","","2","stimuli/bird_lowercase.png","stimuli/bird_uppercase.png","stimuli/stim007_animate_bird_3.png","188"
"html-button-response-mod","196","1020748","0.0-196.0","74181","","","","","","triplet","4047","","","","0","stimuli/stim009_animate_face_1.png","stimuli/tree_uppercase.png","stimuli/face_lowercase.png","189"
"html-button-response-mod","197","1022898","0.0-197.0","74181","","","","","","triplet","1645.3999999761581","","","","1","stimuli/stim015_inanimate_boats_3.png","stimuli/tree_uppercase.png","stimuli/stim006_animate_bird_2.png","190"
"html-button-response-mod","198","1024395","0.0-198.0","74181","","","","","","triplet","994.3999999761581","","","","0","stimuli/tools_uppercase.png","stimuli/stim006_animate_bird_2.png","stimuli/stim014_inanimate_boats_2.png","191"
"html-button-response-mod","199","1026824","0.0-199.0","74181","","","","","","triplet","1926.199999988079","","","","1","stimuli/boats_lowercase.png","stimuli/stim016_inanimate_boats_4.png","stimuli/bird_lowercase.png","192"
"html-button-response-mod","200","1029422","0.0-200.0","74181","","","","","","triplet","2091.100000023842","","","","0","stimuli/stim007_animate_bird_3.png","stimuli/face_uppercase.png","stimuli/tree_lowercase.png","193"
"html-button-response-mod","201","1031575","0.0-201.0","74181","","","","","","triplet","1649.6000000238419","","","","1","stimuli/stim018_inanimate_tree_2.png","stimuli/stim005_animate_bird_1.png","stimuli/stim017_inanimate_tree_1.png","194"
"html-button-response-mod","202","1035205","0.0-202.0","74181","","","","","","triplet","3126","","","","0","stimuli/tree_uppercase.png","stimuli/stim008_animate_bird_4.png","stimuli/stim001_animate_fish_1.png","195"
"html-button-response-mod","203","1037103","0.0-203.0","74181","","","","","","triplet","1395.300000011921","","","","2","stimuli/stim003_animate_fish_3.png","stimuli/stim023_inanimate_tools_3.png","stimuli/tree_uppercase.png","196"
"html-button-response-mod","204","1043121","0.0-204.0","74181","","","","","","triplet","5515.100000023842","","","","0","stimuli/stim017_inanimate_tree_1.png","stimuli/stim009_animate_face_1.png","stimuli/stim010_animate_face_2.png","197"
"html-button-response-mod","205","1046559","0.0-205.0","74181","","","","","","triplet","2933.800000011921","","","","0","stimuli/fish_uppercase.png","stimuli/face_uppercase.png","stimuli/face_lowercase.png","198"
"html-button-response-mod","206","1051555","0.0-206.0","74181","","","","","","triplet","4492.199999988079","","","","2","stimuli/stim008_animate_bird_4.png","stimuli/stim009_animate_face_1.png","stimuli/stim015_inanimate_boats_3.png","199"
"html-button-response","207","1055180","0.0-207.0","74181","","","","","","break","3119.400000035763","<p>BREAK</p><p>Take a break for as long as you need</p><p>Click the button to continue</p>","0","","","","","",""
"html-button-response-mod","208","1056168","0.0-208.0","74181","","","","","","triplet","986.2999999523163","","","","2","stimuli/stim005_animate_bird_1.png","stimuli/stim009_animate_face_1.png","stimuli/bird_lowercase.png","200"
"html-button-response-mod","209","1058026","0.0-209.0","74181","","","","","","triplet","1355","","","","0","stimuli/boats_uppercase.png","stimuli/stim015_inanimate_boats_3.png","stimuli/stim019_inanimate_tree_3.png","201"
"html-button-response-mod","210","1060943","0.0-210.0","74181","","","","","","triplet","2414.699999988079","","","","0","stimuli/stim017_inanimate_tree_1.png","stimuli/tree_uppercase.png","stimuli/tools_lowercase.png","202"
"html-button-response-mod","211","1065566","0.0-211.0","74181","","","","","","triplet","4117.900000035763","","","","0","stimuli/fish_uppercase.png","stimuli/stim021_inanimate_tools_1.png","stimuli/stim004_animate_fish_4.png","203"
"html-button-response-mod","212","1067031","0.0-212.0","74181","","","","","","triplet","961.6999999880791","","","","0","stimuli/boats_lowercase.png","stimuli/stim010_animate_face_2.png","stimuli/stim019_inanimate_tree_3.png","204"
"html-button-response-mod","213","1068931","0.0-213.0","74181","","","","","","triplet","1397.5999999642372","","","","2","stimuli/stim018_inanimate_tree_2.png","stimuli/stim006_animate_bird_2.png","stimuli/boats_uppercase.png","205"
"html-button-response-mod","214","1071952","0.0-214.0","74181","","","","","","triplet","2516.699999988079","","","","0","stimuli/fish_uppercase.png","stimuli/stim003_animate_fish_3.png","stimuli/stim013_inanimate_boats_1.png","206"
"html-button-response-mod","215","1073065","0.0-215.0","74181","","","","","","triplet","610.7000000476837","","","","0","stimuli/tree_lowercase.png","stimuli/stim010_animate_face_2.png","stimuli/stim022_inanimate_tools_2.png","207"
"html-button-response-mod","216","1075523","0.0-216.0","74181","","","","","","triplet","1955.4000000357628","","","","2","stimuli/stim005_animate_bird_1.png","stimuli/stim011_animate_face_3.png","stimuli/bird_lowercase.png","208"
"html-button-response-mod","217","1077944","0.0-217.0","74181","","","","","","triplet","1918.3999999761581","","","","2","stimuli/bird_lowercase.png","stimuli/boats_uppercase.png","stimuli/stim016_inanimate_boats_4.png","209"
"html-button-response-mod","218","1081103","0.0-218.0","74181","","","","","","triplet","2652","","","","2","stimuli/stim013_inanimate_boats_1.png","stimuli/stim024_inanimate_tools_4.png","stimuli/stim011_animate_face_3.png","210"
"html-button-response-mod","219","1083128","0.0-219.0","74181","","","","","","triplet","1519.5","","","","1","stimuli/stim016_inanimate_boats_4.png","stimuli/stim011_animate_face_3.png","stimuli/stim013_inanimate_boats_1.png","211"
"html-button-response-mod","220","1087718","0.0-220.0","74181","","","","","","triplet","4084","","","","1","stimuli/tools_lowercase.png","stimuli/stim015_inanimate_boats_3.png","stimuli/bird_lowercase.png","212"
"html-button-response-mod","221","1090507","0.0-221.0","74181","","","","","","triplet","2286","","","","2","stimuli/stim015_inanimate_boats_3.png","stimuli/stim021_inanimate_tools_1.png","stimuli/face_lowercase.png","213"
"html-button-response-mod","222","1093102","0.0-222.0","74181","","","","","","triplet","2088.800000011921","","","","2","stimuli/stim022_inanimate_tools_2.png","stimuli/stim012_animate_face_4.png","stimuli/tools_uppercase.png","214"
"html-button-response-mod","223","1097940","0.0-223.0","74181","","","","","","triplet","4332.400000035763","","","","1","stimuli/stim002_animate_fish_2.png","stimuli/stim012_animate_face_4.png","stimuli/stim005_animate_bird_1.png","215"
"html-button-response-mod","224","1099469","0.0-224.0","74181","","","","","","triplet","1025.1000000238419","","","","0","stimuli/tree_uppercase.png","stimuli/stim023_inanimate_tools_3.png","stimuli/stim007_animate_bird_3.png","216"
"html-button-response-mod","225","1100917","0.0-225.0","74181","","","","","","triplet","946.5","","","","0","stimuli/tree_uppercase.png","stimuli/stim004_animate_fish_4.png","stimuli/stim003_animate_fish_3.png","217"
"html-button-response-mod","226","1104283","0.0-226.0","74181","","","","","","triplet","2860.899999976158","","","","2","stimuli/stim007_animate_bird_3.png","stimuli/stim011_animate_face_3.png","stimuli/stim013_inanimate_boats_1.png","218"
"html-button-response-mod","227","1108015","0.0-227.0","74181","","","","","","triplet","3226","","","","0","stimuli/bird_lowercase.png","stimuli/stim022_inanimate_tools_2.png","stimuli/stim011_animate_face_3.png","219"
"html-button-response-mod","228","1109467","0.0-228.0","74181","","","","","","triplet","945.9000000357628","","","","0","stimuli/stim013_inanimate_boats_1.png","stimuli/bird_lowercase.png","stimuli/tree_lowercase.png","220"
"html-button-response-mod","229","1110596","0.0-229.0","74181","","","","","","triplet","623.1000000238419","","","","0","stimuli/tools_lowercase.png","stimuli/stim012_animate_face_4.png","stimuli/stim022_inanimate_tools_2.png","221"
"html-button-response-mod","230","1112445","0.0-230.0","74181","","","","","","triplet","1346.3999999761581","","","","1","stimuli/stim024_inanimate_tools_4.png","stimuli/stim009_animate_face_1.png","stimuli/stim013_inanimate_boats_1.png","222"
"html-button-response-mod","231","1113842","0.0-231.0","74181","","","","","","triplet","891","","","","2","stimuli/stim020_inanimate_tree_4.png","stimuli/stim017_inanimate_tree_1.png","stimuli/tools_uppercase.png","223"
"html-button-response-mod","232","1115346","0.0-232.0","74181","","","","","","triplet","1002.3000000119209","","","","0","stimuli/stim024_inanimate_tools_4.png","stimuli/face_lowercase.png","stimuli/boats_lowercase.png","224"
"html-button-response-mod","233","1117671","0.0-233.0","74181","","","","","","triplet","1819.300000011921","","","","2","stimuli/stim017_inanimate_tree_1.png","stimuli/stim004_animate_fish_4.png","stimuli/stim022_inanimate_tools_2.png","225"
"html-button-response-mod","234","1119232","0.0-234.0","74181","","","","","","triplet","1056.5999999642372","","","","1","stimuli/stim005_animate_bird_1.png","stimuli/tools_uppercase.png","stimuli/stim006_animate_bird_2.png","226"
"html-button-response-mod","235","1121449","0.0-235.0","74181","","","","","","triplet","1712.1000000238419","","","","2","stimuli/stim015_inanimate_boats_3.png","stimuli/stim024_inanimate_tools_4.png","stimuli/tree_uppercase.png","227"
"html-button-response-mod","236","1125110","0.0-236.0","74181","","","","","","triplet","3155.199999988079","","","","1","stimuli/stim005_animate_bird_1.png","stimuli/face_lowercase.png","stimuli/stim019_inanimate_tree_3.png","228"
"html-button-response-mod","237","1128427","0.0-237.0","74181","","","","","","triplet","2815.199999988079","","","","1","stimuli/face_uppercase.png","stimuli/stim011_animate_face_3.png","stimuli/tools_uppercase.png","229"
"html-button-response-mod","238","1130248","0.0-238.0","74181","","","","","","triplet","1315.6000000238419","","","","1","stimuli/boats_uppercase.png","stimuli/stim011_animate_face_3.png","stimuli/stim004_animate_fish_4.png","230"
"html-button-response-mod","239","1132865","0.0-239.0","74181","","","","","","triplet","2114.5","","","","0","stimuli/stim009_animate_face_1.png","stimuli/bird_lowercase.png","stimuli/fish_lowercase.png","231"
"html-button-response-mod","240","1134502","0.0-240.0","74181","","","","","","triplet","1135.1000000238419","","","","0","stimuli/stim014_inanimate_boats_2.png","stimuli/fish_lowercase.png","stimuli/fish_uppercase.png","232"
"html-button-response-mod","241","1136358","0.0-241.0","74181","","","","","","triplet","1353.4000000357628","","","","1","stimuli/stim002_animate_fish_2.png","stimuli/stim015_inanimate_boats_3.png","stimuli/stim008_animate_bird_4.png","233"
"html-button-response-mod","242","1144445","0.0-242.0","74181","","","","","","triplet","7582","","","","2","stimuli/stim022_inanimate_tools_2.png","stimuli/stim021_inanimate_tools_1.png","stimuli/stim023_inanimate_tools_3.png","234"
"html-button-response-mod","243","1151703","0.0-243.0","74181","","","","","","triplet","6753.300000011921","","","","2","stimuli/stim011_animate_face_3.png","stimuli/stim004_animate_fish_4.png","stimuli/stim013_inanimate_boats_1.png","235"
"html-button-response-mod","244","1153474","0.0-244.0","74181","","","","","","triplet","1269.0999999642372","","","","2","stimuli/stim014_inanimate_boats_2.png","stimuli/stim010_animate_face_2.png","stimuli/tree_lowercase.png","236"
"html-button-response-mod","245","1159003","0.0-245.0","74181","","","","","","triplet","5026","","","","1","stimuli/stim013_inanimate_boats_1.png","stimuli/stim017_inanimate_tree_1.png","stimuli/stim015_inanimate_boats_3.png","237"
"html-button-response-mod","246","1165613","0.0-246.0","74181","","","","","","triplet","6089.899999976158","","","","1","stimuli/stim004_animate_fish_4.png","stimuli/stim023_inanimate_tools_3.png","stimuli/stim003_animate_fish_3.png","238"
"html-button-response-mod","247","1167122","0.0-247.0","74181","","","","","","triplet","980.6999999880791","","","","0","stimuli/face_lowercase.png","stimuli/stim009_animate_face_1.png","stimuli/stim011_animate_face_3.png","239"
"html-button-response-mod","248","1168506","0.0-248.0","74181","","","","","","triplet","881.8999999761581","","","","0","stimuli/fish_lowercase.png","stimuli/stim009_animate_face_1.png","stimuli/stim011_animate_face_3.png","240"
"html-button-response-mod","249","1171103","0.0-249.0","74181","","","","","","triplet","2092.099999964237","","","","0","stimuli/stim022_inanimate_tools_2.png","stimuli/stim017_inanimate_tree_1.png","stimuli/stim006_animate_bird_2.png","241"
"html-button-response-mod","250","1172928","0.0-250.0","74181","","","","","","triplet","1322.4000000357628","","","","1","stimuli/stim016_inanimate_boats_4.png","stimuli/stim008_animate_bird_4.png","stimuli/stim022_inanimate_tools_2.png","242"
"html-button-response-mod","251","1174413","0.0-251.0","74181","","","","","","triplet","978.4000000357628","","","","2","stimuli/stim013_inanimate_boats_1.png","stimuli/stim022_inanimate_tools_2.png","stimuli/bird_lowercase.png","243"
"html-button-response-mod","252","1179364","0.0-252.0","74181","","","","","","triplet","4448.899999976158","","","","0","stimuli/stim011_animate_face_3.png","stimuli/stim001_animate_fish_1.png","stimuli/stim018_inanimate_tree_2.png","244"
"html-button-response-mod","253","1180421","0.0-253.0","74181","","","","","","triplet","553.8999999761581","","","","0","stimuli/face_uppercase.png","stimuli/stim003_animate_fish_3.png","stimuli/stim005_animate_bird_1.png","245"
"html-button-response-mod","254","1183450","0.0-254.0","74181","","","","","","triplet","2526.599999964237","","","","0","stimuli/stim014_inanimate_boats_2.png","stimuli/stim020_inanimate_tree_4.png","stimuli/stim007_animate_bird_3.png","246"
"html-button-response-mod","255","1185515","0.0-255.0","74181","","","","","","triplet","1560.800000011921","","","","2","stimuli/stim007_animate_bird_3.png","stimuli/stim022_inanimate_tools_2.png","stimuli/bird_uppercase.png","247"
"html-button-response-mod","256","1192190","0.0-256.0","74181","","","","","","triplet","6169.399999976158","","","","1","stimuli/stim009_animate_face_1.png","stimuli/stim007_animate_bird_3.png","stimuli/stim011_animate_face_3.png","248"
"html-button-response-mod","257","1193583","0.0-257.0","74181","","","","","","triplet","887.1999999880791","","","","1","stimuli/stim014_inanimate_boats_2.png","stimuli/fish_uppercase.png","stimuli/stim010_animate_face_2.png","249"
"html-button-response","258","1270919","0.0-258.0","74181","","","","","","break","76826.80000001192","<p>BREAK</p><p>Take a break for as long as you need</p><p>Click the button to continue</p>","0","","","","","",""
"html-button-response-mod","259","1271896","0.0-259.0","74181","","","","","","triplet","974.8000000119209","","","","0","stimuli/bird_lowercase.png","stimuli/stim024_inanimate_tools_4.png","stimuli/stim016_inanimate_boats_4.png","250"
"html-button-response-mod","260","1273353","0.0-260.0","74181","","","","","","triplet","951.7000000476837","","","","2","stimuli/stim021_inanimate_tools_1.png","stimuli/stim022_inanimate_tools_2.png","stimuli/fish_uppercase.png","251"
"html-button-response-mod","261","1274976","0.0-261.0","74181","","","","","","triplet","1117.2000000476837","","","","2","stimuli/stim004_animate_fish_4.png","stimuli/stim002_animate_fish_2.png","stimuli/stim023_inanimate_tools_3.png","252"
"html-button-response-mod","262","1276392","0.0-262.0","74181","","","","","","triplet","913","","","","0","stimuli/fish_uppercase.png","stimuli/stim016_inanimate_boats_4.png","stimuli/stim019_inanimate_tree_3.png","253"
"html-button-response-mod","263","1277665","0.0-263.0","74181","","","","","","triplet","770.6999999880791","","","","1","stimuli/stim021_inanimate_tools_1.png","stimuli/tree_lowercase.png","stimuli/stim014_inanimate_boats_2.png","254"
"html-button-response-mod","264","1278901","0.0-264.0","74181","","","","","","triplet","734.3000000119209","","","","1","stimuli/stim019_inanimate_tree_3.png","stimuli/fish_lowercase.png","stimuli/stim020_inanimate_tree_4.png","255"
"html-button-response-mod","265","1280375","0.0-265.0","74181","","","","","","triplet","966.6000000238419","","","","1","stimuli/tools_uppercase.png","stimuli/stim017_inanimate_tree_1.png","stimuli/tree_lowercase.png","256"
"html-button-response-mod","266","1282744","0.0-266.0","74181","","","","","","triplet","1867","","","","1","stimuli/stim012_animate_face_4.png","stimuli/tree_uppercase.png","stimuli/stim015_inanimate_boats_3.png","257"
"html-button-response-mod","267","1287092","0.0-267.0","74181","","","","","","triplet","3845.400000035763","","","","0","stimuli/stim003_animate_fish_3.png","stimuli/stim023_inanimate_tools_3.png","stimuli/stim013_inanimate_boats_1.png","258"
"html-button-response-mod","268","1289893","0.0-268.0","74181","","","","","","triplet","2298.300000011921","","","","2","stimuli/tree_uppercase.png","stimuli/tools_uppercase.png","stimuli/stim014_inanimate_boats_2.png","259"
"html-button-response-mod","269","1293355","0.0-269.0","74181","","","","","","triplet","2957.5","","","","1","stimuli/stim016_inanimate_boats_4.png","stimuli/stim004_animate_fish_4.png","stimuli/stim023_inanimate_tools_3.png","260"
"html-button-response-mod","270","1295362","0.0-270.0","74181","","","","","","triplet","1504.199999988079","","","","2","stimuli/face_uppercase.png","stimuli/bird_lowercase.png","stimuli/stim001_animate_fish_1.png","261"
"html-button-response-mod","271","1296696","0.0-271.0","74181","","","","","","triplet","830.5","","","","0","stimuli/bird_uppercase.png","stimuli/stim014_inanimate_boats_2.png","stimuli/stim016_inanimate_boats_4.png","262"
"html-button-response-mod","272","1298200","0.0-272.0","74181","","","","","","triplet","999.3000000119209","","","","1","stimuli/stim012_animate_face_4.png","stimuli/stim001_animate_fish_1.png","stimuli/stim009_animate_face_1.png","263"
"html-button-response-mod","273","1299717","0.0-273.0","74181","","","","","","triplet","1012.5","","","","1","stimuli/stim024_inanimate_tools_4.png","stimuli/tools_lowercase.png","stimuli/stim022_inanimate_tools_2.png","264"
"html-button-response-mod","274","1303566","0.0-274.0","74181","","","","","","triplet","3346.300000011921","","","","0","stimuli/stim013_inanimate_boats_1.png","stimuli/face_uppercase.png","stimuli/tools_uppercase.png","265"
"html-button-response-mod","275","1306991","0.0-275.0","74181","","","","","","triplet","2922.2000000476837","","","","2","stimuli/stim008_animate_bird_4.png","stimuli/stim004_animate_fish_4.png","stimuli/stim020_inanimate_tree_4.png","266"
"html-button-response-mod","276","1308603","0.0-276.0","74181","","","","","","triplet","1109.5","","","","1","stimuli/stim006_animate_bird_2.png","stimuli/face_uppercase.png","stimuli/stim015_inanimate_boats_3.png","267"
"html-button-response-mod","277","1310029","0.0-277.0","74181","","","","","","triplet","921.1000000238419","","","","2","stimuli/bird_lowercase.png","stimuli/bird_uppercase.png","stimuli/stim020_inanimate_tree_4.png","268"
"html-button-response-mod","278","1311730","0.0-278.0","74181","","","","","","triplet","1192.199999988079","","","","0","stimuli/stim010_animate_face_2.png","stimuli/bird_uppercase.png","stimuli/boats_lowercase.png","269"
"html-button-response-mod","279","1313522","0.0-279.0","74181","","","","","","triplet","1288.800000011921","","","","0","stimuli/stim007_animate_bird_3.png","stimuli/stim017_inanimate_tree_1.png","stimuli/stim018_inanimate_tree_2.png","270"
"html-button-response-mod","280","1317929","0.0-280.0","74181","","","","","","triplet","3904.900000035763","","","","0","stimuli/tools_lowercase.png","stimuli/stim008_animate_bird_4.png","stimuli/stim004_animate_fish_4.png","271"
"html-button-response-mod","281","1321258","0.0-281.0","74181","","","","","","triplet","2821.800000011921","","","","0","stimuli/stim012_animate_face_4.png","stimuli/boats_lowercase.png","stimuli/tree_lowercase.png","272"
"html-button-response-mod","282","1341775","0.0-282.0","74181","","","","","","triplet","20012.200000047684","","","","0","stimuli/fish_uppercase.png","stimuli/stim024_inanimate_tools_4.png","stimuli/stim022_inanimate_tools_2.png","273"
"html-button-response-mod","283","1343961","0.0-283.0","74181","","","","","","triplet","1682.9000000357628","","","","0","stimuli/boats_lowercase.png","stimuli/stim016_inanimate_boats_4.png","stimuli/stim002_animate_fish_2.png","274"
"html-button-response-mod","284","1345413","0.0-284.0","74181","","","","","","triplet","950.3000000119209","","","","2","stimuli/stim017_inanimate_tree_1.png","stimuli/stim019_inanimate_tree_3.png","stimuli/stim021_inanimate_tools_1.png","275"
"html-button-response-mod","285","1346677","0.0-285.0","74181","","","","","","triplet","759.5999999642372","","","","2","stimuli/stim016_inanimate_boats_4.png","stimuli/stim003_animate_fish_3.png","stimuli/boats_uppercase.png","276"
"html-button-response-mod","286","1348005","0.0-286.0","74181","","","","","","triplet","822.2999999523163","","","","1","stimuli/bird_uppercase.png","stimuli/stim017_inanimate_tree_1.png","stimuli/face_uppercase.png","277"
"html-button-response-mod","287","1349729","0.0-287.0","74181","","","","","","triplet","1221.5","","","","2","stimuli/stim006_animate_bird_2.png","stimuli/stim008_animate_bird_4.png","stimuli/tree_lowercase.png","278"
"html-button-response-mod","288","1350930","0.0-288.0","74181","","","","","","triplet","698.3999999761581","","","","2","stimuli/stim006_animate_bird_2.png","stimuli/stim021_inanimate_tools_1.png","stimuli/face_lowercase.png","279"
"html-button-response-mod","289","1352258","0.0-289.0","74181","","","","","","triplet","825.8000000119209","","","","2","stimuli/fish_lowercase.png","stimuli/bird_uppercase.png","stimuli/stim005_animate_bird_1.png","280"
"html-button-response-mod","290","1353815","0.0-290.0","74181","","","","","","triplet","1053.5","","","","0","stimuli/stim017_inanimate_tree_1.png","stimuli/stim013_inanimate_boats_1.png","stimuli/stim014_inanimate_boats_2.png","281"
"html-button-response-mod","291","1356320","0.0-291.0","74181","","","","","","triplet","2002.300000011921","","","","2","stimuli/stim002_animate_fish_2.png","stimuli/stim005_animate_bird_1.png","stimuli/stim021_inanimate_tools_1.png","282"
"html-button-response-mod","292","1358260","0.0-292.0","74181","","","","","","triplet","1434.5","","","","1","stimuli/fish_uppercase.png","stimuli/stim009_animate_face_1.png","stimuli/tools_lowercase.png","283"
"html-button-response-mod","293","1360236","0.0-293.0","74181","","","","","","triplet","1474.1000000238419","","","","2","stimuli/stim004_animate_fish_4.png","stimuli/stim012_animate_face_4.png","stimuli/stim019_inanimate_tree_3.png","284"
"html-button-response-mod","294","1362329","0.0-294.0","74181","","","","","","triplet","1587","","","","0","stimuli/stim013_inanimate_boats_1.png","stimuli/stim011_animate_face_3.png","stimuli/stim002_animate_fish_2.png","285"
"html-button-response-mod","295","1363930","0.0-295.0","74181","","","","","","triplet","1095.5","","","","0","stimuli/stim023_inanimate_tools_3.png","stimuli/tools_lowercase.png","stimuli/boats_lowercase.png","286"
"html-button-response-mod","296","1365382","0.0-296.0","74181","","","","","","triplet","950.3000000119209","","","","1","stimuli/bird_uppercase.png","stimuli/stim022_inanimate_tools_2.png","stimuli/face_lowercase.png","287"
"html-button-response-mod","297","1366830","0.0-297.0","74181","","","","","","triplet","942.7000000476837","","","","0","stimuli/stim015_inanimate_boats_3.png","stimuli/face_lowercase.png","stimuli/face_uppercase.png","288"
"html-button-response-mod","298","1368422","0.0-298.0","74181","","","","","","triplet","1089.199999988079","","","","1","stimuli/stim015_inanimate_boats_3.png","stimuli/fish_lowercase.png","stimuli/stim017_inanimate_tree_1.png","289"
"html-button-response-mod","299","1371043","0.0-299.0","74181","","","","","","triplet","2118.600000023842","","","","1","stimuli/stim016_inanimate_boats_4.png","stimuli/bird_uppercase.png","stimuli/stim001_animate_fish_1.png","290"
"html-button-response-mod","300","1382620","0.0-300.0","74181","","","","","","triplet","11072.599999964237","","","","0","stimuli/stim019_inanimate_tree_3.png","stimuli/stim003_animate_fish_3.png","stimuli/stim002_animate_fish_2.png","291"
"html-button-response-mod","301","1385966","0.0-301.0","74181","","","","","","triplet","2843.100000023842","","","","0","stimuli/tree_uppercase.png","stimuli/stim013_inanimate_boats_1.png","stimuli/stim009_animate_face_1.png","292"
"html-button-response-mod","302","1391867","0.0-302.0","74181","","","","","","triplet","5393.600000023842","","","","0","stimuli/stim015_inanimate_boats_3.png","stimuli/stim018_inanimate_tree_2.png","stimuli/stim008_animate_bird_4.png","293"
"html-button-response-mod","303","1393472","0.0-303.0","74181","","","","","","triplet","1099.699999988079","","","","2","stimuli/stim018_inanimate_tree_2.png","stimuli/stim001_animate_fish_1.png","stimuli/stim013_inanimate_boats_1.png","294"
"html-button-response-mod","304","1397766","0.0-304.0","74181","","","","","","triplet","3787.5","","","","2","stimuli/tools_uppercase.png","stimuli/boats_lowercase.png","stimuli/tree_lowercase.png","295"
"html-button-response-mod","305","1402993","0.0-305.0","74181","","","","","","triplet","4720.599999964237","","","","0","stimuli/tools_lowercase.png","stimuli/stim007_animate_bird_3.png","stimuli/stim001_animate_fish_1.png","296"
"html-button-response-mod","306","1404210","0.0-306.0","74181","","","","","","triplet","710.6000000238419","","","","0","stimuli/boats_uppercase.png","stimuli/stim015_inanimate_boats_3.png","stimuli/stim003_animate_fish_3.png","297"
"html-button-response-mod","307","1405558","0.0-307.0","74181","","","","","","triplet","846.3999999761581","","","","2","stimuli/stim007_animate_bird_3.png","stimuli/stim012_animate_face_4.png","stimuli/fish_lowercase.png","298"
"html-button-response-mod","308","1407543","0.0-308.0","74181","","","","","","triplet","1481","","","","0","stimuli/stim006_animate_bird_2.png","stimuli/stim015_inanimate_boats_3.png","stimuli/stim021_inanimate_tools_1.png","299"
"html-button-response","309","1409996","0.0-309.0","74181","","","","","","break","1949.9000000357628","<p>BREAK</p><p>Take a break for as long as you need</p><p>Click the button to continue</p>","0","","","","","",""
"html-button-response-mod","310","1411053","0.0-310.0","74181","","","","","","triplet","1054.7999999523163","","","","2","stimuli/stim023_inanimate_tools_3.png","stimuli/stim016_inanimate_boats_4.png","stimuli/boats_uppercase.png","300"
"html-button-response-mod","311","1412438","0.0-311.0","74181","","","","","","triplet","880.9000000357628","","","","1","stimuli/tree_uppercase.png","stimuli/stim018_inanimate_tree_2.png","stimuli/fish_uppercase.png","301"
"html-button-response-mod","312","1414035","0.0-312.0","74181","","","","","","triplet","1090.5","","","","0","stimuli/tree_uppercase.png","stimuli/stim007_animate_bird_3.png","stimuli/stim015_inanimate_boats_3.png","302"
"html-button-response-mod","313","1415395","0.0-313.0","74181","","","","","","triplet","853.8000000119209","","","","1","stimuli/bird_lowercase.png","stimuli/stim008_animate_bird_4.png","stimuli/stim024_inanimate_tools_4.png","303"
"html-button-response-mod","314","1416876","0.0-314.0","74181","","","","","","triplet","977.0999999642372","","","","0","stimuli/stim008_animate_bird_4.png","stimuli/bird_lowercase.png","stimuli/boats_lowercase.png","304"
"html-button-response-mod","315","1418152","0.0-315.0","74181","","","","","","triplet","773.1000000238419","","","","1","stimuli/fish_uppercase.png","stimuli/stim021_inanimate_tools_1.png","stimuli/tree_uppercase.png","305"
"html-button-response-mod","316","1419545","0.0-316.0","74181","","","","","","triplet","888.3000000119209","","","","1","stimuli/fish_lowercase.png","stimuli/stim007_animate_bird_3.png","stimuli/face_uppercase.png","306"
"html-button-response-mod","317","1422215","0.0-317.0","74181","","","","","","triplet","2165","","","","2","stimuli/stim001_animate_fish_1.png","stimuli/stim010_animate_face_2.png","stimuli/stim022_inanimate_tools_2.png","307"
"html-button-response-mod","318","1424352","0.0-318.0","74181","","","","","","triplet","1631.5","","","","1","stimuli/stim003_animate_fish_3.png","stimuli/stim006_animate_bird_2.png","stimuli/stim002_animate_fish_2.png","308"
"html-button-response-mod","319","1426732","0.0-319.0","74181","","","","","","triplet","1876.0999999642372","","","","2","stimuli/stim018_inanimate_tree_2.png","stimuli/stim019_inanimate_tree_3.png","stimuli/stim008_animate_bird_4.png","309"
"html-button-response-mod","320","1431778","0.0-320.0","74181","","","","","","triplet","4541.599999964237","","","","1","stimuli/stim019_inanimate_tree_3.png","stimuli/stim005_animate_bird_1.png","stimuli/stim017_inanimate_tree_1.png","310"
"html-button-response-mod","321","1433291","0.0-321.0","74181","","","","","","triplet","1009.6000000238419","","","","0","stimuli/stim022_inanimate_tools_2.png","stimuli/tools_lowercase.png","stimuli/boats_uppercase.png","311"
"html-button-response-mod","322","1438438","0.0-322.0","74181","","","","","","triplet","4645","","","","2","stimuli/stim003_animate_fish_3.png","stimuli/stim001_animate_fish_1.png","stimuli/stim023_inanimate_tools_3.png","312"
"html-button-response-mod","323","1443854","0.0-323.0","74181","","","","","","triplet","4909.600000023842","","","","2","stimuli/fish_lowercase.png","stimuli/face_uppercase.png","stimuli/stim016_inanimate_boats_4.png","313"
"html-button-response-mod","324","1451425","0.0-324.0","74181","","","","","","triplet","7068","","","","1","stimuli/face_uppercase.png","stimuli/stim009_animate_face_1.png","stimuli/boats_lowercase.png","314"
"html-button-response-mod","325","1456640","0.0-325.0","74181","","","","","","triplet","4708.599999964237","","","","1","stimuli/stim012_animate_face_4.png","stimuli/bird_lowercase.png","stimuli/stim008_animate_bird_4.png","315"
"html-button-response-mod","326","1458129","0.0-326.0","74181","","","","","","triplet","984.6999999880791","","","","1","stimuli/stim021_inanimate_tools_1.png","stimuli/tree_uppercase.png","stimuli/stim019_inanimate_tree_3.png","316"
"html-button-response-mod","327","1459589","0.0-327.0","74181","","","","","","triplet","958.5","","","","1","stimuli/stim023_inanimate_tools_3.png","stimuli/stim003_animate_fish_3.png","stimuli/stim021_inanimate_tools_1.png","317"
"html-button-response-mod","328","1461022","0.0-328.0","74181","","","","","","triplet","927.2999999523163","","","","1","stimuli/stim020_inanimate_tree_4.png","stimuli/stim013_inanimate_boats_1.png","stimuli/stim018_inanimate_tree_2.png","318"
"html-button-response-mod","329","1462712","0.0-329.0","74181","","","","","","triplet","1184","","","","0","stimuli/face_lowercase.png","stimuli/stim015_inanimate_boats_3.png","stimuli/stim017_inanimate_tree_1.png","319"
"html-button-response-mod","330","1463652","0.0-330.0","74181","","","","","","triplet","434.89999997615814","","","","0","stimuli/tree_lowercase.png","stimuli/stim009_animate_face_1.png","stimuli/stim005_animate_bird_1.png","320"
"html-button-response-mod","331","1464844","0.0-331.0","74181","","","","","","triplet","686.6999999880791","","","","2","stimuli/stim019_inanimate_tree_3.png","stimuli/stim017_inanimate_tree_1.png","stimuli/bird_uppercase.png","321"
"html-button-response-mod","332","1466366","0.0-332.0","74181","","","","","","triplet","1015.8000000119209","","","","2","stimuli/stim017_inanimate_tree_1.png","stimuli/stim006_animate_bird_2.png","stimuli/face_lowercase.png","322"
"html-button-response-mod","333","1467731","0.0-333.0","74181","","","","","","triplet","862.6000000238419","","","","0","stimuli/stim012_animate_face_4.png","stimuli/tools_uppercase.png","stimuli/boats_uppercase.png","323"
"html-button-response-mod","334","1469068","0.0-334.0","74181","","","","","","triplet","834.3000000119209","","","","0","stimuli/bird_lowercase.png","stimuli/stim008_animate_bird_4.png","stimuli/stim020_inanimate_tree_4.png","324"
"html-button-response-mod","335","1470956","0.0-335.0","74181","","","","","","triplet","1382.300000011921","","","","0","stimuli/stim022_inanimate_tools_2.png","stimuli/stim004_animate_fish_4.png","stimuli/stim001_animate_fish_1.png","325"
"html-button-response-mod","336","1473594","0.0-336.0","74181","","","","","","triplet","2133.399999976158","","","","2","stimuli/stim005_animate_bird_1.png","stimuli/stim009_animate_face_1.png","stimuli/stim021_inanimate_tools_1.png","326"
"html-button-response-mod","337","1481109","0.0-337.0","74181","","","","","","triplet","7012.700000047684","","","","2","stimuli/stim003_animate_fish_3.png","stimuli/stim008_animate_bird_4.png","stimuli/stim013_inanimate_boats_1.png","327"
"html-button-response-mod","338","1482533","0.0-338.0","74181","","","","","","triplet","919.6000000238419","","","","2","stimuli/stim020_inanimate_tree_4.png","stimuli/stim017_inanimate_tree_1.png","stimuli/stim008_animate_bird_4.png","328"
"html-button-response-mod","339","1485482","0.0-339.0","74181","","","","","","triplet","2446.2999999523163","","","","0","stimuli/stim011_animate_face_3.png","stimuli/stim015_inanimate_boats_3.png","stimuli/stim024_inanimate_tools_4.png","329"
"html-button-response-mod","340","1487543","0.0-340.0","74181","","","","","","triplet","1558.0999999642372","","","","1","stimuli/stim024_inanimate_tools_4.png","stimuli/boats_uppercase.png","stimuli/stim018_inanimate_tree_2.png","330"
"html-button-response-mod","341","1490624","0.0-341.0","74181","","","","","","triplet","2578.400000035763","","","","2","stimuli/stim022_inanimate_tools_2.png","stimuli/stim016_inanimate_boats_4.png","stimuli/stim020_inanimate_tree_4.png","331"
"html-button-response-mod","342","1491854","0.0-342.0","74181","","","","","","triplet","725.3000000119209","","","","2","stimuli/stim011_animate_face_3.png","stimuli/stim015_inanimate_boats_3.png","stimuli/face_lowercase.png","332"
"html-button-response-mod","343","1493287","0.0-343.0","74181","","","","","","triplet","927.5","","","","1","stimuli/boats_uppercase.png","stimuli/stim018_inanimate_tree_2.png","stimuli/boats_lowercase.png","333"
"html-button-response-mod","344","1494897","0.0-344.0","74181","","","","","","triplet","1103.199999988079","","","","2","stimuli/stim019_inanimate_tree_3.png","stimuli/stim016_inanimate_boats_4.png","stimuli/tree_lowercase.png","334"
"html-button-response-mod","345","1496340","0.0-345.0","74181","","","","","","triplet","939","","","","0","stimuli/stim013_inanimate_boats_1.png","stimuli/tree_lowercase.png","stimuli/boats_lowercase.png","335"
"html-button-response-mod","346","1498692","0.0-346.0","74181","","","","","","triplet","1845.699999988079","","","","2","stimuli/stim007_animate_bird_3.png","stimuli/stim004_animate_fish_4.png","stimuli/stim023_inanimate_tools_3.png","336"
"html-button-response-mod","347","1502516","0.0-347.0","74181","","","","","","triplet","3318.400000035763","","","","0","stimuli/stim004_animate_fish_4.png","stimuli/tree_lowercase.png","stimuli/tree_uppercase.png","337"
"html-button-response-mod","348","1509500","0.0-348.0","74181","","","","","","triplet","6482.199999988079","","","","1","stimuli/stim019_inanimate_tree_3.png","stimuli/stim023_inanimate_tools_3.png","stimuli/stim008_animate_bird_4.png","338"
"html-button-response-mod","349","1513072","0.0-349.0","74181","","","","","","triplet","3065.899999976158","","","","1","stimuli/stim004_animate_fish_4.png","stimuli/stim023_inanimate_tools_3.png","stimuli/stim006_animate_bird_2.png","339"
"html-button-response-mod","350","1514626","0.0-350.0","74181","","","","","","triplet","1049.0999999642372","","","","0","stimuli/stim024_inanimate_tools_4.png","stimuli/face_lowercase.png","stimuli/fish_lowercase.png","340"
"html-button-response-mod","351","1515842","0.0-351.0","74181","","","","","","triplet","709.1000000238419","","","","2","stimuli/bird_lowercase.png","stimuli/tree_lowercase.png","stimuli/stim012_animate_face_4.png","341"
"html-button-response-mod","352","1517711","0.0-352.0","74181","","","","","","triplet","1364.699999988079","","","","1","stimuli/stim003_animate_fish_3.png","stimuli/stim011_animate_face_3.png","stimuli/stim001_animate_fish_1.png","342"
"html-button-response-mod","353","1519312","0.0-353.0","74181","","","","","","triplet","1096.6000000238419","","","","2","stimuli/stim008_animate_bird_4.png","stimuli/stim015_inanimate_boats_3.png","stimuli/tools_uppercase.png","343"
"html-button-response-mod","354","1522875","0.0-354.0","74181","","","","","","triplet","3056.800000011921","","","","1","stimuli/stim018_inanimate_tree_2.png","stimuli/tools_lowercase.png","stimuli/stim011_animate_face_3.png","344"
"html-button-response-mod","355","1525987","0.0-355.0","74181","","","","","","triplet","2606.900000035763","","","","0","stimuli/tools_uppercase.png","stimuli/stim016_inanimate_boats_4.png","stimuli/stim020_inanimate_tree_4.png","345"
"html-button-response-mod","356","1528768","0.0-356.0","74181","","","","","","triplet","2275.899999976158","","","","1","stimuli/stim013_inanimate_boats_1.png","stimuli/bird_lowercase.png","stimuli/stim011_animate_face_3.png","346"
"html-button-response-mod","357","1531525","0.0-357.0","74181","","","","","","triplet","2250.7000000476837","","","","1","stimuli/stim005_animate_bird_1.png","stimuli/bird_uppercase.png","stimuli/stim011_animate_face_3.png","347"
"html-button-response-mod","358","1535255","0.0-358.0","74181","","","","","","triplet","3226.900000035763","","","","0","stimuli/stim024_inanimate_tools_4.png","stimuli/stim004_animate_fish_4.png","stimuli/stim002_animate_fish_2.png","348"
"html-button-response-mod","359","1537078","0.0-359.0","74181","","","","","","triplet","1316.7999999523163","","","","1","stimuli/stim005_animate_bird_1.png","stimuli/tools_lowercase.png","stimuli/stim007_animate_bird_3.png","349"
"html-button-response","360","1538590","0.0-360.0","74181","","","","","","break","1005.6000000238419","<p>BREAK</p><p>Take a break for as long as you need</p><p>Click the button to continue</p>","0","","","","","",""
"html-button-response-mod","361","1539655","0.0-361.0","74181","","","","","","triplet","1063.1000000238419","","","","2","stimuli/tree_uppercase.png","stimuli/fish_lowercase.png","stimuli/stim022_inanimate_tools_2.png","350"
"html-button-response-mod","362","1543838","0.0-362.0","74181","","","","","","triplet","3679.800000011921","","","","0","stimuli/fish_uppercase.png","stimuli/stim012_animate_face_4.png","stimuli/stim015_inanimate_boats_3.png","351"
"html-button-response-mod","363","1546813","0.0-363.0","74181","","","","","","triplet","2469.400000035763","","","","0","stimuli/stim007_animate_bird_3.png","stimuli/tree_uppercase.png","stimuli/tools_uppercase.png","352"
"html-button-response-mod","364","1548586","0.0-364.0","74181","","","","","","triplet","1270","","","","0","stimuli/stim009_animate_face_1.png","stimuli/stim006_animate_bird_2.png","stimuli/stim019_inanimate_tree_3.png","353"
"html-button-response-mod","365","1550744","0.0-365.0","74181","","","","","","triplet","1651.300000011921","","","","0","stimuli/tools_lowercase.png","stimuli/stim013_inanimate_boats_1.png","stimuli/stim007_animate_bird_3.png","354"
"html-button-response-mod","366","1554828","0.0-366.0","74181","","","","","","triplet","3580.899999976158","","","","1","stimuli/stim023_inanimate_tools_3.png","stimuli/tree_uppercase.png","stimuli/stim001_animate_fish_1.png","355"
"html-button-response-mod","367","1556533","0.0-367.0","74181","","","","","","triplet","1199.0999999642372","","","","2","stimuli/stim007_animate_bird_3.png","stimuli/stim017_inanimate_tree_1.png","stimuli/fish_uppercase.png","356"
"html-button-response-mod","368","1558721","0.0-368.0","74181","","","","","","triplet","1685.5","","","","0","stimuli/stim024_inanimate_tools_4.png","stimuli/stim002_animate_fish_2.png","stimuli/stim012_animate_face_4.png","357"
"html-button-response-mod","369","1560234","0.0-369.0","74181","","","","","","triplet","1010.7999999523163","","","","1","stimuli/stim010_animate_face_2.png","stimuli/tree_uppercase.png","stimuli/stim012_animate_face_4.png","358"
"html-button-response-mod","370","1564577","0.0-370.0","74181","","","","","","triplet","3837.5","","","","1","stimuli/stim016_inanimate_boats_4.png","stimuli/stim008_animate_bird_4.png","stimuli/stim013_inanimate_boats_1.png","359"
"html-button-response-mod","371","1570532","0.0-371.0","74181","","","","","","triplet","5450.800000011921","","","","2","stimuli/stim004_animate_fish_4.png","stimuli/stim018_inanimate_tree_2.png","stimuli/stim013_inanimate_boats_1.png","360"
"html-button-response-mod","372","1571812","0.0-372.0","74181","","","","","","triplet","773.7000000476837","","","","1","stimuli/stim019_inanimate_tree_3.png","stimuli/face_uppercase.png","stimuli/stim011_animate_face_3.png","361"
"html-button-response-mod","373","1576996","0.0-373.0","74181","","","","","","triplet","4680.899999976158","","","","2","stimuli/stim011_animate_face_3.png","stimuli/stim024_inanimate_tools_4.png","stimuli/face_uppercase.png","362"
"html-button-response-mod","374","1578305","0.0-374.0","74181","","","","","","triplet","805.8000000119209","","","","2","stimuli/stim012_animate_face_4.png","stimuli/stim003_animate_fish_3.png","stimuli/boats_lowercase.png","363"
"html-button-response-mod","375","1579497","0.0-375.0","74181","","","","","","triplet","685.8999999761581","","","","2","stimuli/stim007_animate_bird_3.png","stimuli/stim005_animate_bird_1.png","stimuli/bird_uppercase.png","364"
"html-button-response-mod","376","1581498","0.0-376.0","74181","","","","","","triplet","1497","","","","0","stimuli/stim016_inanimate_boats_4.png","stimuli/stim009_animate_face_1.png","stimuli/stim002_animate_fish_2.png","365"
"html-button-response-mod","377","1587286","0.0-377.0","74181","","","","","","triplet","5281.600000023842","","","","2","stimuli/stim015_inanimate_boats_3.png","stimuli/stim004_animate_fish_4.png","stimuli/fish_uppercase.png","366"
"html-button-response-mod","378","1590485","0.0-378.0","74181","","","","","","triplet","2693","","","","1","stimuli/stim003_animate_fish_3.png","stimuli/stim009_animate_face_1.png","stimuli/stim005_animate_bird_1.png","367"
"html-button-response-mod","379","1592054","0.0-379.0","74181","","","","","","triplet","1064.3999999761581","","","","0","stimuli/stim013_inanimate_boats_1.png","stimuli/tools_uppercase.png","stimuli/bird_uppercase.png","368"
"html-button-response-mod","380","1593382","0.0-380.0","74181","","","","","","triplet","824.1000000238419","","","","0","stimuli/tools_lowercase.png","stimuli/stim021_inanimate_tools_1.png","stimuli/stim014_inanimate_boats_2.png","369"
"html-button-response-mod","381","1601291","0.0-381.0","74181","","","","","","triplet","7403.5","","","","0","stimuli/stim019_inanimate_tree_3.png","stimuli/stim012_animate_face_4.png","stimuli/stim003_animate_fish_3.png","370"
"html-button-response-mod","382","1604369","0.0-382.0","74181","","","","","","triplet","2574.800000011921","","","","1","stimuli/stim018_inanimate_tree_2.png","stimuli/fish_uppercase.png","stimuli/stim005_animate_bird_1.png","371"
"html-button-response-mod","383","1605669","0.0-383.0","74181","","","","","","triplet","797.8000000119209","","","","1","stimuli/fish_uppercase.png","stimuli/stim009_animate_face_1.png","stimuli/boats_lowercase.png","372"
"html-button-response-mod","384","1609924","0.0-384.0","74181","","","","","","triplet","3752.5","","","","0","stimuli/face_lowercase.png","stimuli/tools_uppercase.png","stimuli/fish_uppercase.png","373"
"html-button-response-mod","385","1611524","0.0-385.0","74181","","","","","","triplet","1098.0999999642372","","","","2","stimuli/stim022_inanimate_tools_2.png","stimuli/stim002_animate_fish_2.png","stimuli/tools_lowercase.png","374"
"html-button-response-mod","386","1612701","0.0-386.0","74181","","","","","","triplet","672.6000000238419","","","","2","stimuli/stim010_animate_face_2.png","stimuli/stim015_inanimate_boats_3.png","stimuli/tree_lowercase.png","375"
"html-button-response-mod","387","1614170","0.0-387.0","74181","","","","","","triplet","963.1000000238419","","","","1","stimuli/stim002_animate_fish_2.png","stimuli/boats_lowercase.png","stimuli/stim023_inanimate_tools_3.png","376"
"html-button-response-mod","388","1623802","0.0-388.0","74181","","","","","","triplet","9125.900000035763","","","","2","stimuli/boats_uppercase.png","stimuli/fish_uppercase.png","stimuli/stim023_inanimate_tools_3.png","377"
"html-button-response-mod","389","1625779","0.0-389.0","74181","","","","","","triplet","1472.800000011921","","","","0","stimuli/fish_uppercase.png","stimuli/stim002_animate_fish_2.png","stimuli/stim021_inanimate_tools_1.png","378"
"html-button-response-mod","390","1627223","0.0-390.0","74181","","","","","","triplet","937.9000000357628","","","","2","stimuli/fish_lowercase.png","stimuli/face_lowercase.png","stimuli/stim006_animate_bird_2.png","379"
"html-button-response-mod","391","1629265","0.0-391.0","74181","","","","","","triplet","1539.1000000238419","","","","2","stimuli/stim001_animate_fish_1.png","stimuli/stim006_animate_bird_2.png","stimuli/stim019_inanimate_tree_3.png","380"
"html-button-response-mod","392","1630757","0.0-392.0","74181","","","","","","triplet","988.5","","","","2","stimuli/fish_uppercase.png","stimuli/face_lowercase.png","stimuli/stim014_inanimate_boats_2.png","381"
"html-button-response-mod","393","1631871","0.0-393.0","74181","","","","","","triplet","609.9000000357628","","","","2","stimuli/stim012_animate_face_4.png","stimuli/stim023_inanimate_tools_3.png","stimuli/tools_uppercase.png","382"
"html-button-response-mod","394","1634748","0.0-394.0","74181","","","","","","triplet","2372.899999976158","","","","1","stimuli/stim003_animate_fish_3.png","stimuli/stim023_inanimate_tools_3.png","stimuli/stim012_animate_face_4.png","383"
"html-button-response-mod","395","1636926","0.0-395.0","74181","","","","","","triplet","1671","","","","1","stimuli/tree_lowercase.png","stimuli/stim022_inanimate_tools_2.png","stimuli/boats_lowercase.png","384"
"html-button-response-mod","396","1639843","0.0-396.0","74181","","","","","","triplet","2410.600000023842","","","","2","stimuli/stim002_animate_fish_2.png","stimuli/stim016_inanimate_boats_4.png","stimuli/bird_uppercase.png","385"
"html-button-response-mod","397","1643655","0.0-397.0","74181","","","","","","triplet","3309.300000011921","","","","2","stimuli/stim020_inanimate_tree_4.png","stimuli/stim006_animate_bird_2.png","stimuli/stim015_inanimate_boats_3.png","386"
"html-button-response-mod","398","1646233","0.0-398.0","74181","","","","","","triplet","2073.199999988079","","","","0","stimuli/bird_uppercase.png","stimuli/stim018_inanimate_tree_2.png","stimuli/stim016_inanimate_boats_4.png","387"
"html-button-response-mod","399","1649007","0.0-399.0","74181","","","","","","triplet","2269.800000011921","","","","2","stimuli/stim003_animate_fish_3.png","stimuli/stim016_inanimate_boats_4.png","stimuli/fish_lowercase.png","388"
"html-button-response-mod","400","1650808","0.0-400.0","74181","","","","","","triplet","1296.7000000476837","","","","2","stimuli/stim010_animate_face_2.png","stimuli/stim021_inanimate_tools_1.png","stimuli/tools_lowercase.png","389"
"html-button-response-mod","401","1652101","0.0-401.0","74181","","","","","","triplet","788.5","","","","0","stimuli/tools_uppercase.png","stimuli/stim007_animate_bird_3.png","stimuli/stim014_inanimate_boats_2.png","390"
"html-button-response-mod","402","1654111","0.0-402.0","74181","","","","","","triplet","1503.4000000357628","","","","2","stimuli/boats_uppercase.png","stimuli/tree_uppercase.png","stimuli/tools_lowercase.png","391"
"html-button-response-mod","403","1657044","0.0-403.0","74181","","","","","","triplet","2428.699999988079","","","","2","stimuli/stim005_animate_bird_1.png","stimuli/stim018_inanimate_tree_2.png","stimuli/bird_uppercase.png","392"
"html-button-response-mod","404","1665308","0.0-404.0","74181","","","","","","triplet","7761","","","","0","stimuli/stim001_animate_fish_1.png","stimuli/stim007_animate_bird_3.png","stimuli/stim009_animate_face_1.png","393"
"html-button-response-mod","405","1666656","0.0-405.0","74181","","","","","","triplet","842.4000000357628","","","","1","stimuli/stim003_animate_fish_3.png","stimuli/fish_lowercase.png","stimuli/stim009_animate_face_1.png","394"
"html-button-response-mod","406","1671472","0.0-406.0","74181","","","","","","triplet","4311.900000035763","","","","0","stimuli/tree_uppercase.png","stimuli/stim002_animate_fish_2.png","stimuli/stim005_animate_bird_1.png","395"
"html-button-response-mod","407","1673897","0.0-407.0","74181","","","","","","triplet","1919.6000000238419","","","","1","stimuli/stim008_animate_bird_4.png","stimuli/tree_lowercase.png","stimuli/stim022_inanimate_tools_2.png","396"
"html-button-response-mod","408","1675270","0.0-408.0","74181","","","","","","triplet","871.1000000238419","","","","2","stimuli/stim009_animate_face_1.png","stimuli/stim021_inanimate_tools_1.png","stimuli/tree_lowercase.png","397"
"html-button-response-mod","409","1678048","0.0-409.0","74181","","","","","","triplet","2273.5","","","","1","stimuli/stim020_inanimate_tree_4.png","stimuli/stim015_inanimate_boats_3.png","stimuli/stim019_inanimate_tree_3.png","398"
"html-button-response-mod","410","1680334","0.0-410.0","74181","","","","","","triplet","1783","","","","1","stimuli/boats_lowercase.png","stimuli/face_uppercase.png","stimuli/fish_lowercase.png","399"
"html-button-response","411","1682046","0.0-411.0","74181","","","","","","break","1209.6000000238419","<p>BREAK</p><p>Take a break for as long as you need</p><p>Click the button to continue</p>","0","","","","","",""
"survey-text","412","1757781","0.0-412.0","74181","","","","","","data_patterns","75689.60000002384","","{""Q0"":""Pick by picture or text\nPick by animal or someone else.""}","","","","","",""
"survey-text","413","1760363","0.0-413.0","74181","","","","","","age_question","2576.899999976158","","{""Age"":""21""}","","","","","",""
"html-button-response","414","1762708","0.0-414.0","74181","","","","","","gender_question","2341","How would you like your gender to be recorded?","1","","","","","",""
