"trial_type","trial_index","time_elapsed","internal_node_id","subject","success","timeout","failed_images","failed_audio","failed_video","test_part","rt","stimulus","response","end_time","button_pressed","stim0","stim1","stim2","trialnr"
"pavlovia","0","5","0.0-0.0","74109","","","","","","","","","","","","","","",""
"preload","1","967","0.0-1.0","74109","true","false","[]","[]","[]","preload","","","","","","","","",""
"html-button-response","2","4322","0.0-2.0","74109","","","","","","","3353.7999999998137","<p>Welcome to the experiment. To begin, please read the following and press the button at the bottom of the screen.</p><p></p><p><strong>Project Name: A study on cognitive processes involved in visual perception</p></strong><p></p><p><strong>PARTICIPANT INFORMATION STATEMENT</strong></p><p></p><strong>(1) What is the study about?</strong><br>You are invited to participate in a study that investigates the cognitive processes involved in perceiving and recognizing visual stimuli.If you decide to participate, you will be asked to complete a task in which you will view pictures, letters, numbers, or words presented on a computer screen.<br><strong>(2) Who can participate?</strong><br>Anyone aged 18 years or over with access to a computer (not a phone/tablet)<br><strong>(3) Where is the study located?</strong><br>The study will be conducted in your browser<br><strong>(4) Who is carrying out the study?</strong><br>The study is being conducted by Sophia Shatek from the Computational Cognitive Neuroscience laboratory at the University of Sydney.<br><strong>(5) What does the study involve?</strong><br>In this study, you will be asked to perform tasks where you will see different stimuli appear on the computer screen.You will respond by pressing a key or using a computer mouse.<br><strong>(6) How much time will the study take?</strong><br>The study takes about 30 minutes<br><strong>(7)	Can I withdraw from the study?</strong><br>Being in this study is completely voluntary - you are not under any obligation to consent. You can withdraw at any time without having to give a reason and without penalty.<br><strong>(8) Will anyone else know the results?</strong><br>All aspects of the study, including results, will be strictly confidential and only the researchers will have access to information on participants.The results and data from the study may be submitted for publication or shared with other research labs, but individual participants will not be identifiable.<br><strong>(9) Will the study benefit me?</strong><br>You will be awarded 0.5 credits for your participation.<br><strong>(10) Can I tell other people about the study?</strong><br>Yes, please tell them to contact Dr Thomas Carlson by email at thomas.carlson@sydney.edu.au.<br><strong>(11) What if I require further information about the study or my involvement in it?</strong><br>When you have read this information, the investigator will discuss it with you further and answer any questions you may have.If you would like to know more at any stage, please feel free to contact Dr Thomas Carlson directly by email at thomas.carlson@sydney.edu.au.If you would like to be informed about the outcomes of the study, contact Dr Thomas Carlson directly by email at thomas.carlson@sydney.edu.au.<br><strong>(12) What if I have a complaint or any concerns?</strong><br>Any person with concerns or complaints about the conduct of a research study can contact The Manager,Human Ethics Administration, University of Sydney on +61 2 8627 8176 (Telephone); +61 2 8627 8177 (Facsimile) or ro.humanethics@sydney.edu.au (Email).</p><p></p><strong>By participating in this experiment, you consent to participate in this study and acknowledge that:</strong><br>1. The procedures required for the project and the times involved have been explained to me, and any questions I have about the project have been answered to my satisfaction.<br>2.	I have read the Above Information Statement and have been given the opportunity to discuss the information and my involvement in the project with the researcher/s.<br>3. I understand that allowing my data to be used in research reports is completely voluntary - I am not under any obligation to consent.<br>4. I understand that my involvement is strictly confidential. I understand that any research data gathered from the results of the study may be publishedhowever no information about me will be used in any way that is identifiable.</p><p></p>","0","","","","","",""
"html-button-response","3","19805","0.0-3.0","74109","","","","","","opening_instructions","15482.09999999986","<p>In this experiment, you will see three images appear on the screen.</p><p>You need to click the 'odd one out', or the image </p><p>that LOOKS MOST DIFFERENT to the other two. </p><p>Just go with your intuition, don't spend too long thinking about each one.</p>","0","22691.199999999953","","","","",""
"html-button-response-mod","4","21821","0.0-4.0","74109","","","","","","triplet","2015.3999999999069","","","","1","stimuli/stim008_animate_bird_4.png","stimuli/face_uppercase.png","stimuli/stim006_animate_bird_2.png","0"
"html-button-response-mod","5","28214","0.0-5.0","74109","","","","","","triplet","5883.199999999953","","","","0","stimuli/stim016_inanimate_boats_4.png","stimuli/face_lowercase.png","stimuli/stim008_animate_bird_4.png","1"
"html-button-response-mod","6","36501","0.0-6.0","74109","","","","","","triplet","7784.700000000186","","","","0","stimuli/stim015_inanimate_boats_3.png","stimuli/bird_uppercase.png","stimuli/stim009_animate_face_1.png","2"
"html-button-response-mod","7","40372","0.0-7.0","74109","","","","","","triplet","3354.3000000000466","","","","0","stimuli/stim015_inanimate_boats_3.png","stimuli/stim007_animate_bird_3.png","stimuli/fish_lowercase.png","3"
"html-button-response-mod","8","45394","0.0-8.0","74109","","","","","","triplet","4512.09999999986","","","","0","stimuli/face_uppercase.png","stimuli/stim003_animate_fish_3.png","stimuli/boats_uppercase.png","4"
"html-button-response-mod","9","48520","0.0-9.0","74109","","","","","","triplet","2623.9000000001397","","","","1","stimuli/stim016_inanimate_boats_4.png","stimuli/stim023_inanimate_tools_3.png","stimuli/stim014_inanimate_boats_2.png","5"
"html-button-response-mod","10","52113","0.0-10.0","74109","","","","","","triplet","3089.3000000000466","","","","2","stimuli/face_uppercase.png","stimuli/face_lowercase.png","stimuli/stim013_inanimate_boats_1.png","6"
"html-button-response-mod","11","54623","0.0-11.0","74109","","","","","","triplet","2007.7000000001863","","","","1","stimuli/stim010_animate_face_2.png","stimuli/stim021_inanimate_tools_1.png","stimuli/stim005_animate_bird_1.png","7"
"html-button-response-mod","12","57890","0.0-12.0","74109","","","","","","triplet","2749.3000000000466","","","","0","stimuli/stim015_inanimate_boats_3.png","stimuli/stim021_inanimate_tools_1.png","stimuli/stim009_animate_face_1.png","8"
"html-button-response-mod","13","60479","0.0-13.0","74109","","","","","","triplet","2088.5","","","","2","stimuli/fish_uppercase.png","stimuli/stim003_animate_fish_3.png","stimuli/stim014_inanimate_boats_2.png","9"
"html-button-response-mod","14","63203","0.0-14.0","74109","","","","","","triplet","2219.899999999907","","","","1","stimuli/stim012_animate_face_4.png","stimuli/stim018_inanimate_tree_2.png","stimuli/stim014_inanimate_boats_2.png","10"
"html-button-response-mod","15","65707","0.0-15.0","74109","","","","","","triplet","2002.6000000000931","","","","0","stimuli/stim006_animate_bird_2.png","stimuli/stim001_animate_fish_1.png","stimuli/stim004_animate_fish_4.png","11"
"html-button-response-mod","16","67743","0.0-16.0","74109","","","","","","triplet","1525.0999999998603","","","","0","stimuli/stim001_animate_fish_1.png","stimuli/stim013_inanimate_boats_1.png","stimuli/stim014_inanimate_boats_2.png","12"
"html-button-response-mod","17","71983","0.0-17.0","74109","","","","","","triplet","3728","","","","0","stimuli/stim022_inanimate_tools_2.png","stimuli/tree_uppercase.png","stimuli/stim006_animate_bird_2.png","13"
"html-button-response-mod","18","73881","0.0-18.0","74109","","","","","","triplet","1382.6999999999534","","","","1","stimuli/stim020_inanimate_tree_4.png","stimuli/stim023_inanimate_tools_3.png","stimuli/tree_uppercase.png","14"
"html-button-response-mod","19","75763","0.0-19.0","74109","","","","","","triplet","1368","","","","0","stimuli/fish_uppercase.png","stimuli/stim020_inanimate_tree_4.png","stimuli/tree_lowercase.png","15"
"html-button-response-mod","20","77560","0.0-20.0","74109","","","","","","triplet","1293.5","","","","1","stimuli/stim015_inanimate_boats_3.png","stimuli/bird_uppercase.png","stimuli/stim014_inanimate_boats_2.png","16"
"html-button-response-mod","21","80253","0.0-21.0","74109","","","","","","triplet","2185.6999999999534","","","","0","stimuli/stim024_inanimate_tools_4.png","stimuli/fish_uppercase.png","stimuli/stim007_animate_bird_3.png","17"
"html-button-response-mod","22","83962","0.0-22.0","74109","","","","","","triplet","3208.1999999999534","","","","2","stimuli/stim015_inanimate_boats_3.png","stimuli/fish_uppercase.png","stimuli/face_uppercase.png","18"
"html-button-response-mod","23","88399","0.0-23.0","74109","","","","","","triplet","3928.600000000093","","","","0","stimuli/stim024_inanimate_tools_4.png","stimuli/tree_uppercase.png","stimuli/stim007_animate_bird_3.png","19"
"html-button-response-mod","24","91417","0.0-24.0","74109","","","","","","triplet","2512.9000000001397","","","","0","stimuli/stim001_animate_fish_1.png","stimuli/tools_uppercase.png","stimuli/stim015_inanimate_boats_3.png","20"
"html-button-response-mod","25","93158","0.0-25.0","74109","","","","","","triplet","1240.1000000000931","","","","1","stimuli/tools_uppercase.png","stimuli/stim002_animate_fish_2.png","stimuli/stim022_inanimate_tools_2.png","21"
"html-button-response-mod","26","94966","0.0-26.0","74109","","","","","","triplet","1298.1999999999534","","","","2","stimuli/stim007_animate_bird_3.png","stimuli/bird_lowercase.png","stimuli/tools_lowercase.png","22"
"html-button-response-mod","27","102863","0.0-27.0","74109","","","","","","triplet","7389.199999999953","","","","1","stimuli/stim005_animate_bird_1.png","stimuli/stim023_inanimate_tools_3.png","stimuli/stim016_inanimate_boats_4.png","23"
"html-button-response-mod","28","104696","0.0-28.0","74109","","","","","","triplet","1331.5","","","","2","stimuli/stim020_inanimate_tree_4.png","stimuli/stim018_inanimate_tree_2.png","stimuli/stim003_animate_fish_3.png","24"
"html-button-response-mod","29","106972","0.0-29.0","74109","","","","","","triplet","1773.5999999998603","","","","1","stimuli/stim005_animate_bird_1.png","stimuli/stim024_inanimate_tools_4.png","stimuli/bird_lowercase.png","25"
"html-button-response-mod","30","109671","0.0-30.0","74109","","","","","","triplet","2186","","","","0","stimuli/boats_lowercase.png","stimuli/stim011_animate_face_3.png","stimuli/bird_lowercase.png","26"
"html-button-response-mod","31","113582","0.0-31.0","74109","","","","","","triplet","3395","","","","1","stimuli/stim020_inanimate_tree_4.png","stimuli/stim009_animate_face_1.png","stimuli/fish_uppercase.png","27"
"html-button-response-mod","32","116708","0.0-32.0","74109","","","","","","triplet","2611.1999999999534","","","","2","stimuli/stim024_inanimate_tools_4.png","stimuli/tools_uppercase.png","stimuli/stim003_animate_fish_3.png","28"
"html-button-response-mod","33","118411","0.0-33.0","74109","","","","","","triplet","1201.8000000000466","","","","1","stimuli/stim020_inanimate_tree_4.png","stimuli/boats_uppercase.png","stimuli/tree_uppercase.png","29"
"html-button-response-mod","34","120615","0.0-34.0","74109","","","","","","triplet","1687.6000000000931","","","","1","stimuli/stim004_animate_fish_4.png","stimuli/face_lowercase.png","stimuli/fish_lowercase.png","30"
"html-button-response-mod","35","124101","0.0-35.0","74109","","","","","","triplet","2981.0999999998603","","","","2","stimuli/fish_uppercase.png","stimuli/face_lowercase.png","stimuli/tools_lowercase.png","31"
"html-button-response-mod","36","126239","0.0-36.0","74109","","","","","","triplet","1635.0999999998603","","","","2","stimuli/face_uppercase.png","stimuli/face_lowercase.png","stimuli/stim022_inanimate_tools_2.png","32"
"html-button-response-mod","37","130388","0.0-37.0","74109","","","","","","triplet","3640.600000000093","","","","1","stimuli/stim018_inanimate_tree_2.png","stimuli/stim004_animate_fish_4.png","stimuli/stim005_animate_bird_1.png","33"
"html-button-response-mod","38","132589","0.0-38.0","74109","","","","","","triplet","1696.3000000000466","","","","2","stimuli/stim004_animate_fish_4.png","stimuli/stim013_inanimate_boats_1.png","stimuli/tree_uppercase.png","34"
"html-button-response-mod","39","135397","0.0-39.0","74109","","","","","","triplet","2301.7999999998137","","","","1","stimuli/stim019_inanimate_tree_3.png","stimuli/bird_uppercase.png","stimuli/stim015_inanimate_boats_3.png","35"
"html-button-response-mod","40","138084","0.0-40.0","74109","","","","","","triplet","2184.899999999907","","","","1","stimuli/bird_lowercase.png","stimuli/stim023_inanimate_tools_3.png","stimuli/boats_uppercase.png","36"
"html-button-response-mod","41","140078","0.0-41.0","74109","","","","","","triplet","1487","","","","1","stimuli/stim018_inanimate_tree_2.png","stimuli/tools_lowercase.png","stimuli/stim021_inanimate_tools_1.png","37"
"html-button-response-mod","42","142200","0.0-42.0","74109","","","","","","triplet","1616.8000000000466","","","","2","stimuli/stim014_inanimate_boats_2.png","stimuli/stim009_animate_face_1.png","stimuli/tools_lowercase.png","38"
"html-button-response-mod","43","146348","0.0-43.0","74109","","","","","","triplet","3642.6999999999534","","","","0","stimuli/stim009_animate_face_1.png","stimuli/stim017_inanimate_tree_1.png","stimuli/stim016_inanimate_boats_4.png","39"
"html-button-response-mod","44","149330","0.0-44.0","74109","","","","","","triplet","2468.6999999999534","","","","0","stimuli/stim024_inanimate_tools_4.png","stimuli/bird_lowercase.png","stimuli/face_uppercase.png","40"
"html-button-response-mod","45","151611","0.0-45.0","74109","","","","","","triplet","1772.5","","","","0","stimuli/tools_lowercase.png","stimuli/stim011_animate_face_3.png","stimuli/stim018_inanimate_tree_2.png","41"
"html-button-response-mod","46","154040","0.0-46.0","74109","","","","","","triplet","1923.8000000000466","","","","2","stimuli/stim008_animate_bird_4.png","stimuli/stim007_animate_bird_3.png","stimuli/stim011_animate_face_3.png","42"
"html-button-response-mod","47","156870","0.0-47.0","74109","","","","","","triplet","2314.2999999998137","","","","0","stimuli/stim012_animate_face_4.png","stimuli/boats_lowercase.png","stimuli/stim023_inanimate_tools_3.png","43"
"html-button-response-mod","48","158827","0.0-48.0","74109","","","","","","triplet","1454.8999999999069","","","","0","stimuli/face_lowercase.png","stimuli/stim022_inanimate_tools_2.png","stimuli/tools_uppercase.png","44"
"html-button-response-mod","49","161373","0.0-49.0","74109","","","","","","triplet","2044.6000000000931","","","","1","stimuli/stim003_animate_fish_3.png","stimuli/tools_uppercase.png","stimuli/stim005_animate_bird_1.png","45"
"html-button-response-mod","50","162663","0.0-50.0","74109","","","","","","triplet","775","","","","2","stimuli/stim004_animate_fish_4.png","stimuli/stim003_animate_fish_3.png","stimuli/boats_lowercase.png","46"
"html-button-response-mod","51","164051","0.0-51.0","74109","","","","","","triplet","883","","","","1","stimuli/stim005_animate_bird_1.png","stimuli/tree_uppercase.png","stimuli/stim018_inanimate_tree_2.png","47"
"html-button-response-mod","52","165551","0.0-52.0","74109","","","","","","triplet","995.2999999998137","","","","1","stimuli/stim008_animate_bird_4.png","stimuli/bird_uppercase.png","stimuli/stim020_inanimate_tree_4.png","48"
"html-button-response-mod","53","167237","0.0-53.0","74109","","","","","","triplet","1179.1000000000931","","","","0","stimuli/stim008_animate_bird_4.png","stimuli/stim014_inanimate_boats_2.png","stimuli/stim016_inanimate_boats_4.png","49"
"html-button-response","54","168877","0.0-54.0","74109","","","","","","break","1134.6999999997206","<p>BREAK</p><p>Take a break for as long as you need</p><p>Click the button to continue</p>","0","","","","","",""
"html-button-response-mod","55","172819","0.0-55.0","74109","","","","","","triplet","3941.899999999907","","","","2","stimuli/stim004_animate_fish_4.png","stimuli/stim017_inanimate_tree_1.png","stimuli/stim021_inanimate_tools_1.png","50"
"html-button-response-mod","56","174070","0.0-56.0","74109","","","","","","triplet","745.7999999998137","","","","2","stimuli/stim015_inanimate_boats_3.png","stimuli/stim018_inanimate_tree_2.png","stimuli/boats_uppercase.png","51"
"html-button-response-mod","57","176157","0.0-57.0","74109","","","","","","triplet","1581.5","","","","1","stimuli/face_lowercase.png","stimuli/tools_uppercase.png","stimuli/stim009_animate_face_1.png","52"
"html-button-response-mod","58","179059","0.0-58.0","74109","","","","","","triplet","2400.899999999907","","","","2","stimuli/stim004_animate_fish_4.png","stimuli/stim019_inanimate_tree_3.png","stimuli/stim021_inanimate_tools_1.png","53"
"html-button-response-mod","59","183020","0.0-59.0","74109","","","","","","triplet","3445.600000000093","","","","0","stimuli/stim016_inanimate_boats_4.png","stimuli/stim008_animate_bird_4.png","stimuli/stim020_inanimate_tree_4.png","54"
"html-button-response-mod","60","184773","0.0-60.0","74109","","","","","","triplet","1250.7999999998137","","","","1","stimuli/stim010_animate_face_2.png","stimuli/tools_uppercase.png","stimuli/stim001_animate_fish_1.png","55"
"html-button-response-mod","61","190086","0.0-61.0","74109","","","","","","triplet","4808.5","","","","2","stimuli/stim017_inanimate_tree_1.png","stimuli/stim004_animate_fish_4.png","stimuli/stim010_animate_face_2.png","56"
"html-button-response-mod","62","192123","0.0-62.0","74109","","","","","","triplet","1535.2000000001863","","","","1","stimuli/stim010_animate_face_2.png","stimuli/boats_uppercase.png","stimuli/stim017_inanimate_tree_1.png","57"
"html-button-response-mod","63","194493","0.0-63.0","74109","","","","","","triplet","1864.3000000002794","","","","0","stimuli/stim014_inanimate_boats_2.png","stimuli/stim012_animate_face_4.png","stimuli/stim006_animate_bird_2.png","58"
"html-button-response-mod","64","196183","0.0-64.0","74109","","","","","","triplet","1188.7999999998137","","","","1","stimuli/stim005_animate_bird_1.png","stimuli/stim010_animate_face_2.png","stimuli/bird_lowercase.png","59"
"html-button-response-mod","65","198782","0.0-65.0","74109","","","","","","triplet","2095.7999999998137","","","","0","stimuli/face_uppercase.png","stimuli/stim017_inanimate_tree_1.png","stimuli/stim001_animate_fish_1.png","60"
"html-button-response-mod","66","200462","0.0-66.0","74109","","","","","","triplet","1175.6000000000931","","","","1","stimuli/tree_lowercase.png","stimuli/stim008_animate_bird_4.png","stimuli/fish_lowercase.png","61"
"html-button-response-mod","67","202389","0.0-67.0","74109","","","","","","triplet","1424.2000000001863","","","","1","stimuli/tools_uppercase.png","stimuli/stim004_animate_fish_4.png","stimuli/boats_lowercase.png","62"
"html-button-response-mod","68","205322","0.0-68.0","74109","","","","","","triplet","2429.8000000002794","","","","2","stimuli/stim006_animate_bird_2.png","stimuli/bird_lowercase.png","stimuli/stim005_animate_bird_1.png","63"
"html-button-response-mod","69","208552","0.0-69.0","74109","","","","","","triplet","2728.600000000093","","","","2","stimuli/stim024_inanimate_tools_4.png","stimuli/stim007_animate_bird_3.png","stimuli/tree_lowercase.png","64"
"html-button-response-mod","70","210955","0.0-70.0","74109","","","","","","triplet","1890.5","","","","1","stimuli/stim010_animate_face_2.png","stimuli/stim024_inanimate_tools_4.png","stimuli/stim002_animate_fish_2.png","65"
"html-button-response-mod","71","213722","0.0-71.0","74109","","","","","","triplet","2251.399999999907","","","","0","stimuli/stim016_inanimate_boats_4.png","stimuli/stim024_inanimate_tools_4.png","stimuli/tools_lowercase.png","66"
"html-button-response-mod","72","216176","0.0-72.0","74109","","","","","","triplet","1952.1000000000931","","","","1","stimuli/stim010_animate_face_2.png","stimuli/boats_uppercase.png","stimuli/stim007_animate_bird_3.png","67"
"html-button-response-mod","73","217725","0.0-73.0","74109","","","","","","triplet","1034","","","","0","stimuli/tools_lowercase.png","stimuli/stim018_inanimate_tree_2.png","stimuli/stim007_animate_bird_3.png","68"
"html-button-response-mod","74","220512","0.0-74.0","74109","","","","","","triplet","2279.4000000003725","","","","2","stimuli/stim015_inanimate_boats_3.png","stimuli/stim007_animate_bird_3.png","stimuli/stim012_animate_face_4.png","69"
"html-button-response-mod","75","224051","0.0-75.0","74109","","","","","","triplet","3029.600000000093","","","","1","stimuli/stim016_inanimate_boats_4.png","stimuli/stim007_animate_bird_3.png","stimuli/stim018_inanimate_tree_2.png","70"
"html-button-response-mod","76","226185","0.0-76.0","74109","","","","","","triplet","1617.7000000001863","","","","2","stimuli/tree_uppercase.png","stimuli/stim014_inanimate_boats_2.png","stimuli/stim021_inanimate_tools_1.png","71"
"html-button-response-mod","77","227326","0.0-77.0","74109","","","","","","triplet","629.2000000001863","","","","2","stimuli/stim014_inanimate_boats_2.png","stimuli/stim003_animate_fish_3.png","stimuli/tools_uppercase.png","72"
"html-button-response-mod","78","228835","0.0-78.0","74109","","","","","","triplet","1003.4000000003725","","","","0","stimuli/stim020_inanimate_tree_4.png","stimuli/stim007_animate_bird_3.png","stimuli/stim005_animate_bird_1.png","73"
"html-button-response-mod","79","230203","0.0-79.0","74109","","","","","","triplet","857.1999999997206","","","","2","stimuli/stim020_inanimate_tree_4.png","stimuli/stim013_inanimate_boats_1.png","stimuli/tree_uppercase.png","74"
"html-button-response-mod","80","232587","0.0-80.0","74109","","","","","","triplet","1880.6000000000931","","","","2","stimuli/stim023_inanimate_tools_3.png","stimuli/stim006_animate_bird_2.png","stimuli/stim011_animate_face_3.png","75"
"html-button-response-mod","81","234535","0.0-81.0","74109","","","","","","triplet","1441.2000000001863","","","","0","stimuli/stim024_inanimate_tools_4.png","stimuli/stim005_animate_bird_1.png","stimuli/stim001_animate_fish_1.png","76"
"html-button-response-mod","82","236154","0.0-82.0","74109","","","","","","triplet","1106.1000000000931","","","","0","stimuli/stim003_animate_fish_3.png","stimuli/stim009_animate_face_1.png","stimuli/stim012_animate_face_4.png","77"
"html-button-response-mod","83","239701","0.0-83.0","74109","","","","","","triplet","3044.5","","","","0","stimuli/tools_uppercase.png","stimuli/stim023_inanimate_tools_3.png","stimuli/stim021_inanimate_tools_1.png","78"
"html-button-response-mod","84","241098","0.0-84.0","74109","","","","","","triplet","891.6000000000931","","","","1","stimuli/stim021_inanimate_tools_1.png","stimuli/fish_uppercase.png","stimuli/stim010_animate_face_2.png","79"
"html-button-response-mod","85","242735","0.0-85.0","74109","","","","","","triplet","1135.2999999998137","","","","1","stimuli/stim011_animate_face_3.png","stimuli/tools_uppercase.png","stimuli/stim012_animate_face_4.png","80"
"html-button-response-mod","86","244594","0.0-86.0","74109","","","","","","triplet","1349.4000000003725","","","","2","stimuli/stim022_inanimate_tools_2.png","stimuli/tools_lowercase.png","stimuli/stim007_animate_bird_3.png","81"
"html-button-response-mod","87","245974","0.0-87.0","74109","","","","","","triplet","874.5","","","","1","stimuli/stim012_animate_face_4.png","stimuli/tree_lowercase.png","stimuli/stim006_animate_bird_2.png","82"
"html-button-response-mod","88","248764","0.0-88.0","74109","","","","","","triplet","2284.600000000093","","","","0","stimuli/bird_lowercase.png","stimuli/boats_uppercase.png","stimuli/boats_lowercase.png","83"
"html-button-response-mod","89","250654","0.0-89.0","74109","","","","","","triplet","1387.5","","","","0","stimuli/stim017_inanimate_tree_1.png","stimuli/stim005_animate_bird_1.png","stimuli/stim014_inanimate_boats_2.png","84"
"html-button-response-mod","90","252371","0.0-90.0","74109","","","","","","triplet","1202.9000000003725","","","","1","stimuli/stim021_inanimate_tools_1.png","stimuli/face_uppercase.png","stimuli/stim004_animate_fish_4.png","85"
"html-button-response-mod","91","254760","0.0-91.0","74109","","","","","","triplet","1872.8000000002794","","","","0","stimuli/stim018_inanimate_tree_2.png","stimuli/stim003_animate_fish_3.png","stimuli/stim009_animate_face_1.png","86"
"html-button-response-mod","92","255745","0.0-92.0","74109","","","","","","triplet","483.10000000009313","","","","1","stimuli/stim003_animate_fish_3.png","stimuli/boats_lowercase.png","stimuli/stim011_animate_face_3.png","87"
"html-button-response-mod","93","257500","0.0-93.0","74109","","","","","","triplet","1244.7000000001863","","","","2","stimuli/stim017_inanimate_tree_1.png","stimuli/stim023_inanimate_tools_3.png","stimuli/boats_uppercase.png","88"
"html-button-response-mod","94","260561","0.0-94.0","74109","","","","","","triplet","2545.100000000093","","","","2","stimuli/stim015_inanimate_boats_3.png","stimuli/fish_uppercase.png","stimuli/tree_uppercase.png","89"
"html-button-response-mod","95","262067","0.0-95.0","74109","","","","","","triplet","1000.7000000001863","","","","1","stimuli/stim011_animate_face_3.png","stimuli/tree_lowercase.png","stimuli/stim004_animate_fish_4.png","90"
"html-button-response-mod","96","264168","0.0-96.0","74109","","","","","","triplet","1593.8999999999069","","","","2","stimuli/stim021_inanimate_tools_1.png","stimuli/stim004_animate_fish_4.png","stimuli/bird_lowercase.png","91"
"html-button-response-mod","97","265477","0.0-97.0","74109","","","","","","triplet","803.5","","","","0","stimuli/tree_lowercase.png","stimuli/stim023_inanimate_tools_3.png","stimuli/stim009_animate_face_1.png","92"
"html-button-response-mod","98","266987","0.0-98.0","74109","","","","","","triplet","1008.1999999997206","","","","0","stimuli/stim008_animate_bird_4.png","stimuli/stim020_inanimate_tree_4.png","stimuli/stim017_inanimate_tree_1.png","93"
"html-button-response-mod","99","270724","0.0-99.0","74109","","","","","","triplet","3222.5","","","","1","stimuli/stim024_inanimate_tools_4.png","stimuli/stim015_inanimate_boats_3.png","stimuli/stim018_inanimate_tree_2.png","94"
"html-button-response-mod","100","272453","0.0-100.0","74109","","","","","","triplet","1228.6999999997206","","","","2","stimuli/stim007_animate_bird_3.png","stimuli/stim016_inanimate_boats_4.png","stimuli/face_lowercase.png","95"
"html-button-response-mod","101","273376","0.0-101.0","74109","","","","","","triplet","420.89999999990687","","","","1","stimuli/stim016_inanimate_boats_4.png","stimuli/tools_lowercase.png","stimuli/stim013_inanimate_boats_1.png","96"
"html-button-response-mod","102","274880","0.0-102.0","74109","","","","","","triplet","1000","","","","2","stimuli/stim002_animate_fish_2.png","stimuli/stim004_animate_fish_4.png","stimuli/tree_uppercase.png","97"
"html-button-response-mod","103","275971","0.0-103.0","74109","","","","","","triplet","589.2999999998137","","","","2","stimuli/stim010_animate_face_2.png","stimuli/stim017_inanimate_tree_1.png","stimuli/tree_uppercase.png","98"
"html-button-response-mod","104","277943","0.0-104.0","74109","","","","","","triplet","1466.5","","","","2","stimuli/stim016_inanimate_boats_4.png","stimuli/stim015_inanimate_boats_3.png","stimuli/stim023_inanimate_tools_3.png","99"
"html-button-response","105","279354","0.0-105.0","74109","","","","","","break","908.3999999999069","<p>BREAK</p><p>Take a break for as long as you need</p><p>Click the button to continue</p>","0","","","","","",""
"html-button-response-mod","106","280707","0.0-106.0","74109","","","","","","triplet","1352.9000000003725","","","","2","stimuli/stim002_animate_fish_2.png","stimuli/stim009_animate_face_1.png","stimuli/bird_uppercase.png","100"
"html-button-response-mod","107","282643","0.0-107.0","74109","","","","","","triplet","1428.1000000000931","","","","2","stimuli/stim002_animate_fish_2.png","stimuli/stim004_animate_fish_4.png","stimuli/stim013_inanimate_boats_1.png","101"
"html-button-response-mod","108","285130","0.0-108.0","74109","","","","","","triplet","1974","","","","0","stimuli/stim004_animate_fish_4.png","stimuli/tree_lowercase.png","stimuli/boats_lowercase.png","102"
"html-button-response-mod","109","287897","0.0-109.0","74109","","","","","","triplet","2265.100000000093","","","","0","stimuli/bird_lowercase.png","stimuli/stim024_inanimate_tools_4.png","stimuli/stim013_inanimate_boats_1.png","103"
"html-button-response-mod","110","291580","0.0-110.0","74109","","","","","","triplet","3181.4000000003725","","","","0","stimuli/bird_uppercase.png","stimuli/boats_lowercase.png","stimuli/tools_lowercase.png","104"
"html-button-response-mod","111","293453","0.0-111.0","74109","","","","","","triplet","1359.3000000002794","","","","2","stimuli/bird_lowercase.png","stimuli/tree_lowercase.png","stimuli/stim009_animate_face_1.png","105"
"html-button-response-mod","112","296610","0.0-112.0","74109","","","","","","triplet","2651.899999999907","","","","2","stimuli/boats_uppercase.png","stimuli/bird_uppercase.png","stimuli/stim002_animate_fish_2.png","106"
"html-button-response-mod","113","300327","0.0-113.0","74109","","","","","","triplet","3217.7999999998137","","","","0","stimuli/stim014_inanimate_boats_2.png","stimuli/stim012_animate_face_4.png","stimuli/stim001_animate_fish_1.png","107"
"html-button-response-mod","114","301897","0.0-114.0","74109","","","","","","triplet","1053.1000000000931","","","","0","stimuli/stim010_animate_face_2.png","stimuli/fish_lowercase.png","stimuli/stim002_animate_fish_2.png","108"
"html-button-response-mod","115","304086","0.0-115.0","74109","","","","","","triplet","1686.6999999997206","","","","2","stimuli/stim021_inanimate_tools_1.png","stimuli/stim016_inanimate_boats_4.png","stimuli/stim002_animate_fish_2.png","109"
"html-button-response-mod","116","306703","0.0-116.0","74109","","","","","","triplet","2114.399999999907","","","","2","stimuli/tree_lowercase.png","stimuli/face_lowercase.png","stimuli/stim022_inanimate_tools_2.png","110"
"html-button-response-mod","117","307943","0.0-117.0","74109","","","","","","triplet","736.7999999998137","","","","2","stimuli/stim002_animate_fish_2.png","stimuli/stim001_animate_fish_1.png","stimuli/tree_lowercase.png","111"
"html-button-response-mod","118","309356","0.0-118.0","74109","","","","","","triplet","900.1999999997206","","","","1","stimuli/stim010_animate_face_2.png","stimuli/face_lowercase.png","stimuli/stim013_inanimate_boats_1.png","112"
"html-button-response-mod","119","312323","0.0-119.0","74109","","","","","","triplet","2453.1999999997206","","","","1","stimuli/fish_lowercase.png","stimuli/stim024_inanimate_tools_4.png","stimuli/stim016_inanimate_boats_4.png","113"
"html-button-response-mod","120","314679","0.0-120.0","74109","","","","","","triplet","1855.2999999998137","","","","2","stimuli/stim001_animate_fish_1.png","stimuli/stim023_inanimate_tools_3.png","stimuli/bird_uppercase.png","114"
"html-button-response-mod","121","316123","0.0-121.0","74109","","","","","","triplet","940.7000000001863","","","","0","stimuli/stim018_inanimate_tree_2.png","stimuli/stim007_animate_bird_3.png","stimuli/stim010_animate_face_2.png","115"
"html-button-response-mod","122","317792","0.0-122.0","74109","","","","","","triplet","1168.3999999999069","","","","0","stimuli/stim015_inanimate_boats_3.png","stimuli/bird_lowercase.png","stimuli/fish_lowercase.png","116"
"html-button-response-mod","123","319513","0.0-123.0","74109","","","","","","triplet","1218.6000000000931","","","","0","stimuli/boats_uppercase.png","stimuli/stim014_inanimate_boats_2.png","stimuli/stim017_inanimate_tree_1.png","117"
"html-button-response-mod","124","320912","0.0-124.0","74109","","","","","","triplet","898.3999999999069","","","","1","stimuli/bird_uppercase.png","stimuli/stim006_animate_bird_2.png","stimuli/tools_lowercase.png","118"
"html-button-response-mod","125","322534","0.0-125.0","74109","","","","","","triplet","1119.3999999999069","","","","2","stimuli/stim016_inanimate_boats_4.png","stimuli/stim022_inanimate_tools_2.png","stimuli/fish_uppercase.png","119"
"html-button-response-mod","126","323832","0.0-126.0","74109","","","","","","triplet","782.3999999999069","","","","0","stimuli/face_lowercase.png","stimuli/stim019_inanimate_tree_3.png","stimuli/stim020_inanimate_tree_4.png","120"
"html-button-response-mod","127","325706","0.0-127.0","74109","","","","","","triplet","1362","","","","0","stimuli/face_lowercase.png","stimuli/tools_uppercase.png","stimuli/stim024_inanimate_tools_4.png","121"
"html-button-response-mod","128","328616","0.0-128.0","74109","","","","","","triplet","2400.600000000093","","","","0","stimuli/boats_lowercase.png","stimuli/stim013_inanimate_boats_1.png","stimuli/stim003_animate_fish_3.png","122"
"html-button-response-mod","129","329929","0.0-129.0","74109","","","","","","triplet","808.5","","","","1","stimuli/stim020_inanimate_tree_4.png","stimuli/tree_uppercase.png","stimuli/stim016_inanimate_boats_4.png","123"
"html-button-response-mod","130","331015","0.0-130.0","74109","","","","","","triplet","571.8999999999069","","","","1","stimuli/stim022_inanimate_tools_2.png","stimuli/tools_lowercase.png","stimuli/stim011_animate_face_3.png","124"
"html-button-response-mod","131","332289","0.0-131.0","74109","","","","","","triplet","772","","","","2","stimuli/stim020_inanimate_tree_4.png","stimuli/stim019_inanimate_tree_3.png","stimuli/stim012_animate_face_4.png","125"
"html-button-response-mod","132","335272","0.0-132.0","74109","","","","","","triplet","2479.5","","","","2","stimuli/stim005_animate_bird_1.png","stimuli/stim002_animate_fish_2.png","stimuli/stim016_inanimate_boats_4.png","126"
"html-button-response-mod","133","336539","0.0-133.0","74109","","","","","","triplet","757.5","","","","1","stimuli/stim010_animate_face_2.png","stimuli/face_lowercase.png","stimuli/stim019_inanimate_tree_3.png","127"
"html-button-response-mod","134","338108","0.0-134.0","74109","","","","","","triplet","1054.2000000001863","","","","1","stimuli/stim008_animate_bird_4.png","stimuli/stim014_inanimate_boats_2.png","stimuli/stim003_animate_fish_3.png","128"
"html-button-response-mod","135","342372","0.0-135.0","74109","","","","","","triplet","3752.899999999907","","","","2","stimuli/bird_lowercase.png","stimuli/fish_lowercase.png","stimuli/tools_lowercase.png","129"
"html-button-response-mod","136","343541","0.0-136.0","74109","","","","","","triplet","668.3999999999069","","","","1","stimuli/bird_lowercase.png","stimuli/stim002_animate_fish_2.png","stimuli/boats_lowercase.png","130"
"html-button-response-mod","137","344625","0.0-137.0","74109","","","","","","triplet","570.8000000002794","","","","2","stimuli/face_lowercase.png","stimuli/boats_uppercase.png","stimuli/stim021_inanimate_tools_1.png","131"
"html-button-response-mod","138","346165","0.0-138.0","74109","","","","","","triplet","1036.6000000000931","","","","0","stimuli/boats_uppercase.png","stimuli/stim022_inanimate_tools_2.png","stimuli/stim001_animate_fish_1.png","132"
"html-button-response-mod","139","347368","0.0-139.0","74109","","","","","","triplet","699.6000000000931","","","","0","stimuli/stim022_inanimate_tools_2.png","stimuli/bird_lowercase.png","stimuli/stim015_inanimate_boats_3.png","133"
"html-button-response-mod","140","348675","0.0-140.0","74109","","","","","","triplet","795.8999999999069","","","","1","stimuli/stim015_inanimate_boats_3.png","stimuli/tree_uppercase.png","stimuli/stim018_inanimate_tree_2.png","134"
"html-button-response-mod","141","352416","0.0-141.0","74109","","","","","","triplet","3239.0999999996275","","","","0","stimuli/tree_lowercase.png","stimuli/fish_uppercase.png","stimuli/face_uppercase.png","135"
"html-button-response-mod","142","353755","0.0-142.0","74109","","","","","","triplet","832.1000000000931","","","","2","stimuli/stim009_animate_face_1.png","stimuli/stim019_inanimate_tree_3.png","stimuli/tree_lowercase.png","136"
"html-button-response-mod","143","355175","0.0-143.0","74109","","","","","","triplet","913.3999999999069","","","","0","stimuli/fish_lowercase.png","stimuli/stim013_inanimate_boats_1.png","stimuli/stim010_animate_face_2.png","137"
"html-button-response-mod","144","358370","0.0-144.0","74109","","","","","","triplet","2679.5","","","","0","stimuli/stim018_inanimate_tree_2.png","stimuli/stim010_animate_face_2.png","stimuli/stim013_inanimate_boats_1.png","138"
"html-button-response-mod","145","359466","0.0-145.0","74109","","","","","","triplet","580.7999999998137","","","","2","stimuli/stim011_animate_face_3.png","stimuli/stim010_animate_face_2.png","stimuli/fish_lowercase.png","139"
"html-button-response-mod","146","360960","0.0-146.0","74109","","","","","","triplet","989.1999999997206","","","","1","stimuli/stim005_animate_bird_1.png","stimuli/stim009_animate_face_1.png","stimuli/stim001_animate_fish_1.png","140"
"html-button-response-mod","147","363058","0.0-147.0","74109","","","","","","triplet","1583.8999999999069","","","","1","stimuli/stim011_animate_face_3.png","stimuli/stim024_inanimate_tools_4.png","stimuli/stim001_animate_fish_1.png","141"
"html-button-response-mod","148","364361","0.0-148.0","74109","","","","","","triplet","795.3000000002794","","","","0","stimuli/stim011_animate_face_3.png","stimuli/bird_uppercase.png","stimuli/tree_lowercase.png","142"
"html-button-response-mod","149","365939","0.0-149.0","74109","","","","","","triplet","1066.2999999998137","","","","1","stimuli/stim007_animate_bird_3.png","stimuli/stim017_inanimate_tree_1.png","stimuli/stim023_inanimate_tools_3.png","143"
"html-button-response-mod","150","367656","0.0-150.0","74109","","","","","","triplet","1214.6999999997206","","","","2","stimuli/tree_uppercase.png","stimuli/bird_lowercase.png","stimuli/stim019_inanimate_tree_3.png","144"
"html-button-response-mod","151","369070","0.0-151.0","74109","","","","","","triplet","909.7999999998137","","","","0","stimuli/stim011_animate_face_3.png","stimuli/stim018_inanimate_tree_2.png","stimuli/stim007_animate_bird_3.png","145"
"html-button-response-mod","152","370169","0.0-152.0","74109","","","","","","triplet","596.7000000001863","","","","0","stimuli/boats_lowercase.png","stimuli/stim003_animate_fish_3.png","stimuli/stim002_animate_fish_2.png","146"
"html-button-response-mod","153","371339","0.0-153.0","74109","","","","","","triplet","658.5","","","","1","stimuli/stim022_inanimate_tools_2.png","stimuli/boats_lowercase.png","stimuli/stim008_animate_bird_4.png","147"
"html-button-response-mod","154","372493","0.0-154.0","74109","","","","","","triplet","651.8999999999069","","","","0","stimuli/tree_lowercase.png","stimuli/stim006_animate_bird_2.png","stimuli/stim001_animate_fish_1.png","148"
"html-button-response-mod","155","374096","0.0-155.0","74109","","","","","","triplet","1087.6000000000931","","","","2","stimuli/boats_uppercase.png","stimuli/fish_uppercase.png","stimuli/stim017_inanimate_tree_1.png","149"
"html-button-response","156","375190","0.0-156.0","74109","","","","","","break","592.3999999999069","<p>BREAK</p><p>Take a break for as long as you need</p><p>Click the button to continue</p>","0","","","","","",""
"html-button-response-mod","157","375934","0.0-157.0","74109","","","","","","triplet","743.6000000000931","","","","0","stimuli/boats_uppercase.png","stimuli/stim005_animate_bird_1.png","stimuli/stim021_inanimate_tools_1.png","150"
"html-button-response-mod","158","377249","0.0-158.0","74109","","","","","","triplet","814.5","","","","1","stimuli/tree_uppercase.png","stimuli/stim023_inanimate_tools_3.png","stimuli/bird_lowercase.png","151"
"html-button-response-mod","159","379017","0.0-159.0","74109","","","","","","triplet","1265.6000000000931","","","","1","stimuli/boats_lowercase.png","stimuli/stim018_inanimate_tree_2.png","stimuli/tools_uppercase.png","152"
"html-button-response-mod","160","381507","0.0-160.0","74109","","","","","","triplet","1979.8000000002794","","","","2","stimuli/stim006_animate_bird_2.png","stimuli/stim001_animate_fish_1.png","stimuli/stim022_inanimate_tools_2.png","153"
"html-button-response-mod","161","382789","0.0-161.0","74109","","","","","","triplet","775.3999999999069","","","","0","stimuli/stim007_animate_bird_3.png","stimuli/boats_uppercase.png","stimuli/fish_lowercase.png","154"
"html-button-response-mod","162","384332","0.0-162.0","74109","","","","","","triplet","1036.6999999997206","","","","2","stimuli/stim013_inanimate_boats_1.png","stimuli/stim005_animate_bird_1.png","stimuli/stim024_inanimate_tools_4.png","155"
"html-button-response-mod","163","386216","0.0-163.0","74109","","","","","","triplet","1379.5","","","","0","stimuli/boats_lowercase.png","stimuli/face_uppercase.png","stimuli/tools_uppercase.png","156"
"html-button-response-mod","164","387613","0.0-164.0","74109","","","","","","triplet","879.5","","","","1","stimuli/stim002_animate_fish_2.png","stimuli/boats_uppercase.png","stimuli/stim010_animate_face_2.png","157"
"html-button-response-mod","165","389019","0.0-165.0","74109","","","","","","triplet","898.3000000002794","","","","2","stimuli/stim002_animate_fish_2.png","stimuli/stim021_inanimate_tools_1.png","stimuli/boats_lowercase.png","158"
"html-button-response-mod","166","390602","0.0-166.0","74109","","","","","","triplet","1080.6999999997206","","","","0","stimuli/stim012_animate_face_4.png","stimuli/stim004_animate_fish_4.png","stimuli/stim020_inanimate_tree_4.png","159"
"html-button-response-mod","167","391832","0.0-167.0","74109","","","","","","triplet","727.6000000000931","","","","1","stimuli/stim016_inanimate_boats_4.png","stimuli/bird_uppercase.png","stimuli/stim006_animate_bird_2.png","160"
"html-button-response-mod","168","392959","0.0-168.0","74109","","","","","","triplet","621.6999999997206","","","","0","stimuli/bird_uppercase.png","stimuli/stim007_animate_bird_3.png","stimuli/stim009_animate_face_1.png","161"
"html-button-response-mod","169","394629","0.0-169.0","74109","","","","","","triplet","1164","","","","0","stimuli/stim018_inanimate_tree_2.png","stimuli/stim011_animate_face_3.png","stimuli/stim012_animate_face_4.png","162"
"html-button-response-mod","170","396062","0.0-170.0","74109","","","","","","triplet","929","","","","2","stimuli/stim023_inanimate_tools_3.png","stimuli/stim016_inanimate_boats_4.png","stimuli/tree_uppercase.png","163"
"html-button-response-mod","171","397222","0.0-171.0","74109","","","","","","triplet","655.1000000000931","","","","1","stimuli/stim003_animate_fish_3.png","stimuli/face_lowercase.png","stimuli/stim017_inanimate_tree_1.png","164"
"html-button-response-mod","172","398462","0.0-172.0","74109","","","","","","triplet","737.4000000003725","","","","2","stimuli/bird_lowercase.png","stimuli/bird_uppercase.png","stimuli/stim018_inanimate_tree_2.png","165"
"html-button-response-mod","173","400732","0.0-173.0","74109","","","","","","triplet","1765.3999999999069","","","","2","stimuli/stim016_inanimate_boats_4.png","stimuli/stim020_inanimate_tree_4.png","stimuli/fish_lowercase.png","166"
"html-button-response-mod","174","402490","0.0-174.0","74109","","","","","","triplet","1253.3999999999069","","","","0","stimuli/stim023_inanimate_tools_3.png","stimuli/stim004_animate_fish_4.png","stimuli/stim020_inanimate_tree_4.png","167"
"html-button-response-mod","175","403952","0.0-175.0","74109","","","","","","triplet","959.5999999996275","","","","0","stimuli/stim014_inanimate_boats_2.png","stimuli/tools_lowercase.png","stimuli/boats_lowercase.png","168"
"html-button-response-mod","176","405158","0.0-176.0","74109","","","","","","triplet","691.7999999998137","","","","2","stimuli/stim015_inanimate_boats_3.png","stimuli/stim006_animate_bird_2.png","stimuli/face_uppercase.png","169"
"html-button-response-mod","177","406252","0.0-177.0","74109","","","","","","triplet","589.1999999997206","","","","2","stimuli/stim016_inanimate_boats_4.png","stimuli/stim012_animate_face_4.png","stimuli/bird_lowercase.png","170"
"html-button-response-mod","178","408009","0.0-178.0","74109","","","","","","triplet","1242.5","","","","2","stimuli/stim013_inanimate_boats_1.png","stimuli/stim017_inanimate_tree_1.png","stimuli/fish_uppercase.png","171"
"html-button-response-mod","179","409752","0.0-179.0","74109","","","","","","triplet","1231.2999999998137","","","","0","stimuli/stim023_inanimate_tools_3.png","stimuli/stim018_inanimate_tree_2.png","stimuli/stim006_animate_bird_2.png","172"
"html-button-response-mod","180","411373","0.0-180.0","74109","","","","","","triplet","1109.8999999999069","","","","1","stimuli/face_uppercase.png","stimuli/stim023_inanimate_tools_3.png","stimuli/tree_uppercase.png","173"
"html-button-response-mod","181","412432","0.0-181.0","74109","","","","","","triplet","555.1000000000931","","","","1","stimuli/stim011_animate_face_3.png","stimuli/stim021_inanimate_tools_1.png","stimuli/stim003_animate_fish_3.png","174"
"html-button-response-mod","182","413571","0.0-182.0","74109","","","","","","triplet","637.6000000000931","","","","2","stimuli/stim004_animate_fish_4.png","stimuli/stim023_inanimate_tools_3.png","stimuli/stim019_inanimate_tree_3.png","175"
"html-button-response-mod","183","414878","0.0-183.0","74109","","","","","","triplet","799.1000000000931","","","","0","stimuli/fish_uppercase.png","stimuli/stim011_animate_face_3.png","stimuli/stim021_inanimate_tools_1.png","176"
"html-button-response-mod","184","416301","0.0-184.0","74109","","","","","","triplet","915.5","","","","1","stimuli/stim005_animate_bird_1.png","stimuli/stim021_inanimate_tools_1.png","stimuli/stim001_animate_fish_1.png","177"
"html-button-response-mod","185","417454","0.0-185.0","74109","","","","","","triplet","651.5","","","","2","stimuli/stim023_inanimate_tools_3.png","stimuli/stim017_inanimate_tree_1.png","stimuli/fish_uppercase.png","178"
"html-button-response-mod","186","418582","0.0-186.0","74109","","","","","","triplet","614.6999999997206","","","","1","stimuli/stim012_animate_face_4.png","stimuli/bird_lowercase.png","stimuli/stim013_inanimate_boats_1.png","179"
"html-button-response-mod","187","419642","0.0-187.0","74109","","","","","","triplet","558.5","","","","0","stimuli/bird_lowercase.png","stimuli/stim004_animate_fish_4.png","stimuli/stim007_animate_bird_3.png","180"
"html-button-response-mod","188","421082","0.0-188.0","74109","","","","","","triplet","929.7000000001863","","","","1","stimuli/face_lowercase.png","stimuli/stim002_animate_fish_2.png","stimuli/tree_lowercase.png","181"
"html-button-response-mod","189","423526","0.0-189.0","74109","","","","","","triplet","1929.6999999997206","","","","1","stimuli/stim022_inanimate_tools_2.png","stimuli/face_uppercase.png","stimuli/stim017_inanimate_tree_1.png","182"
"html-button-response-mod","190","425425","0.0-190.0","74109","","","","","","triplet","1382","","","","2","stimuli/stim014_inanimate_boats_2.png","stimuli/stim023_inanimate_tools_3.png","stimuli/stim012_animate_face_4.png","183"
"html-button-response-mod","191","429288","0.0-191.0","74109","","","","","","triplet","3358.5","","","","0","stimuli/face_uppercase.png","stimuli/stim021_inanimate_tools_1.png","stimuli/stim007_animate_bird_3.png","184"
"html-button-response-mod","192","442248","0.0-192.0","74109","","","","","","triplet","12446.299999999814","","","","1","stimuli/stim015_inanimate_boats_3.png","stimuli/boats_uppercase.png","stimuli/stim013_inanimate_boats_1.png","185"
"html-button-response-mod","193","444459","0.0-193.0","74109","","","","","","triplet","1694.8999999999069","","","","1","stimuli/tree_lowercase.png","stimuli/stim005_animate_bird_1.png","stimuli/face_lowercase.png","186"
"html-button-response-mod","194","446237","0.0-194.0","74109","","","","","","triplet","1271.7999999998137","","","","0","stimuli/bird_uppercase.png","stimuli/stim001_animate_fish_1.png","stimuli/stim002_animate_fish_2.png","187"
"html-button-response-mod","195","447862","0.0-195.0","74109","","","","","","triplet","1123.8000000002794","","","","2","stimuli/tree_lowercase.png","stimuli/fish_uppercase.png","stimuli/stim021_inanimate_tools_1.png","188"
"html-button-response-mod","196","449131","0.0-196.0","74109","","","","","","triplet","768","","","","1","stimuli/stim014_inanimate_boats_2.png","stimuli/stim010_animate_face_2.png","stimuli/stim001_animate_fish_1.png","189"
"html-button-response-mod","197","451721","0.0-197.0","74109","","","","","","triplet","2085.600000000093","","","","2","stimuli/stim013_inanimate_boats_1.png","stimuli/stim006_animate_bird_2.png","stimuli/fish_lowercase.png","190"
"html-button-response-mod","198","453525","0.0-198.0","74109","","","","","","triplet","1300","","","","0","stimuli/tools_lowercase.png","stimuli/bird_uppercase.png","stimuli/face_uppercase.png","191"
"html-button-response-mod","199","455657","0.0-199.0","74109","","","","","","triplet","1614.7000000001863","","","","1","stimuli/stim024_inanimate_tools_4.png","stimuli/face_uppercase.png","stimuli/stim009_animate_face_1.png","192"
"html-button-response-mod","200","457945","0.0-200.0","74109","","","","","","triplet","1787.2000000001863","","","","0","stimuli/stim001_animate_fish_1.png","stimuli/boats_lowercase.png","stimuli/stim014_inanimate_boats_2.png","193"
"html-button-response-mod","201","459990","0.0-201.0","74109","","","","","","triplet","1536.1000000000931","","","","0","stimuli/stim006_animate_bird_2.png","stimuli/face_uppercase.png","stimuli/tools_uppercase.png","194"
"html-button-response-mod","202","461655","0.0-202.0","74109","","","","","","triplet","1157.7999999998137","","","","0","stimuli/tree_lowercase.png","stimuli/bird_uppercase.png","stimuli/boats_uppercase.png","195"
"html-button-response-mod","203","463574","0.0-203.0","74109","","","","","","triplet","1407.3000000002794","","","","1","stimuli/stim015_inanimate_boats_3.png","stimuli/face_lowercase.png","stimuli/stim021_inanimate_tools_1.png","196"
"html-button-response-mod","204","465067","0.0-204.0","74109","","","","","","triplet","976.1000000000931","","","","0","stimuli/stim016_inanimate_boats_4.png","stimuli/face_uppercase.png","stimuli/tools_lowercase.png","197"
"html-button-response-mod","205","466160","0.0-205.0","74109","","","","","","triplet","579.7999999998137","","","","2","stimuli/boats_lowercase.png","stimuli/fish_lowercase.png","stimuli/stim016_inanimate_boats_4.png","198"
"html-button-response-mod","206","467698","0.0-206.0","74109","","","","","","triplet","1033.5","","","","1","stimuli/stim017_inanimate_tree_1.png","stimuli/bird_uppercase.png","stimuli/stim007_animate_bird_3.png","199"
"html-button-response","207","469203","0.0-207.0","74109","","","","","","break","1001.1999999997206","<p>BREAK</p><p>Take a break for as long as you need</p><p>Click the button to continue</p>","0","","","","","",""
"html-button-response-mod","208","470034","0.0-208.0","74109","","","","","","triplet","829.8999999999069","","","","2","stimuli/stim001_animate_fish_1.png","stimuli/stim013_inanimate_boats_1.png","stimuli/tree_uppercase.png","200"
"html-button-response-mod","209","470830","0.0-209.0","74109","","","","","","triplet","295","","","","2","stimuli/stim011_animate_face_3.png","stimuli/stim014_inanimate_boats_2.png","stimuli/stim020_inanimate_tree_4.png","201"
"html-button-response-mod","210","471650","0.0-210.0","74109","","","","","","triplet","313.90000000037253","","","","2","stimuli/stim004_animate_fish_4.png","stimuli/stim019_inanimate_tree_3.png","stimuli/tree_uppercase.png","202"
"html-button-response-mod","211","472491","0.0-211.0","74109","","","","","","triplet","339.39999999990687","","","","1","stimuli/stim001_animate_fish_1.png","stimuli/fish_lowercase.png","stimuli/face_uppercase.png","203"
"html-button-response-mod","212","473230","0.0-212.0","74109","","","","","","triplet","230.5","","","","0","stimuli/stim023_inanimate_tools_3.png","stimuli/stim014_inanimate_boats_2.png","stimuli/bird_lowercase.png","204"
"html-button-response-mod","213","473884","0.0-213.0","74109","","","","","","triplet","138.6999999997206","","","","0","stimuli/stim021_inanimate_tools_1.png","stimuli/stim015_inanimate_boats_3.png","stimuli/face_uppercase.png","205"
"html-button-response-mod","214","474507","0.0-214.0","74109","","","","","","triplet","115.20000000018626","","","","1","stimuli/stim010_animate_face_2.png","stimuli/fish_uppercase.png","stimuli/stim022_inanimate_tools_2.png","206"
"html-button-response-mod","215","475710","0.0-215.0","74109","","","","","","triplet","691.7000000001863","","","","2","stimuli/tools_uppercase.png","stimuli/stim024_inanimate_tools_4.png","stimuli/stim011_animate_face_3.png","207"
"html-button-response-mod","216","476467","0.0-216.0","74109","","","","","","triplet","254.59999999962747","","","","2","stimuli/stim009_animate_face_1.png","stimuli/stim015_inanimate_boats_3.png","stimuli/stim010_animate_face_2.png","208"
"html-button-response-mod","217","477213","0.0-217.0","74109","","","","","","triplet","235.8000000002794","","","","1","stimuli/stim013_inanimate_boats_1.png","stimuli/stim002_animate_fish_2.png","stimuli/stim021_inanimate_tools_1.png","209"
"html-button-response-mod","218","477907","0.0-218.0","74109","","","","","","triplet","180","","","","0","stimuli/bird_lowercase.png","stimuli/stim008_animate_bird_4.png","stimuli/stim024_inanimate_tools_4.png","210"
"html-button-response-mod","219","479307","0.0-219.0","74109","","","","","","triplet","898.5","","","","1","stimuli/tools_uppercase.png","stimuli/stim006_animate_bird_2.png","stimuli/stim014_inanimate_boats_2.png","211"
"html-button-response-mod","220","480960","0.0-220.0","74109","","","","","","triplet","1146.5","","","","2","stimuli/tree_uppercase.png","stimuli/stim008_animate_bird_4.png","stimuli/boats_uppercase.png","212"
"html-button-response-mod","221","482120","0.0-221.0","74109","","","","","","triplet","646.6000000000931","","","","0","stimuli/stim003_animate_fish_3.png","stimuli/stim002_animate_fish_2.png","stimuli/face_uppercase.png","213"
"html-button-response-mod","222","482843","0.0-222.0","74109","","","","","","triplet","220.6999999997206","","","","0","stimuli/bird_uppercase.png","stimuli/stim011_animate_face_3.png","stimuli/tools_uppercase.png","214"
"html-button-response-mod","223","483517","0.0-223.0","74109","","","","","","triplet","171.10000000009313","","","","0","stimuli/stim015_inanimate_boats_3.png","stimuli/stim017_inanimate_tree_1.png","stimuli/stim008_animate_bird_4.png","215"
"html-button-response-mod","224","484756","0.0-224.0","74109","","","","","","triplet","726.8999999999069","","","","2","stimuli/stim023_inanimate_tools_3.png","stimuli/stim010_animate_face_2.png","stimuli/tree_uppercase.png","216"
"html-button-response-mod","225","485541","0.0-225.0","74109","","","","","","triplet","282.29999999981374","","","","2","stimuli/stim008_animate_bird_4.png","stimuli/stim009_animate_face_1.png","stimuli/stim003_animate_fish_3.png","217"
"html-button-response-mod","226","486296","0.0-226.0","74109","","","","","","triplet","250.70000000018626","","","","0","stimuli/face_lowercase.png","stimuli/stim009_animate_face_1.png","stimuli/stim023_inanimate_tools_3.png","218"
"html-button-response-mod","227","486927","0.0-227.0","74109","","","","","","triplet","114.79999999981374","","","","0","stimuli/stim005_animate_bird_1.png","stimuli/stim011_animate_face_3.png","stimuli/tools_uppercase.png","219"
"html-button-response-mod","228","487903","0.0-228.0","74109","","","","","","triplet","474.10000000009313","","","","2","stimuli/tree_lowercase.png","stimuli/stim005_animate_bird_1.png","stimuli/stim016_inanimate_boats_4.png","220"
"html-button-response-mod","229","488573","0.0-229.0","74109","","","","","","triplet","162.60000000009313","","","","2","stimuli/stim002_animate_fish_2.png","stimuli/stim009_animate_face_1.png","stimuli/stim022_inanimate_tools_2.png","221"
"html-button-response-mod","230","489243","0.0-230.0","74109","","","","","","triplet","163.6999999997206","","","","1","stimuli/stim020_inanimate_tree_4.png","stimuli/stim021_inanimate_tools_1.png","stimuli/stim016_inanimate_boats_4.png","222"
"html-button-response-mod","231","489940","0.0-231.0","74109","","","","","","triplet","188.60000000009313","","","","1","stimuli/tree_lowercase.png","stimuli/stim010_animate_face_2.png","stimuli/stim016_inanimate_boats_4.png","223"
"html-button-response-mod","232","491430","0.0-232.0","74109","","","","","","triplet","986.7000000001863","","","","1","stimuli/stim002_animate_fish_2.png","stimuli/stim021_inanimate_tools_1.png","stimuli/fish_lowercase.png","224"
"html-button-response-mod","233","492166","0.0-233.0","74109","","","","","","triplet","219.5","","","","0","stimuli/tools_lowercase.png","stimuli/stim011_animate_face_3.png","stimuli/stim010_animate_face_2.png","225"
"html-button-response-mod","234","492896","0.0-234.0","74109","","","","","","triplet","213.79999999981374","","","","0","stimuli/face_lowercase.png","stimuli/stim023_inanimate_tools_3.png","stimuli/stim024_inanimate_tools_4.png","226"
"html-button-response-mod","235","493637","0.0-235.0","74109","","","","","","triplet","231.5","","","","2","stimuli/stim006_animate_bird_2.png","stimuli/stim021_inanimate_tools_1.png","stimuli/face_uppercase.png","227"
"html-button-response-mod","236","494429","0.0-236.0","74109","","","","","","triplet","282.79999999981374","","","","2","stimuli/tools_uppercase.png","stimuli/face_lowercase.png","stimuli/tree_uppercase.png","228"
"html-button-response-mod","237","495209","0.0-237.0","74109","","","","","","triplet","266.1999999997206","","","","2","stimuli/stim001_animate_fish_1.png","stimuli/stim024_inanimate_tools_4.png","stimuli/stim020_inanimate_tree_4.png","229"
"html-button-response-mod","238","495992","0.0-238.0","74109","","","","","","triplet","282.1999999997206","","","","2","stimuli/tools_uppercase.png","stimuli/stim016_inanimate_boats_4.png","stimuli/stim006_animate_bird_2.png","230"
"html-button-response-mod","239","497330","0.0-239.0","74109","","","","","","triplet","831.2000000001863","","","","1","stimuli/tools_uppercase.png","stimuli/tree_uppercase.png","stimuli/face_uppercase.png","231"
"html-button-response-mod","240","498039","0.0-240.0","74109","","","","","","triplet","198.6999999997206","","","","1","stimuli/stim002_animate_fish_2.png","stimuli/stim008_animate_bird_4.png","stimuli/boats_uppercase.png","232"
"html-button-response-mod","241","498650","0.0-241.0","74109","","","","","","triplet","103.10000000009313","","","","1","stimuli/stim013_inanimate_boats_1.png","stimuli/stim006_animate_bird_2.png","stimuli/stim009_animate_face_1.png","233"
"html-button-response-mod","242","499980","0.0-242.0","74109","","","","","","triplet","826.3000000002794","","","","0","stimuli/bird_lowercase.png","stimuli/fish_lowercase.png","stimuli/stim001_animate_fish_1.png","234"
"html-button-response-mod","243","500783","0.0-243.0","74109","","","","","","triplet","301.8000000002794","","","","0","stimuli/tree_lowercase.png","stimuli/stim003_animate_fish_3.png","stimuli/stim009_animate_face_1.png","235"
"html-button-response-mod","244","501430","0.0-244.0","74109","","","","","","triplet","144.39999999990687","","","","2","stimuli/boats_lowercase.png","stimuli/stim012_animate_face_4.png","stimuli/stim014_inanimate_boats_2.png","236"
"html-button-response-mod","245","502163","0.0-245.0","74109","","","","","","triplet","225.70000000018626","","","","0","stimuli/stim012_animate_face_4.png","stimuli/face_lowercase.png","stimuli/stim007_animate_bird_3.png","237"
"html-button-response-mod","246","502809","0.0-246.0","74109","","","","","","triplet","137.40000000037253","","","","2","stimuli/stim007_animate_bird_3.png","stimuli/stim006_animate_bird_2.png","stimuli/boats_uppercase.png","238"
"html-button-response-mod","247","503464","0.0-247.0","74109","","","","","","triplet","150.8000000002794","","","","0","stimuli/stim024_inanimate_tools_4.png","stimuli/stim006_animate_bird_2.png","stimuli/boats_lowercase.png","239"
"html-button-response-mod","248","504269","0.0-248.0","74109","","","","","","triplet","292.39999999990687","","","","2","stimuli/fish_uppercase.png","stimuli/stim021_inanimate_tools_1.png","stimuli/stim013_inanimate_boats_1.png","240"
"html-button-response-mod","249","504886","0.0-249.0","74109","","","","","","triplet","105.59999999962747","","","","0","stimuli/stim010_animate_face_2.png","stimuli/stim006_animate_bird_2.png","stimuli/bird_lowercase.png","241"
"html-button-response-mod","250","505545","0.0-250.0","74109","","","","","","triplet","157.59999999962747","","","","2","stimuli/stim007_animate_bird_3.png","stimuli/bird_lowercase.png","stimuli/stim018_inanimate_tree_2.png","242"
"html-button-response-mod","251","506326","0.0-251.0","74109","","","","","","triplet","278.1999999997206","","","","0","stimuli/stim008_animate_bird_4.png","stimuli/stim001_animate_fish_1.png","stimuli/stim020_inanimate_tree_4.png","243"
"html-button-response-mod","252","507086","0.0-252.0","74109","","","","","","triplet","252.90000000037253","","","","2","stimuli/stim015_inanimate_boats_3.png","stimuli/stim022_inanimate_tools_2.png","stimuli/boats_uppercase.png","244"
"html-button-response-mod","253","507869","0.0-253.0","74109","","","","","","triplet","277.10000000009313","","","","0","stimuli/stim019_inanimate_tree_3.png","stimuli/bird_lowercase.png","stimuli/stim012_animate_face_4.png","245"
"html-button-response-mod","254","508686","0.0-254.0","74109","","","","","","triplet","315.39999999990687","","","","2","stimuli/bird_lowercase.png","stimuli/boats_lowercase.png","stimuli/tree_lowercase.png","246"
"html-button-response-mod","255","509440","0.0-255.0","74109","","","","","","triplet","247.79999999981374","","","","0","stimuli/stim020_inanimate_tree_4.png","stimuli/stim016_inanimate_boats_4.png","stimuli/boats_uppercase.png","247"
"html-button-response-mod","256","510162","0.0-256.0","74109","","","","","","triplet","204.89999999990687","","","","2","stimuli/stim010_animate_face_2.png","stimuli/stim008_animate_bird_4.png","stimuli/stim001_animate_fish_1.png","248"
"html-button-response-mod","257","510858","0.0-257.0","74109","","","","","","triplet","189.79999999981374","","","","0","stimuli/stim011_animate_face_3.png","stimuli/stim014_inanimate_boats_2.png","stimuli/stim017_inanimate_tree_1.png","249"
"html-button-response","258","512115","0.0-258.0","74109","","","","","","break","748.1000000000931","<p>BREAK</p><p>Take a break for as long as you need</p><p>Click the button to continue</p>","0","","","","","",""
"html-button-response-mod","259","513206","0.0-259.0","74109","","","","","","triplet","1090.3000000002794","","","","1","stimuli/bird_lowercase.png","stimuli/stim021_inanimate_tools_1.png","stimuli/face_uppercase.png","250"
"html-button-response-mod","260","514273","0.0-260.0","74109","","","","","","triplet","565.5","","","","0","stimuli/stim022_inanimate_tools_2.png","stimuli/boats_uppercase.png","stimuli/fish_uppercase.png","251"
"html-button-response-mod","261","515369","0.0-261.0","74109","","","","","","triplet","595.3000000002794","","","","2","stimuli/stim011_animate_face_3.png","stimuli/tools_lowercase.png","stimuli/tools_uppercase.png","252"
"html-button-response-mod","262","516376","0.0-262.0","74109","","","","","","triplet","490.60000000009313","","","","1","stimuli/stim017_inanimate_tree_1.png","stimuli/stim002_animate_fish_2.png","stimuli/bird_lowercase.png","253"
"html-button-response-mod","263","517018","0.0-263.0","74109","","","","","","triplet","131.59999999962747","","","","2","stimuli/stim019_inanimate_tree_3.png","stimuli/tree_lowercase.png","stimuli/stim018_inanimate_tree_2.png","254"
"html-button-response-mod","264","518359","0.0-264.0","74109","","","","","","triplet","838.5","","","","1","stimuli/boats_lowercase.png","stimuli/bird_uppercase.png","stimuli/stim016_inanimate_boats_4.png","255"
"html-button-response-mod","265","519280","0.0-265.0","74109","","","","","","triplet","412.90000000037253","","","","1","stimuli/stim014_inanimate_boats_2.png","stimuli/boats_lowercase.png","stimuli/stim013_inanimate_boats_1.png","256"
"html-button-response-mod","266","520128","0.0-266.0","74109","","","","","","triplet","338.39999999990687","","","","1","stimuli/stim018_inanimate_tree_2.png","stimuli/stim001_animate_fish_1.png","stimuli/tree_uppercase.png","257"
"html-button-response-mod","267","521284","0.0-267.0","74109","","","","","","triplet","654.2999999998137","","","","0","stimuli/stim019_inanimate_tree_3.png","stimuli/tree_uppercase.png","stimuli/tree_lowercase.png","258"
"html-button-response-mod","268","521911","0.0-268.0","74109","","","","","","triplet","118.10000000009313","","","","2","stimuli/stim018_inanimate_tree_2.png","stimuli/stim008_animate_bird_4.png","stimuli/face_lowercase.png","259"
"html-button-response-mod","269","522659","0.0-269.0","74109","","","","","","triplet","246.39999999990687","","","","0","stimuli/stim023_inanimate_tools_3.png","stimuli/stim015_inanimate_boats_3.png","stimuli/fish_uppercase.png","260"
"html-button-response-mod","270","523417","0.0-270.0","74109","","","","","","triplet","247.89999999990687","","","","1","stimuli/stim013_inanimate_boats_1.png","stimuli/stim018_inanimate_tree_2.png","stimuli/stim021_inanimate_tools_1.png","261"
"html-button-response-mod","271","524183","0.0-271.0","74109","","","","","","triplet","254.10000000009313","","","","0","stimuli/boats_uppercase.png","stimuli/stim015_inanimate_boats_3.png","stimuli/stim017_inanimate_tree_1.png","262"
"html-button-response-mod","272","524961","0.0-272.0","74109","","","","","","triplet","271.10000000009313","","","","2","stimuli/stim006_animate_bird_2.png","stimuli/tools_uppercase.png","stimuli/stim021_inanimate_tools_1.png","263"
"html-button-response-mod","273","525758","0.0-273.0","74109","","","","","","triplet","286.5","","","","1","stimuli/boats_uppercase.png","stimuli/tree_uppercase.png","stimuli/stim004_animate_fish_4.png","264"
"html-button-response-mod","274","526556","0.0-274.0","74109","","","","","","triplet","282.39999999990687","","","","2","stimuli/stim005_animate_bird_1.png","stimuli/boats_uppercase.png","stimuli/tree_lowercase.png","265"
"html-button-response-mod","275","527277","0.0-275.0","74109","","","","","","triplet","219.60000000009313","","","","0","stimuli/stim023_inanimate_tools_3.png","stimuli/bird_lowercase.png","stimuli/stim015_inanimate_boats_3.png","266"
"html-button-response-mod","276","528055","0.0-276.0","74109","","","","","","triplet","271.5","","","","2","stimuli/stim022_inanimate_tools_2.png","stimuli/stim015_inanimate_boats_3.png","stimuli/tools_uppercase.png","267"
"html-button-response-mod","277","528812","0.0-277.0","74109","","","","","","triplet","255.60000000009313","","","","0","stimuli/stim017_inanimate_tree_1.png","stimuli/boats_uppercase.png","stimuli/stim007_animate_bird_3.png","268"
"html-button-response-mod","278","529791","0.0-278.0","74109","","","","","","triplet","468.40000000037253","","","","0","stimuli/stim015_inanimate_boats_3.png","stimuli/stim010_animate_face_2.png","stimuli/stim007_animate_bird_3.png","269"
"html-button-response-mod","279","530595","0.0-279.0","74109","","","","","","triplet","301.5","","","","2","stimuli/fish_uppercase.png","stimuli/boats_lowercase.png","stimuli/bird_lowercase.png","270"
"html-button-response-mod","280","531386","0.0-280.0","74109","","","","","","triplet","289.20000000018626","","","","0","stimuli/stim020_inanimate_tree_4.png","stimuli/stim014_inanimate_boats_2.png","stimuli/stim018_inanimate_tree_2.png","271"
"html-button-response-mod","281","532139","0.0-281.0","74109","","","","","","triplet","250.09999999962747","","","","2","stimuli/stim003_animate_fish_3.png","stimuli/boats_uppercase.png","stimuli/stim006_animate_bird_2.png","272"
"html-button-response-mod","282","533161","0.0-282.0","74109","","","","","","triplet","520.2999999998137","","","","1","stimuli/stim024_inanimate_tools_4.png","stimuli/bird_lowercase.png","stimuli/stim020_inanimate_tree_4.png","273"
"html-button-response-mod","283","533890","0.0-283.0","74109","","","","","","triplet","227.79999999981374","","","","0","stimuli/stim018_inanimate_tree_2.png","stimuli/stim017_inanimate_tree_1.png","stimuli/stim021_inanimate_tools_1.png","274"
"html-button-response-mod","284","534551","0.0-284.0","74109","","","","","","triplet","160","","","","2","stimuli/boats_uppercase.png","stimuli/stim010_animate_face_2.png","stimuli/tools_lowercase.png","275"
"html-button-response-mod","285","535343","0.0-285.0","74109","","","","","","triplet","277.8000000002794","","","","1","stimuli/stim021_inanimate_tools_1.png","stimuli/stim007_animate_bird_3.png","stimuli/stim012_animate_face_4.png","276"
"html-button-response-mod","286","536113","0.0-286.0","74109","","","","","","triplet","258.39999999990687","","","","0","stimuli/stim007_animate_bird_3.png","stimuli/stim013_inanimate_boats_1.png","stimuli/fish_lowercase.png","277"
"html-button-response-mod","287","536846","0.0-287.0","74109","","","","","","triplet","224.79999999981374","","","","0","stimuli/stim007_animate_bird_3.png","stimuli/stim004_animate_fish_4.png","stimuli/face_lowercase.png","278"
"html-button-response-mod","288","539258","0.0-288.0","74109","","","","","","triplet","1910.0999999996275","","","","2","stimuli/fish_uppercase.png","stimuli/bird_lowercase.png","stimuli/stim014_inanimate_boats_2.png","279"
"html-button-response-mod","289","540474","0.0-289.0","74109","","","","","","triplet","711.6000000000931","","","","0","stimuli/face_uppercase.png","stimuli/stim008_animate_bird_4.png","stimuli/stim007_animate_bird_3.png","280"
"html-button-response-mod","290","541239","0.0-290.0","74109","","","","","","triplet","262","","","","2","stimuli/stim004_animate_fish_4.png","stimuli/stim014_inanimate_boats_2.png","stimuli/tree_lowercase.png","281"
"html-button-response-mod","291","542110","0.0-291.0","74109","","","","","","triplet","366.79999999981374","","","","2","stimuli/face_lowercase.png","stimuli/stim013_inanimate_boats_1.png","stimuli/stim006_animate_bird_2.png","282"
"html-button-response-mod","292","542915","0.0-292.0","74109","","","","","","triplet","302.60000000009313","","","","0","stimuli/stim009_animate_face_1.png","stimuli/stim002_animate_fish_2.png","stimuli/stim016_inanimate_boats_4.png","283"
"html-button-response-mod","293","543613","0.0-293.0","74109","","","","","","triplet","183.10000000009313","","","","2","stimuli/bird_lowercase.png","stimuli/stim014_inanimate_boats_2.png","stimuli/stim010_animate_face_2.png","284"
"html-button-response-mod","294","544412","0.0-294.0","74109","","","","","","triplet","295.70000000018626","","","","0","stimuli/boats_lowercase.png","stimuli/bird_uppercase.png","stimuli/stim007_animate_bird_3.png","285"
"html-button-response-mod","295","545182","0.0-295.0","74109","","","","","","triplet","265","","","","1","stimuli/stim010_animate_face_2.png","stimuli/stim016_inanimate_boats_4.png","stimuli/stim003_animate_fish_3.png","286"
"html-button-response-mod","296","545836","0.0-296.0","74109","","","","","","triplet","134","","","","0","stimuli/tree_lowercase.png","stimuli/stim002_animate_fish_2.png","stimuli/fish_lowercase.png","287"
"html-button-response-mod","297","546551","0.0-297.0","74109","","","","","","triplet","210.8000000002794","","","","1","stimuli/stim024_inanimate_tools_4.png","stimuli/stim012_animate_face_4.png","stimuli/stim019_inanimate_tree_3.png","288"
"html-button-response-mod","298","547617","0.0-298.0","74109","","","","","","triplet","551.5","","","","1","stimuli/tools_uppercase.png","stimuli/stim006_animate_bird_2.png","stimuli/fish_lowercase.png","289"
"html-button-response-mod","299","548394","0.0-299.0","74109","","","","","","triplet","270.1999999997206","","","","1","stimuli/stim004_animate_fish_4.png","stimuli/tools_lowercase.png","stimuli/stim012_animate_face_4.png","290"
"html-button-response-mod","300","549090","0.0-300.0","74109","","","","","","triplet","187.3000000002794","","","","0","stimuli/stim018_inanimate_tree_2.png","stimuli/stim007_animate_bird_3.png","stimuli/stim012_animate_face_4.png","291"
"html-button-response-mod","301","549778","0.0-301.0","74109","","","","","","triplet","184.70000000018626","","","","2","stimuli/stim002_animate_fish_2.png","stimuli/stim019_inanimate_tree_3.png","stimuli/stim006_animate_bird_2.png","292"
"html-button-response-mod","302","550550","0.0-302.0","74109","","","","","","triplet","262.60000000009313","","","","0","stimuli/stim006_animate_bird_2.png","stimuli/tools_uppercase.png","stimuli/face_lowercase.png","293"
"html-button-response-mod","303","551240","0.0-303.0","74109","","","","","","triplet","180.5","","","","2","stimuli/tree_lowercase.png","stimuli/stim006_animate_bird_2.png","stimuli/face_lowercase.png","294"
"html-button-response-mod","304","551864","0.0-304.0","74109","","","","","","triplet","119.3000000002794","","","","0","stimuli/stim006_animate_bird_2.png","stimuli/stim014_inanimate_boats_2.png","stimuli/stim013_inanimate_boats_1.png","295"
"html-button-response-mod","305","552494","0.0-305.0","74109","","","","","","triplet","122.70000000018626","","","","2","stimuli/stim022_inanimate_tools_2.png","stimuli/bird_lowercase.png","stimuli/stim020_inanimate_tree_4.png","296"
"html-button-response-mod","306","553159","0.0-306.0","74109","","","","","","triplet","162.10000000009313","","","","0","stimuli/stim004_animate_fish_4.png","stimuli/stim006_animate_bird_2.png","stimuli/stim023_inanimate_tools_3.png","297"
"html-button-response-mod","307","553811","0.0-307.0","74109","","","","","","triplet","150.6999999997206","","","","1","stimuli/stim009_animate_face_1.png","stimuli/tree_uppercase.png","stimuli/stim023_inanimate_tools_3.png","298"
"html-button-response-mod","308","554456","0.0-308.0","74109","","","","","","triplet","136.6999999997206","","","","0","stimuli/stim007_animate_bird_3.png","stimuli/stim020_inanimate_tree_4.png","stimuli/stim015_inanimate_boats_3.png","299"
"html-button-response","309","556010","0.0-309.0","74109","","","","","","break","1036.3999999999069","<p>BREAK</p><p>Take a break for as long as you need</p><p>Click the button to continue</p>","0","","","","","",""
"html-button-response-mod","310","556434","0.0-310.0","74109","","","","","","triplet","423.39999999990687","","","","0","stimuli/stim006_animate_bird_2.png","stimuli/stim001_animate_fish_1.png","stimuli/stim021_inanimate_tools_1.png","300"
"html-button-response-mod","311","557073","0.0-311.0","74109","","","","","","triplet","134.1999999997206","","","","1","stimuli/boats_uppercase.png","stimuli/stim010_animate_face_2.png","stimuli/stim004_animate_fish_4.png","301"
"html-button-response-mod","312","557718","0.0-312.0","74109","","","","","","triplet","136.59999999962747","","","","0","stimuli/stim021_inanimate_tools_1.png","stimuli/boats_lowercase.png","stimuli/stim010_animate_face_2.png","302"
"html-button-response-mod","313","558918","0.0-313.0","74109","","","","","","triplet","699","","","","0","stimuli/stim015_inanimate_boats_3.png","stimuli/stim006_animate_bird_2.png","stimuli/bird_lowercase.png","303"
"html-button-response-mod","314","559556","0.0-314.0","74109","","","","","","triplet","128.89999999990687","","","","2","stimuli/stim022_inanimate_tools_2.png","stimuli/stim011_animate_face_3.png","stimuli/fish_uppercase.png","304"
"html-button-response-mod","315","560231","0.0-315.0","74109","","","","","","triplet","165.39999999990687","","","","0","stimuli/stim019_inanimate_tree_3.png","stimuli/stim015_inanimate_boats_3.png","stimuli/stim004_animate_fish_4.png","305"
"html-button-response-mod","316","561493","0.0-316.0","74109","","","","","","triplet","757.3000000002794","","","","0","stimuli/stim013_inanimate_boats_1.png","stimuli/stim024_inanimate_tools_4.png","stimuli/stim014_inanimate_boats_2.png","306"
"html-button-response-mod","317","563130","0.0-317.0","74109","","","","","","triplet","1135.8999999999069","","","","0","stimuli/stim020_inanimate_tree_4.png","stimuli/stim016_inanimate_boats_4.png","stimuli/tools_lowercase.png","307"
"html-button-response-mod","318","587503","0.0-318.0","74109","","","","","","triplet","23860.5","","","","1","stimuli/stim024_inanimate_tools_4.png","stimuli/boats_uppercase.png","stimuli/stim019_inanimate_tree_3.png","308"
"html-button-response-mod","319","588203","0.0-319.0","74109","","","","","","triplet","196.5","","","","1","stimuli/stim010_animate_face_2.png","stimuli/stim019_inanimate_tree_3.png","stimuli/tools_uppercase.png","309"
"html-button-response-mod","320","588907","0.0-320.0","74109","","","","","","triplet","201.20000000018626","","","","2","stimuli/stim021_inanimate_tools_1.png","stimuli/stim010_animate_face_2.png","stimuli/stim017_inanimate_tree_1.png","310"
"html-button-response-mod","321","589583","0.0-321.0","74109","","","","","","triplet","173","","","","0","stimuli/stim004_animate_fish_4.png","stimuli/bird_lowercase.png","stimuli/tools_uppercase.png","311"
"html-button-response-mod","322","590244","0.0-322.0","74109","","","","","","triplet","149.29999999981374","","","","0","stimuli/stim010_animate_face_2.png","stimuli/boats_uppercase.png","stimuli/stim009_animate_face_1.png","312"
"html-button-response-mod","323","591832","0.0-323.0","74109","","","","","","triplet","1077.2000000001863","","","","0","stimuli/fish_uppercase.png","stimuli/stim011_animate_face_3.png","stimuli/fish_lowercase.png","313"
"html-button-response-mod","324","592901","0.0-324.0","74109","","","","","","triplet","554.8999999999069","","","","0","stimuli/stim003_animate_fish_3.png","stimuli/stim015_inanimate_boats_3.png","stimuli/bird_lowercase.png","314"
"html-button-response-mod","325","593594","0.0-325.0","74109","","","","","","triplet","180.39999999990687","","","","2","stimuli/tools_uppercase.png","stimuli/boats_lowercase.png","stimuli/stim002_animate_fish_2.png","315"
"html-button-response-mod","326","594250","0.0-326.0","74109","","","","","","triplet","148.5","","","","2","stimuli/tree_lowercase.png","stimuli/tree_uppercase.png","stimuli/stim018_inanimate_tree_2.png","316"
"html-button-response-mod","327","595058","0.0-327.0","74109","","","","","","triplet","305.70000000018626","","","","2","stimuli/stim012_animate_face_4.png","stimuli/bird_lowercase.png","stimuli/stim022_inanimate_tools_2.png","317"
"html-button-response-mod","328","595728","0.0-328.0","74109","","","","","","triplet","165","","","","2","stimuli/stim015_inanimate_boats_3.png","stimuli/face_uppercase.png","stimuli/stim020_inanimate_tree_4.png","318"
"html-button-response-mod","329","596369","0.0-329.0","74109","","","","","","triplet","125.40000000037253","","","","1","stimuli/stim015_inanimate_boats_3.png","stimuli/stim024_inanimate_tools_4.png","stimuli/tree_lowercase.png","319"
"html-button-response-mod","330","597190","0.0-330.0","74109","","","","","","triplet","304.5","","","","2","stimuli/bird_lowercase.png","stimuli/tree_lowercase.png","stimuli/stim014_inanimate_boats_2.png","320"
"html-button-response-mod","331","597880","0.0-331.0","74109","","","","","","triplet","187.79999999981374","","","","0","stimuli/stim012_animate_face_4.png","stimuli/bird_lowercase.png","stimuli/stim008_animate_bird_4.png","321"
"html-button-response-mod","332","598676","0.0-332.0","74109","","","","","","triplet","294.29999999981374","","","","2","stimuli/bird_uppercase.png","stimuli/stim020_inanimate_tree_4.png","stimuli/boats_lowercase.png","322"
"html-button-response-mod","333","599627","0.0-333.0","74109","","","","","","triplet","449.5","","","","2","stimuli/fish_lowercase.png","stimuli/face_uppercase.png","stimuli/stim008_animate_bird_4.png","323"
"html-button-response-mod","334","600507","0.0-334.0","74109","","","","","","triplet","374.59999999962747","","","","0","stimuli/stim017_inanimate_tree_1.png","stimuli/stim024_inanimate_tools_4.png","stimuli/tree_lowercase.png","324"
"html-button-response-mod","335","601175","0.0-335.0","74109","","","","","","triplet","165.5","","","","1","stimuli/face_lowercase.png","stimuli/bird_lowercase.png","stimuli/stim014_inanimate_boats_2.png","325"
"html-button-response-mod","336","602348","0.0-336.0","74109","","","","","","triplet","661.7000000001863","","","","2","stimuli/face_uppercase.png","stimuli/fish_lowercase.png","stimuli/boats_lowercase.png","326"
"html-button-response-mod","337","605127","0.0-337.0","74109","","","","","","triplet","2277.7000000001863","","","","2","stimuli/stim005_animate_bird_1.png","stimuli/stim023_inanimate_tools_3.png","stimuli/boats_uppercase.png","327"
"html-button-response-mod","338","605952","0.0-338.0","74109","","","","","","triplet","320.29999999981374","","","","1","stimuli/bird_lowercase.png","stimuli/stim016_inanimate_boats_4.png","stimuli/fish_lowercase.png","328"
"html-button-response-mod","339","606578","0.0-339.0","74109","","","","","","triplet","113.39999999990687","","","","2","stimuli/bird_uppercase.png","stimuli/stim004_animate_fish_4.png","stimuli/boats_lowercase.png","329"
"html-button-response-mod","340","607534","0.0-340.0","74109","","","","","","triplet","443.5","","","","0","stimuli/stim017_inanimate_tree_1.png","stimuli/stim024_inanimate_tools_4.png","stimuli/boats_uppercase.png","330"
"html-button-response-mod","341","609174","0.0-341.0","74109","","","","","","triplet","1132.3000000002794","","","","2","stimuli/stim013_inanimate_boats_1.png","stimuli/stim024_inanimate_tools_4.png","stimuli/stim009_animate_face_1.png","331"
"html-button-response-mod","342","609844","0.0-342.0","74109","","","","","","triplet","168.79999999981374","","","","1","stimuli/stim018_inanimate_tree_2.png","stimuli/stim017_inanimate_tree_1.png","stimuli/stim009_animate_face_1.png","332"
"html-button-response-mod","343","610481","0.0-343.0","74109","","","","","","triplet","131.8000000002794","","","","2","stimuli/stim004_animate_fish_4.png","stimuli/stim011_animate_face_3.png","stimuli/stim010_animate_face_2.png","333"
"html-button-response-mod","344","611167","0.0-344.0","74109","","","","","","triplet","183.79999999981374","","","","0","stimuli/stim024_inanimate_tools_4.png","stimuli/stim006_animate_bird_2.png","stimuli/tools_lowercase.png","334"
"html-button-response-mod","345","611847","0.0-345.0","74109","","","","","","triplet","165.5","","","","2","stimuli/stim003_animate_fish_3.png","stimuli/tools_lowercase.png","stimuli/stim009_animate_face_1.png","335"
"html-button-response-mod","346","612662","0.0-346.0","74109","","","","","","triplet","304.60000000009313","","","","0","stimuli/fish_lowercase.png","stimuli/bird_lowercase.png","stimuli/boats_uppercase.png","336"
"html-button-response-mod","347","613375","0.0-347.0","74109","","","","","","triplet","195.8000000002794","","","","2","stimuli/stim024_inanimate_tools_4.png","stimuli/tools_lowercase.png","stimuli/stim013_inanimate_boats_1.png","337"
"html-button-response-mod","348","614091","0.0-348.0","74109","","","","","","triplet","203.40000000037253","","","","0","stimuli/stim011_animate_face_3.png","stimuli/stim018_inanimate_tree_2.png","stimuli/bird_lowercase.png","338"
"html-button-response-mod","349","615234","0.0-349.0","74109","","","","","","triplet","633.7000000001863","","","","0","stimuli/stim018_inanimate_tree_2.png","stimuli/fish_lowercase.png","stimuli/bird_lowercase.png","339"
"html-button-response-mod","350","616208","0.0-350.0","74109","","","","","","triplet","467.20000000018626","","","","0","stimuli/stim024_inanimate_tools_4.png","stimuli/stim021_inanimate_tools_1.png","stimuli/stim009_animate_face_1.png","340"
"html-button-response-mod","351","617005","0.0-351.0","74109","","","","","","triplet","282.5","","","","2","stimuli/stim017_inanimate_tree_1.png","stimuli/stim015_inanimate_boats_3.png","stimuli/fish_lowercase.png","341"
"html-button-response-mod","352","617882","0.0-352.0","74109","","","","","","triplet","373.60000000009313","","","","0","stimuli/stim014_inanimate_boats_2.png","stimuli/face_lowercase.png","stimuli/tools_uppercase.png","342"
"html-button-response-mod","353","619042","0.0-353.0","74109","","","","","","triplet","643.8999999999069","","","","2","stimuli/tree_lowercase.png","stimuli/stim020_inanimate_tree_4.png","stimuli/bird_uppercase.png","343"
"html-button-response-mod","354","619863","0.0-354.0","74109","","","","","","triplet","319.70000000018626","","","","2","stimuli/stim018_inanimate_tree_2.png","stimuli/stim017_inanimate_tree_1.png","stimuli/stim016_inanimate_boats_4.png","344"
"html-button-response-mod","355","620675","0.0-355.0","74109","","","","","","triplet","311.10000000009313","","","","2","stimuli/stim008_animate_bird_4.png","stimuli/bird_lowercase.png","stimuli/stim016_inanimate_boats_4.png","345"
"html-button-response-mod","356","621816","0.0-356.0","74109","","","","","","triplet","632.5","","","","2","stimuli/fish_uppercase.png","stimuli/stim018_inanimate_tree_2.png","stimuli/stim005_animate_bird_1.png","346"
"html-button-response-mod","357","622493","0.0-357.0","74109","","","","","","triplet","174.6999999997206","","","","0","stimuli/tools_lowercase.png","stimuli/face_uppercase.png","stimuli/stim010_animate_face_2.png","347"
"html-button-response-mod","358","623260","0.0-358.0","74109","","","","","","triplet","254.10000000009313","","","","2","stimuli/stim004_animate_fish_4.png","stimuli/stim021_inanimate_tools_1.png","stimuli/stim015_inanimate_boats_3.png","348"
"html-button-response-mod","359","623968","0.0-359.0","74109","","","","","","triplet","201.10000000009313","","","","0","stimuli/stim016_inanimate_boats_4.png","stimuli/tools_lowercase.png","stimuli/stim008_animate_bird_4.png","349"
"html-button-response","360","625365","0.0-360.0","74109","","","","","","break","894.3999999999069","<p>BREAK</p><p>Take a break for as long as you need</p><p>Click the button to continue</p>","0","","","","","",""
"html-button-response-mod","361","625953","0.0-361.0","74109","","","","","","triplet","587","","","","1","stimuli/fish_lowercase.png","stimuli/stim002_animate_fish_2.png","stimuli/stim013_inanimate_boats_1.png","350"
"html-button-response-mod","362","626921","0.0-362.0","74109","","","","","","triplet","458.90000000037253","","","","2","stimuli/tools_uppercase.png","stimuli/stim004_animate_fish_4.png","stimuli/tree_uppercase.png","351"
"html-button-response-mod","363","628129","0.0-363.0","74109","","","","","","triplet","706.5","","","","0","stimuli/face_lowercase.png","stimuli/tree_lowercase.png","stimuli/stim001_animate_fish_1.png","352"
"html-button-response-mod","364","628838","0.0-364.0","74109","","","","","","triplet","206.89999999990687","","","","2","stimuli/stim023_inanimate_tools_3.png","stimuli/stim005_animate_bird_1.png","stimuli/stim015_inanimate_boats_3.png","353"
"html-button-response-mod","365","629437","0.0-365.0","74109","","","","","","triplet","96.89999999990687","","","","0","stimuli/tree_uppercase.png","stimuli/stim008_animate_bird_4.png","stimuli/stim020_inanimate_tree_4.png","354"
"html-button-response-mod","366","630149","0.0-366.0","74109","","","","","","triplet","198.89999999990687","","","","2","stimuli/stim002_animate_fish_2.png","stimuli/stim017_inanimate_tree_1.png","stimuli/stim013_inanimate_boats_1.png","355"
"html-button-response-mod","367","630895","0.0-367.0","74109","","","","","","triplet","244.10000000009313","","","","0","stimuli/face_lowercase.png","stimuli/stim007_animate_bird_3.png","stimuli/tree_uppercase.png","356"
"html-button-response-mod","368","631579","0.0-368.0","74109","","","","","","triplet","178.39999999990687","","","","1","stimuli/stim010_animate_face_2.png","stimuli/stim008_animate_bird_4.png","stimuli/stim016_inanimate_boats_4.png","357"
"html-button-response-mod","369","632294","0.0-369.0","74109","","","","","","triplet","203.20000000018626","","","","0","stimuli/boats_lowercase.png","stimuli/stim022_inanimate_tools_2.png","stimuli/stim009_animate_face_1.png","358"
"html-button-response-mod","370","633015","0.0-370.0","74109","","","","","","triplet","208.59999999962747","","","","1","stimuli/stim016_inanimate_boats_4.png","stimuli/stim005_animate_bird_1.png","stimuli/face_uppercase.png","359"
"html-button-response-mod","371","633671","0.0-371.0","74109","","","","","","triplet","144.89999999990687","","","","0","stimuli/stim019_inanimate_tree_3.png","stimuli/tree_uppercase.png","stimuli/stim024_inanimate_tools_4.png","360"
"html-button-response-mod","372","634403","0.0-372.0","74109","","","","","","triplet","228.5","","","","1","stimuli/stim015_inanimate_boats_3.png","stimuli/stim006_animate_bird_2.png","stimuli/stim021_inanimate_tools_1.png","361"
"html-button-response-mod","373","635156","0.0-373.0","74109","","","","","","triplet","242.3000000002794","","","","0","stimuli/stim010_animate_face_2.png","stimuli/stim017_inanimate_tree_1.png","stimuli/fish_uppercase.png","362"
"html-button-response-mod","374","635945","0.0-374.0","74109","","","","","","triplet","278.70000000018626","","","","2","stimuli/stim012_animate_face_4.png","stimuli/stim015_inanimate_boats_3.png","stimuli/stim021_inanimate_tools_1.png","363"
"html-button-response-mod","375","636577","0.0-375.0","74109","","","","","","triplet","124.89999999990687","","","","0","stimuli/stim004_animate_fish_4.png","stimuli/stim014_inanimate_boats_2.png","stimuli/boats_lowercase.png","364"
"html-button-response-mod","376","637287","0.0-376.0","74109","","","","","","triplet","193.10000000009313","","","","2","stimuli/stim003_animate_fish_3.png","stimuli/stim008_animate_bird_4.png","stimuli/stim015_inanimate_boats_3.png","365"
"html-button-response-mod","377","638087","0.0-377.0","74109","","","","","","triplet","290.39999999990687","","","","0","stimuli/stim002_animate_fish_2.png","stimuli/face_uppercase.png","stimuli/stim013_inanimate_boats_1.png","366"
"html-button-response-mod","378","638851","0.0-378.0","74109","","","","","","triplet","252.90000000037253","","","","2","stimuli/tree_uppercase.png","stimuli/boats_lowercase.png","stimuli/tree_lowercase.png","367"
"html-button-response-mod","379","639521","0.0-379.0","74109","","","","","","triplet","164.70000000018626","","","","0","stimuli/stim008_animate_bird_4.png","stimuli/stim007_animate_bird_3.png","stimuli/bird_uppercase.png","368"
"html-button-response-mod","380","640277","0.0-380.0","74109","","","","","","triplet","245.39999999990687","","","","2","stimuli/stim019_inanimate_tree_3.png","stimuli/bird_uppercase.png","stimuli/boats_lowercase.png","369"
"html-button-response-mod","381","640937","0.0-381.0","74109","","","","","","triplet","153.5","","","","0","stimuli/stim017_inanimate_tree_1.png","stimuli/stim014_inanimate_boats_2.png","stimuli/stim024_inanimate_tools_4.png","370"
"html-button-response-mod","382","641935","0.0-382.0","74109","","","","","","triplet","481.79999999981374","","","","2","stimuli/stim013_inanimate_boats_1.png","stimuli/bird_lowercase.png","stimuli/stim005_animate_bird_1.png","371"
"html-button-response-mod","383","643074","0.0-383.0","74109","","","","","","triplet","637.3000000002794","","","","0","stimuli/stim003_animate_fish_3.png","stimuli/stim012_animate_face_4.png","stimuli/stim021_inanimate_tools_1.png","372"
"html-button-response-mod","384","644164","0.0-384.0","74109","","","","","","triplet","583.3000000002794","","","","2","stimuli/stim013_inanimate_boats_1.png","stimuli/boats_lowercase.png","stimuli/stim016_inanimate_boats_4.png","373"
"html-button-response-mod","385","645932","0.0-385.0","74109","","","","","","triplet","1261.1999999997206","","","","0","stimuli/stim009_animate_face_1.png","stimuli/bird_lowercase.png","stimuli/stim006_animate_bird_2.png","374"
"html-button-response-mod","386","646719","0.0-386.0","74109","","","","","","triplet","285.29999999981374","","","","2","stimuli/stim018_inanimate_tree_2.png","stimuli/stim008_animate_bird_4.png","stimuli/stim012_animate_face_4.png","375"
"html-button-response-mod","387","647495","0.0-387.0","74109","","","","","","triplet","274.39999999990687","","","","0","stimuli/face_lowercase.png","stimuli/stim006_animate_bird_2.png","stimuli/stim005_animate_bird_1.png","376"
"html-button-response-mod","388","648250","0.0-388.0","74109","","","","","","triplet","253.3000000002794","","","","2","stimuli/stim023_inanimate_tools_3.png","stimuli/stim013_inanimate_boats_1.png","stimuli/stim021_inanimate_tools_1.png","377"
"html-button-response-mod","389","648988","0.0-389.0","74109","","","","","","triplet","236.79999999981374","","","","0","stimuli/tools_lowercase.png","stimuli/stim013_inanimate_boats_1.png","stimuli/bird_uppercase.png","378"
"html-button-response-mod","390","649662","0.0-390.0","74109","","","","","","triplet","159.10000000009313","","","","2","stimuli/stim018_inanimate_tree_2.png","stimuli/boats_lowercase.png","stimuli/tree_lowercase.png","379"
"html-button-response-mod","391","650574","0.0-391.0","74109","","","","","","triplet","410","","","","2","stimuli/stim010_animate_face_2.png","stimuli/stim007_animate_bird_3.png","stimuli/stim005_animate_bird_1.png","380"
"html-button-response-mod","392","651248","0.0-392.0","74109","","","","","","triplet","171.8000000002794","","","","1","stimuli/fish_uppercase.png","stimuli/tree_lowercase.png","stimuli/stim001_animate_fish_1.png","381"
"html-button-response-mod","393","652200","0.0-393.0","74109","","","","","","triplet","450.10000000009313","","","","2","stimuli/stim002_animate_fish_2.png","stimuli/bird_uppercase.png","stimuli/stim006_animate_bird_2.png","382"
"html-button-response-mod","394","653154","0.0-394.0","74109","","","","","","triplet","442.39999999990687","","","","0","stimuli/face_uppercase.png","stimuli/stim004_animate_fish_4.png","stimuli/stim017_inanimate_tree_1.png","383"
"html-button-response-mod","395","653965","0.0-395.0","74109","","","","","","triplet","299.1999999997206","","","","2","stimuli/stim005_animate_bird_1.png","stimuli/stim003_animate_fish_3.png","stimuli/stim002_animate_fish_2.png","384"
"html-button-response-mod","396","654598","0.0-396.0","74109","","","","","","triplet","121.29999999981374","","","","0","stimuli/bird_uppercase.png","stimuli/stim015_inanimate_boats_3.png","stimuli/stim020_inanimate_tree_4.png","385"
"html-button-response-mod","397","655221","0.0-397.0","74109","","","","","","triplet","106","","","","2","stimuli/stim022_inanimate_tools_2.png","stimuli/fish_uppercase.png","stimuli/stim019_inanimate_tree_3.png","386"
"html-button-response-mod","398","655933","0.0-398.0","74109","","","","","","triplet","208.39999999990687","","","","0","stimuli/stim014_inanimate_boats_2.png","stimuli/stim015_inanimate_boats_3.png","stimuli/fish_uppercase.png","387"
"html-button-response-mod","399","656625","0.0-399.0","74109","","","","","","triplet","179.5","","","","2","stimuli/stim007_animate_bird_3.png","stimuli/stim004_animate_fish_4.png","stimuli/stim002_animate_fish_2.png","388"
"html-button-response-mod","400","657265","0.0-400.0","74109","","","","","","triplet","128.39999999990687","","","","1","stimuli/stim022_inanimate_tools_2.png","stimuli/stim019_inanimate_tree_3.png","stimuli/stim001_animate_fish_1.png","389"
"html-button-response-mod","401","657887","0.0-401.0","74109","","","","","","triplet","107.89999999990687","","","","2","stimuli/stim007_animate_bird_3.png","stimuli/tools_lowercase.png","stimuli/stim004_animate_fish_4.png","390"
"html-button-response-mod","402","658641","0.0-402.0","74109","","","","","","triplet","243.3000000002794","","","","1","stimuli/stim006_animate_bird_2.png","stimuli/stim013_inanimate_boats_1.png","stimuli/stim018_inanimate_tree_2.png","391"
"html-button-response-mod","403","659324","0.0-403.0","74109","","","","","","triplet","167.60000000009313","","","","2","stimuli/stim017_inanimate_tree_1.png","stimuli/stim008_animate_bird_4.png","stimuli/tools_lowercase.png","392"
"html-button-response-mod","404","660306","0.0-404.0","74109","","","","","","triplet","474.20000000018626","","","","2","stimuli/stim016_inanimate_boats_4.png","stimuli/stim020_inanimate_tree_4.png","stimuli/stim022_inanimate_tools_2.png","393"
"html-button-response-mod","405","660925","0.0-405.0","74109","","","","","","triplet","102.60000000009313","","","","2","stimuli/tree_uppercase.png","stimuli/stim024_inanimate_tools_4.png","stimuli/face_uppercase.png","394"
"html-button-response-mod","406","661568","0.0-406.0","74109","","","","","","triplet","126","","","","1","stimuli/stim011_animate_face_3.png","stimuli/stim008_animate_bird_4.png","stimuli/boats_lowercase.png","395"
"html-button-response-mod","407","662249","0.0-407.0","74109","","","","","","triplet","171.70000000018626","","","","2","stimuli/stim013_inanimate_boats_1.png","stimuli/stim023_inanimate_tools_3.png","stimuli/stim008_animate_bird_4.png","396"
"html-button-response-mod","408","663239","0.0-408.0","74109","","","","","","triplet","488.29999999981374","","","","2","stimuli/stim015_inanimate_boats_3.png","stimuli/stim019_inanimate_tree_3.png","stimuli/boats_lowercase.png","397"
"html-button-response-mod","409","663844","0.0-409.0","74109","","","","","","triplet","88.89999999990687","","","","1","stimuli/fish_lowercase.png","stimuli/bird_lowercase.png","stimuli/stim024_inanimate_tools_4.png","398"
"html-button-response-mod","410","664554","0.0-410.0","74109","","","","","","triplet","205.6999999997206","","","","2","stimuli/stim019_inanimate_tree_3.png","stimuli/stim001_animate_fish_1.png","stimuli/bird_uppercase.png","399"
"html-button-response","411","665830","0.0-411.0","74109","","","","","","break","770.4000000003725","<p>BREAK</p><p>Take a break for as long as you need</p><p>Click the button to continue</p>","0","","","","","",""
"survey-text","412","678230","0.0-412.0","74109","","","","","","data_patterns","12396.099999999627","","{""Q0"":""""}","","","","","",""
"survey-text","413","681713","0.0-413.0","74109","","","","","","age_question","3481.399999999907","","{""Age"":""19""}","","","","","",""
"html-button-response","414","688300","0.0-414.0","74109","","","","","","gender_question","6586.5999999996275","How would you like your gender to be recorded?","1","","","","","",""
"html-button-response","415","693435","0.0-415.0","74109","","","","","","debrief","5133.700000000186","<p> Thank you for participating in this experiment! </p><p> We are investigating the dimensions along which you perceive the world </p><p>The images were all sorted according to whether they are animate or not, and </p><p> whether they are text or images. We are comparing this to some neuroimaging data to see </p> how your conscious classification relates to how your brain classifies the objects automatically. </p>","0","696321.1000000001","","","","",""
