"trial_type","trial_index","time_elapsed","internal_node_id","subject","success","timeout","failed_images","failed_audio","failed_video","test_part","rt","stimulus","response","end_time","button_pressed","stim0","stim1","stim2","trialnr"
"pavlovia","0","8","0.0-0.0","74284","","","","","","","","","","","","","","",""
"preload","1","738","0.0-1.0","74284","true","false","[]","[]","[]","preload","","","","","","","","",""
"html-button-response","2","14068","0.0-2.0","74284","","","","","","","13323.700000017881","<p>Welcome to the experiment. To begin, please read the following and press the button at the bottom of the screen.</p><p></p><p><strong>Project Name: A study on cognitive processes involved in visual perception</p></strong><p></p><p><strong>PARTICIPANT INFORMATION STATEMENT</strong></p><p></p><strong>(1) What is the study about?</strong><br>You are invited to participate in a study that investigates the cognitive processes involved in perceiving and recognizing visual stimuli.If you decide to participate, you will be asked to complete a task in which you will view pictures, letters, numbers, or words presented on a computer screen.<br><strong>(2) Who can participate?</strong><br>Anyone aged 18 years or over with access to a computer (not a phone/tablet)<br><strong>(3) Where is the study located?</strong><br>The study will be conducted in your browser<br><strong>(4) Who is carrying out the study?</strong><br>The study is being conducted by Sophia Shatek from the Computational Cognitive Neuroscience laboratory at the University of Sydney.<br><strong>(5) What does the study involve?</strong><br>In this study, you will be asked to perform tasks where you will see different stimuli appear on the computer screen.You will respond by pressing a key or using a computer mouse.<br><strong>(6) How much time will the study take?</strong><br>The study takes about 30 minutes<br><strong>(7)	Can I withdraw from the study?</strong><br>Being in this study is completely voluntary - you are not under any obligation to consent. You can withdraw at any time without having to give a reason and without penalty.<br><strong>(8) Will anyone else know the results?</strong><br>All aspects of the study, including results, will be strictly confidential and only the researchers will have access to information on participants.The results and data from the study may be submitted for publication or shared with other research labs, but individual participants will not be identifiable.<br><strong>(9) Will the study benefit me?</strong><br>You will be awarded 0.5 credits for your participation.<br><strong>(10) Can I tell other people about the study?</strong><br>Yes, please tell them to contact Dr Thomas Carlson by email at thomas.carlson@sydney.edu.au.<br><strong>(11) What if I require further information about the study or my involvement in it?</strong><br>When you have read this information, the investigator will discuss it with you further and answer any questions you may have.If you would like to know more at any stage, please feel free to contact Dr Thomas Carlson directly by email at thomas.carlson@sydney.edu.au.If you would like to be informed about the outcomes of the study, contact Dr Thomas Carlson directly by email at thomas.carlson@sydney.edu.au.<br><strong>(12) What if I have a complaint or any concerns?</strong><br>Any person with concerns or complaints about the conduct of a research study can contact The Manager,Human Ethics Administration, University of Sydney on +61 2 8627 8176 (Telephone); +61 2 8627 8177 (Facsimile) or ro.humanethics@sydney.edu.au (Email).</p><p></p><strong>By participating in this experiment, you consent to participate in this study and acknowledge that:</strong><br>1. The procedures required for the project and the times involved have been explained to me, and any questions I have about the project have been answered to my satisfaction.<br>2.	I have read the Above Information Statement and have been given the opportunity to discuss the information and my involvement in the project with the researcher/s.<br>3. I understand that allowing my data to be used in research reports is completely voluntary - I am not under any obligation to consent.<br>4. I understand that my involvement is strictly confidential. I understand that any research data gathered from the results of the study may be publishedhowever no information about me will be used in any way that is identifiable.</p><p></p>","0","","","","","",""
"html-button-response","3","24735","0.0-3.0","74284","","","","","","opening_instructions","10665.100000023842","<p>In this experiment, you will see three images appear on the screen.</p><p>You need to click the 'odd one out', or the image </p><p>that LOOKS MOST DIFFERENT to the other two. </p><p>Just go with your intuition, don't spend too long thinking about each one.</p>","0","28082.80000001192","","","","",""
"html-button-response-mod","4","26656","0.0-4.0","74284","","","","","","triplet","1919.199999988079","","","","0","stimuli/face_lowercase.png","stimuli/stim012_animate_face_4.png","stimuli/stim022_inanimate_tools_2.png","0"
"html-button-response-mod","5","28479","0.0-5.0","74284","","","","","","triplet","1318.7999999821186","","","","0","stimuli/stim021_inanimate_tools_1.png","stimuli/stim010_animate_face_2.png","stimuli/stim005_animate_bird_1.png","1"
"html-button-response-mod","6","30099","0.0-6.0","74284","","","","","","triplet","1117.0999999940395","","","","2","stimuli/stim017_inanimate_tree_1.png","stimuli/stim004_animate_fish_4.png","stimuli/bird_uppercase.png","2"
"html-button-response-mod","7","31792","0.0-7.0","74284","","","","","","triplet","1188.5","","","","1","stimuli/stim012_animate_face_4.png","stimuli/stim017_inanimate_tree_1.png","stimuli/stim005_animate_bird_1.png","3"
"html-button-response-mod","8","32971","0.0-8.0","74284","","","","","","triplet","674.2999999821186","","","","1","stimuli/stim020_inanimate_tree_4.png","stimuli/tools_uppercase.png","stimuli/stim005_animate_bird_1.png","4"
"html-button-response-mod","9","34640","0.0-9.0","74284","","","","","","triplet","1163.9000000059605","","","","0","stimuli/stim017_inanimate_tree_1.png","stimuli/fish_lowercase.png","stimuli/tree_lowercase.png","5"
"html-button-response-mod","10","36557","0.0-10.0","74284","","","","","","triplet","1413","","","","1","stimuli/stim021_inanimate_tools_1.png","stimuli/stim014_inanimate_boats_2.png","stimuli/stim023_inanimate_tools_3.png","6"
"html-button-response-mod","11","38072","0.0-11.0","74284","","","","","","triplet","1012.6000000238419","","","","0","stimuli/stim020_inanimate_tree_4.png","stimuli/face_uppercase.png","stimuli/boats_lowercase.png","7"
"html-button-response-mod","12","40343","0.0-12.0","74284","","","","","","triplet","1765.5999999940395","","","","0","stimuli/stim020_inanimate_tree_4.png","stimuli/stim024_inanimate_tools_4.png","stimuli/stim022_inanimate_tools_2.png","8"
"html-button-response-mod","13","43035","0.0-13.0","74284","","","","","","triplet","2188.9000000059605","","","","1","stimuli/stim016_inanimate_boats_4.png","stimuli/stim021_inanimate_tools_1.png","stimuli/stim020_inanimate_tree_4.png","9"
"html-button-response-mod","14","44566","0.0-14.0","74284","","","","","","triplet","1024","","","","2","stimuli/stim013_inanimate_boats_1.png","stimuli/stim016_inanimate_boats_4.png","stimuli/stim015_inanimate_boats_3.png","10"
"html-button-response-mod","15","46418","0.0-15.0","74284","","","","","","triplet","1347.9000000059605","","","","2","stimuli/face_uppercase.png","stimuli/fish_uppercase.png","stimuli/stim019_inanimate_tree_3.png","11"
"html-button-response-mod","16","47956","0.0-16.0","74284","","","","","","triplet","1035.199999988079","","","","1","stimuli/stim001_animate_fish_1.png","stimuli/stim016_inanimate_boats_4.png","stimuli/stim007_animate_bird_3.png","12"
"html-button-response-mod","17","49385","0.0-17.0","74284","","","","","","triplet","924.5","","","","2","stimuli/stim012_animate_face_4.png","stimuli/stim001_animate_fish_1.png","stimuli/fish_lowercase.png","13"
"html-button-response-mod","18","50801","0.0-18.0","74284","","","","","","triplet","912.9000000059605","","","","1","stimuli/stim001_animate_fish_1.png","stimuli/stim024_inanimate_tools_4.png","stimuli/stim004_animate_fish_4.png","14"
"html-button-response-mod","19","52606","0.0-19.0","74284","","","","","","triplet","1298.7000000178814","","","","0","stimuli/stim016_inanimate_boats_4.png","stimuli/stim021_inanimate_tools_1.png","stimuli/stim001_animate_fish_1.png","15"
"html-button-response-mod","20","53818","0.0-20.0","74284","","","","","","triplet","706.8999999761581","","","","0","stimuli/fish_uppercase.png","stimuli/stim016_inanimate_boats_4.png","stimuli/stim021_inanimate_tools_1.png","16"
"html-button-response-mod","21","55169","0.0-21.0","74284","","","","","","triplet","846.5999999940395","","","","0","stimuli/stim024_inanimate_tools_4.png","stimuli/stim008_animate_bird_4.png","stimuli/stim020_inanimate_tree_4.png","17"
"html-button-response-mod","22","56553","0.0-22.0","74284","","","","","","triplet","880","","","","2","stimuli/stim012_animate_face_4.png","stimuli/stim007_animate_bird_3.png","stimuli/fish_uppercase.png","18"
"html-button-response-mod","23","57889","0.0-23.0","74284","","","","","","triplet","832.9000000059605","","","","1","stimuli/stim011_animate_face_3.png","stimuli/boats_uppercase.png","stimuli/stim007_animate_bird_3.png","19"
"html-button-response-mod","24","59325","0.0-24.0","74284","","","","","","triplet","931.6999999880791","","","","1","stimuli/tree_uppercase.png","stimuli/stim002_animate_fish_2.png","stimuli/tools_lowercase.png","20"
"html-button-response-mod","25","60530","0.0-25.0","74284","","","","","","triplet","702.0999999940395","","","","1","stimuli/stim019_inanimate_tree_3.png","stimuli/tree_lowercase.png","stimuli/stim016_inanimate_boats_4.png","21"
"html-button-response-mod","26","62424","0.0-26.0","74284","","","","","","triplet","1389.199999988079","","","","0","stimuli/tools_lowercase.png","stimuli/tree_lowercase.png","stimuli/fish_uppercase.png","22"
"html-button-response-mod","27","63888","0.0-27.0","74284","","","","","","triplet","960.3000000119209","","","","0","stimuli/tools_lowercase.png","stimuli/stim003_animate_fish_3.png","stimuli/stim015_inanimate_boats_3.png","23"
"html-button-response-mod","28","65942","0.0-28.0","74284","","","","","","triplet","1547.7000000178814","","","","2","stimuli/face_lowercase.png","stimuli/bird_lowercase.png","stimuli/stim015_inanimate_boats_3.png","24"
"html-button-response-mod","29","67301","0.0-29.0","74284","","","","","","triplet","855.5","","","","1","stimuli/tree_uppercase.png","stimuli/stim002_animate_fish_2.png","stimuli/tree_lowercase.png","25"
"html-button-response-mod","30","68749","0.0-30.0","74284","","","","","","triplet","942.8999999761581","","","","1","stimuli/stim010_animate_face_2.png","stimuli/boats_uppercase.png","stimuli/stim007_animate_bird_3.png","26"
"html-button-response-mod","31","71005","0.0-31.0","74284","","","","","","triplet","1753.2000000178814","","","","0","stimuli/stim018_inanimate_tree_2.png","stimuli/stim012_animate_face_4.png","stimuli/stim014_inanimate_boats_2.png","27"
"html-button-response-mod","32","72220","0.0-32.0","74284","","","","","","triplet","709.2999999821186","","","","0","stimuli/boats_uppercase.png","stimuli/stim008_animate_bird_4.png","stimuli/stim007_animate_bird_3.png","28"
"html-button-response-mod","33","74370","0.0-33.0","74284","","","","","","triplet","1645.5","","","","2","stimuli/stim015_inanimate_boats_3.png","stimuli/stim018_inanimate_tree_2.png","stimuli/stim013_inanimate_boats_1.png","29"
"html-button-response-mod","34","75793","0.0-34.0","74284","","","","","","triplet","918.5","","","","0","stimuli/tree_lowercase.png","stimuli/stim017_inanimate_tree_1.png","stimuli/stim010_animate_face_2.png","30"
"html-button-response-mod","35","77346","0.0-35.0","74284","","","","","","triplet","1049.300000011921","","","","1","stimuli/stim012_animate_face_4.png","stimuli/boats_lowercase.png","stimuli/stim020_inanimate_tree_4.png","31"
"html-button-response-mod","36","78984","0.0-36.0","74284","","","","","","triplet","1134","","","","0","stimuli/fish_lowercase.png","stimuli/bird_uppercase.png","stimuli/boats_uppercase.png","32"
"html-button-response-mod","37","80379","0.0-37.0","74284","","","","","","triplet","891.9000000059605","","","","0","stimuli/bird_lowercase.png","stimuli/stim006_animate_bird_2.png","stimuli/stim024_inanimate_tools_4.png","33"
"html-button-response-mod","38","82289","0.0-38.0","74284","","","","","","triplet","1406.0999999940395","","","","2","stimuli/stim014_inanimate_boats_2.png","stimuli/stim015_inanimate_boats_3.png","stimuli/face_uppercase.png","34"
"html-button-response-mod","39","83815","0.0-39.0","74284","","","","","","triplet","1021.3999999761581","","","","0","stimuli/stim014_inanimate_boats_2.png","stimuli/bird_uppercase.png","stimuli/boats_lowercase.png","35"
"html-button-response-mod","40","85159","0.0-40.0","74284","","","","","","triplet","840.4000000059605","","","","0","stimuli/stim024_inanimate_tools_4.png","stimuli/fish_lowercase.png","stimuli/face_uppercase.png","36"
"html-button-response-mod","41","87050","0.0-41.0","74284","","","","","","triplet","1386.699999988079","","","","2","stimuli/stim008_animate_bird_4.png","stimuli/stim024_inanimate_tools_4.png","stimuli/tree_uppercase.png","37"
"html-button-response-mod","42","88660","0.0-42.0","74284","","","","","","triplet","1106.199999988079","","","","0","stimuli/tree_lowercase.png","stimuli/boats_lowercase.png","stimuli/boats_uppercase.png","38"
"html-button-response-mod","43","90740","0.0-43.0","74284","","","","","","triplet","1575.5999999940395","","","","0","stimuli/stim024_inanimate_tools_4.png","stimuli/stim019_inanimate_tree_3.png","stimuli/stim001_animate_fish_1.png","39"
"html-button-response-mod","44","92211","0.0-44.0","74284","","","","","","triplet","966.8000000119209","","","","2","stimuli/face_lowercase.png","stimuli/tree_uppercase.png","stimuli/stim008_animate_bird_4.png","40"
"html-button-response-mod","45","93660","0.0-45.0","74284","","","","","","triplet","944.8000000119209","","","","1","stimuli/stim022_inanimate_tools_2.png","stimuli/fish_uppercase.png","stimuli/stim003_animate_fish_3.png","41"
"html-button-response-mod","46","95640","0.0-46.0","74284","","","","","","triplet","1474.4000000059605","","","","1","stimuli/stim004_animate_fish_4.png","stimuli/boats_lowercase.png","stimuli/stim024_inanimate_tools_4.png","42"
"html-button-response-mod","47","97341","0.0-47.0","74284","","","","","","triplet","1195.4000000059605","","","","0","stimuli/bird_lowercase.png","stimuli/tree_uppercase.png","stimuli/boats_uppercase.png","43"
"html-button-response-mod","48","98899","0.0-48.0","74284","","","","","","triplet","1051.9000000059605","","","","1","stimuli/stim007_animate_bird_3.png","stimuli/stim017_inanimate_tree_1.png","stimuli/stim012_animate_face_4.png","44"
"html-button-response-mod","49","100340","0.0-49.0","74284","","","","","","triplet","936.5","","","","1","stimuli/stim014_inanimate_boats_2.png","stimuli/stim006_animate_bird_2.png","stimuli/stim008_animate_bird_4.png","45"
"html-button-response-mod","50","101852","0.0-50.0","74284","","","","","","triplet","1006.2000000178814","","","","2","stimuli/stim004_animate_fish_4.png","stimuli/stim007_animate_bird_3.png","stimuli/tree_lowercase.png","46"
"html-button-response-mod","51","103355","0.0-51.0","74284","","","","","","triplet","997.3999999761581","","","","0","stimuli/tools_lowercase.png","stimuli/stim001_animate_fish_1.png","stimuli/stim021_inanimate_tools_1.png","47"
"html-button-response-mod","52","104971","0.0-52.0","74284","","","","","","triplet","1111.2000000178814","","","","1","stimuli/stim007_animate_bird_3.png","stimuli/stim023_inanimate_tools_3.png","stimuli/stim004_animate_fish_4.png","48"
"html-button-response-mod","53","106364","0.0-53.0","74284","","","","","","triplet","888.4000000059605","","","","2","stimuli/stim005_animate_bird_1.png","stimuli/stim008_animate_bird_4.png","stimuli/tree_uppercase.png","49"
"html-button-response","54","109752","0.0-54.0","74284","","","","","","break","2886","<p>BREAK</p><p>Take a break for as long as you need</p><p>Click the button to continue</p>","0","","","","","",""
"html-button-response-mod","55","110625","0.0-55.0","74284","","","","","","triplet","870.6999999880791","","","","1","stimuli/face_lowercase.png","stimuli/stim014_inanimate_boats_2.png","stimuli/tree_uppercase.png","50"
"html-button-response-mod","56","111893","0.0-56.0","74284","","","","","","triplet","765.4000000059605","","","","0","stimuli/stim023_inanimate_tools_3.png","stimuli/bird_lowercase.png","stimuli/boats_uppercase.png","51"
"html-button-response-mod","57","113367","0.0-57.0","74284","","","","","","triplet","970.4000000059605","","","","1","stimuli/boats_uppercase.png","stimuli/face_lowercase.png","stimuli/fish_uppercase.png","52"
"html-button-response-mod","58","114755","0.0-58.0","74284","","","","","","triplet","882.6999999880791","","","","1","stimuli/bird_lowercase.png","stimuli/stim007_animate_bird_3.png","stimuli/bird_uppercase.png","53"
"html-button-response-mod","59","116386","0.0-59.0","74284","","","","","","triplet","1126.7000000178814","","","","0","stimuli/stim001_animate_fish_1.png","stimuli/stim016_inanimate_boats_4.png","stimuli/stim010_animate_face_2.png","54"
"html-button-response-mod","60","117558","0.0-60.0","74284","","","","","","triplet","668.2000000178814","","","","0","stimuli/tools_uppercase.png","stimuli/stim012_animate_face_4.png","stimuli/stim016_inanimate_boats_4.png","55"
"html-button-response-mod","61","118941","0.0-61.0","74284","","","","","","triplet","879.0999999940395","","","","2","stimuli/stim009_animate_face_1.png","stimuli/stim007_animate_bird_3.png","stimuli/stim003_animate_fish_3.png","56"
"html-button-response-mod","62","120283","0.0-62.0","74284","","","","","","triplet","837.5","","","","0","stimuli/face_lowercase.png","stimuli/stim018_inanimate_tree_2.png","stimuli/stim010_animate_face_2.png","57"
"html-button-response-mod","63","121625","0.0-63.0","74284","","","","","","triplet","837.7000000178814","","","","0","stimuli/stim020_inanimate_tree_4.png","stimuli/stim005_animate_bird_1.png","stimuli/stim013_inanimate_boats_1.png","58"
"html-button-response-mod","64","123224","0.0-64.0","74284","","","","","","triplet","1094.5999999940395","","","","0","stimuli/stim013_inanimate_boats_1.png","stimuli/tools_lowercase.png","stimuli/bird_uppercase.png","59"
"html-button-response-mod","65","124407","0.0-65.0","74284","","","","","","triplet","678.8000000119209","","","","0","stimuli/stim006_animate_bird_2.png","stimuli/bird_uppercase.png","stimuli/fish_uppercase.png","60"
"html-button-response-mod","66","125805","0.0-66.0","74284","","","","","","triplet","892.1000000238419","","","","1","stimuli/stim019_inanimate_tree_3.png","stimuli/stim002_animate_fish_2.png","stimuli/stim017_inanimate_tree_1.png","61"
"html-button-response-mod","67","127244","0.0-67.0","74284","","","","","","triplet","933.7000000178814","","","","0","stimuli/stim021_inanimate_tools_1.png","stimuli/stim004_animate_fish_4.png","stimuli/stim018_inanimate_tree_2.png","62"
"html-button-response-mod","68","128539","0.0-68.0","74284","","","","","","triplet","791","","","","0","stimuli/stim004_animate_fish_4.png","stimuli/stim019_inanimate_tree_3.png","stimuli/stim020_inanimate_tree_4.png","63"
"html-button-response-mod","69","129852","0.0-69.0","74284","","","","","","triplet","806.1999999880791","","","","0","stimuli/stim022_inanimate_tools_2.png","stimuli/stim004_animate_fish_4.png","stimuli/stim017_inanimate_tree_1.png","64"
"html-button-response-mod","70","131379","0.0-70.0","74284","","","","","","triplet","1022.5","","","","1","stimuli/tools_uppercase.png","stimuli/fish_lowercase.png","stimuli/stim008_animate_bird_4.png","65"
"html-button-response-mod","71","134460","0.0-71.0","74284","","","","","","triplet","2576.0999999940395","","","","0","stimuli/boats_uppercase.png","stimuli/stim017_inanimate_tree_1.png","stimuli/stim021_inanimate_tools_1.png","66"
"html-button-response-mod","72","136201","0.0-72.0","74284","","","","","","triplet","1235.5","","","","1","stimuli/stim023_inanimate_tools_3.png","stimuli/stim008_animate_bird_4.png","stimuli/stim022_inanimate_tools_2.png","67"
"html-button-response-mod","73","137631","0.0-73.0","74284","","","","","","triplet","925.1999999880791","","","","0","stimuli/stim009_animate_face_1.png","stimuli/stim005_animate_bird_1.png","stimuli/stim023_inanimate_tools_3.png","68"
"html-button-response-mod","74","138811","0.0-74.0","74284","","","","","","triplet","677.5999999940395","","","","0","stimuli/face_lowercase.png","stimuli/stim019_inanimate_tree_3.png","stimuli/stim010_animate_face_2.png","69"
"html-button-response-mod","75","140090","0.0-75.0","74284","","","","","","triplet","775.5999999940395","","","","0","stimuli/stim012_animate_face_4.png","stimuli/fish_uppercase.png","stimuli/boats_uppercase.png","70"
"html-button-response-mod","76","141585","0.0-76.0","74284","","","","","","triplet","989.7000000178814","","","","1","stimuli/stim004_animate_fish_4.png","stimuli/face_lowercase.png","stimuli/stim012_animate_face_4.png","71"
"html-button-response-mod","77","143503","0.0-77.0","74284","","","","","","triplet","1413.199999988079","","","","2","stimuli/stim001_animate_fish_1.png","stimuli/stim016_inanimate_boats_4.png","stimuli/stim006_animate_bird_2.png","72"
"html-button-response-mod","78","145170","0.0-78.0","74284","","","","","","triplet","1164.0999999940395","","","","0","stimuli/stim014_inanimate_boats_2.png","stimuli/boats_lowercase.png","stimuli/tree_uppercase.png","73"
"html-button-response-mod","79","146333","0.0-79.0","74284","","","","","","triplet","658.6999999880791","","","","0","stimuli/fish_uppercase.png","stimuli/stim011_animate_face_3.png","stimuli/stim002_animate_fish_2.png","74"
"html-button-response-mod","80","147984","0.0-80.0","74284","","","","","","triplet","1146.4000000059605","","","","2","stimuli/stim001_animate_fish_1.png","stimuli/stim023_inanimate_tools_3.png","stimuli/tools_uppercase.png","75"
"html-button-response-mod","81","149700","0.0-81.0","74284","","","","","","triplet","1210","","","","1","stimuli/stim022_inanimate_tools_2.png","stimuli/stim015_inanimate_boats_3.png","stimuli/stim005_animate_bird_1.png","76"
"html-button-response-mod","82","151257","0.0-82.0","74284","","","","","","triplet","1053.5999999940395","","","","2","stimuli/stim010_animate_face_2.png","stimuli/stim012_animate_face_4.png","stimuli/stim022_inanimate_tools_2.png","77"
"html-button-response-mod","83","152804","0.0-83.0","74284","","","","","","triplet","1041.699999988079","","","","2","stimuli/stim022_inanimate_tools_2.png","stimuli/stim021_inanimate_tools_1.png","stimuli/fish_lowercase.png","78"
"html-button-response-mod","84","154348","0.0-84.0","74284","","","","","","triplet","1038.7999999821186","","","","0","stimuli/fish_lowercase.png","stimuli/stim008_animate_bird_4.png","stimuli/stim011_animate_face_3.png","79"
"html-button-response-mod","85","155829","0.0-85.0","74284","","","","","","triplet","977.5999999940395","","","","1","stimuli/stim021_inanimate_tools_1.png","stimuli/bird_uppercase.png","stimuli/stim002_animate_fish_2.png","80"
"html-button-response-mod","86","157000","0.0-86.0","74284","","","","","","triplet","667","","","","1","stimuli/stim022_inanimate_tools_2.png","stimuli/fish_lowercase.png","stimuli/stim024_inanimate_tools_4.png","81"
"html-button-response-mod","87","158319","0.0-87.0","74284","","","","","","triplet","814.4000000059605","","","","2","stimuli/stim015_inanimate_boats_3.png","stimuli/stim022_inanimate_tools_2.png","stimuli/tree_lowercase.png","82"
"html-button-response-mod","88","159840","0.0-88.0","74284","","","","","","triplet","1014.5","","","","0","stimuli/tools_lowercase.png","stimuli/stim023_inanimate_tools_3.png","stimuli/stim019_inanimate_tree_3.png","83"
"html-button-response-mod","89","161787","0.0-89.0","74284","","","","","","triplet","1444.0999999940395","","","","1","stimuli/stim015_inanimate_boats_3.png","stimuli/tree_lowercase.png","stimuli/stim012_animate_face_4.png","84"
"html-button-response-mod","90","163282","0.0-90.0","74284","","","","","","triplet","989.8000000119209","","","","2","stimuli/bird_lowercase.png","stimuli/tree_lowercase.png","stimuli/stim002_animate_fish_2.png","85"
"html-button-response-mod","91","164926","0.0-91.0","74284","","","","","","triplet","1138.4000000059605","","","","0","stimuli/tools_lowercase.png","stimuli/stim001_animate_fish_1.png","stimuli/stim009_animate_face_1.png","86"
"html-button-response-mod","92","166705","0.0-92.0","74284","","","","","","triplet","1272.5","","","","2","stimuli/stim023_inanimate_tools_3.png","stimuli/stim014_inanimate_boats_2.png","stimuli/face_lowercase.png","87"
"html-button-response-mod","93","168048","0.0-93.0","74284","","","","","","triplet","838.2000000178814","","","","1","stimuli/boats_uppercase.png","stimuli/stim021_inanimate_tools_1.png","stimuli/tools_uppercase.png","88"
"html-button-response-mod","94","169482","0.0-94.0","74284","","","","","","triplet","929.0999999940395","","","","2","stimuli/stim014_inanimate_boats_2.png","stimuli/stim007_animate_bird_3.png","stimuli/stim021_inanimate_tools_1.png","89"
"html-button-response-mod","95","170864","0.0-95.0","74284","","","","","","triplet","878.7999999821186","","","","0","stimuli/stim015_inanimate_boats_3.png","stimuli/bird_uppercase.png","stimuli/tree_lowercase.png","90"
"html-button-response-mod","96","172357","0.0-96.0","74284","","","","","","triplet","991.0999999940395","","","","1","stimuli/stim020_inanimate_tree_4.png","stimuli/stim005_animate_bird_1.png","stimuli/stim017_inanimate_tree_1.png","91"
"html-button-response-mod","97","173844","0.0-97.0","74284","","","","","","triplet","982.1999999880791","","","","0","stimuli/stim003_animate_fish_3.png","stimuli/face_uppercase.png","stimuli/fish_lowercase.png","92"
"html-button-response-mod","98","175302","0.0-98.0","74284","","","","","","triplet","954.5999999940395","","","","2","stimuli/stim017_inanimate_tree_1.png","stimuli/stim020_inanimate_tree_4.png","stimuli/fish_lowercase.png","93"
"html-button-response-mod","99","176678","0.0-99.0","74284","","","","","","triplet","872.5999999940395","","","","0","stimuli/stim024_inanimate_tools_4.png","stimuli/stim012_animate_face_4.png","stimuli/stim010_animate_face_2.png","94"
"html-button-response-mod","100","177802","0.0-100.0","74284","","","","","","triplet","621.0999999940395","","","","0","stimuli/fish_lowercase.png","stimuli/stim023_inanimate_tools_3.png","stimuli/stim012_animate_face_4.png","95"
"html-button-response-mod","101","179160","0.0-101.0","74284","","","","","","triplet","854.0999999940395","","","","1","stimuli/stim005_animate_bird_1.png","stimuli/boats_lowercase.png","stimuli/stim006_animate_bird_2.png","96"
"html-button-response-mod","102","181189","0.0-102.0","74284","","","","","","triplet","1525.800000011921","","","","2","stimuli/stim006_animate_bird_2.png","stimuli/stim014_inanimate_boats_2.png","stimuli/stim023_inanimate_tools_3.png","97"
"html-button-response-mod","103","182684","0.0-103.0","74284","","","","","","triplet","988.3000000119209","","","","0","stimuli/stim013_inanimate_boats_1.png","stimuli/stim019_inanimate_tree_3.png","stimuli/stim018_inanimate_tree_2.png","98"
"html-button-response-mod","104","184070","0.0-104.0","74284","","","","","","triplet","883","","","","2","stimuli/stim006_animate_bird_2.png","stimuli/stim002_animate_fish_2.png","stimuli/boats_lowercase.png","99"
"html-button-response","105","186475","0.0-105.0","74284","","","","","","break","1900.199999988079","<p>BREAK</p><p>Take a break for as long as you need</p><p>Click the button to continue</p>","0","","","","","",""
"html-button-response-mod","106","187398","0.0-106.0","74284","","","","","","triplet","920.5","","","","2","stimuli/stim008_animate_bird_4.png","stimuli/stim015_inanimate_boats_3.png","stimuli/fish_uppercase.png","100"
"html-button-response-mod","107","188686","0.0-107.0","74284","","","","","","triplet","784.5","","","","0","stimuli/stim003_animate_fish_3.png","stimuli/stim017_inanimate_tree_1.png","stimuli/stim022_inanimate_tools_2.png","101"
"html-button-response-mod","108","190022","0.0-108.0","74284","","","","","","triplet","831.5999999940395","","","","2","stimuli/stim004_animate_fish_4.png","stimuli/stim005_animate_bird_1.png","stimuli/stim018_inanimate_tree_2.png","102"
"html-button-response-mod","109","191501","0.0-109.0","74284","","","","","","triplet","973.7999999821186","","","","2","stimuli/stim009_animate_face_1.png","stimuli/stim011_animate_face_3.png","stimuli/tree_lowercase.png","103"
"html-button-response-mod","110","192844","0.0-110.0","74284","","","","","","triplet","838.2000000178814","","","","0","stimuli/fish_uppercase.png","stimuli/stim008_animate_bird_4.png","stimuli/stim023_inanimate_tools_3.png","104"
"html-button-response-mod","111","195003","0.0-111.0","74284","","","","","","triplet","1655.5","","","","2","stimuli/stim013_inanimate_boats_1.png","stimuli/stim019_inanimate_tree_3.png","stimuli/stim021_inanimate_tools_1.png","105"
"html-button-response-mod","112","196305","0.0-112.0","74284","","","","","","triplet","796.4000000059605","","","","0","stimuli/tree_lowercase.png","stimuli/stim020_inanimate_tree_4.png","stimuli/stim003_animate_fish_3.png","106"
"html-button-response-mod","113","198213","0.0-113.0","74284","","","","","","triplet","1403.9000000059605","","","","2","stimuli/stim022_inanimate_tools_2.png","stimuli/stim002_animate_fish_2.png","stimuli/stim020_inanimate_tree_4.png","107"
"html-button-response-mod","114","199881","0.0-114.0","74284","","","","","","triplet","1161.4000000059605","","","","2","stimuli/fish_uppercase.png","stimuli/bird_uppercase.png","stimuli/stim023_inanimate_tools_3.png","108"
"html-button-response-mod","115","201838","0.0-115.0","74284","","","","","","triplet","1452.0999999940395","","","","2","stimuli/stim018_inanimate_tree_2.png","stimuli/stim022_inanimate_tools_2.png","stimuli/tree_lowercase.png","109"
"html-button-response-mod","116","203866","0.0-116.0","74284","","","","","","triplet","1523.7000000178814","","","","2","stimuli/stim009_animate_face_1.png","stimuli/stim018_inanimate_tree_2.png","stimuli/stim024_inanimate_tools_4.png","110"
"html-button-response-mod","117","205340","0.0-117.0","74284","","","","","","triplet","970.5999999940395","","","","0","stimuli/stim010_animate_face_2.png","stimuli/face_lowercase.png","stimuli/face_uppercase.png","111"
"html-button-response-mod","118","206658","0.0-118.0","74284","","","","","","triplet","812.0999999940395","","","","2","stimuli/stim001_animate_fish_1.png","stimuli/stim011_animate_face_3.png","stimuli/face_uppercase.png","112"
"html-button-response-mod","119","208043","0.0-119.0","74284","","","","","","triplet","880.9000000059605","","","","1","stimuli/stim024_inanimate_tools_4.png","stimuli/bird_lowercase.png","stimuli/stim001_animate_fish_1.png","113"
"html-button-response-mod","120","209358","0.0-120.0","74284","","","","","","triplet","811.3000000119209","","","","0","stimuli/tree_lowercase.png","stimuli/stim002_animate_fish_2.png","stimuli/stim014_inanimate_boats_2.png","114"
"html-button-response-mod","121","210847","0.0-121.0","74284","","","","","","triplet","983.4000000059605","","","","0","stimuli/tree_lowercase.png","stimuli/stim015_inanimate_boats_3.png","stimuli/stim021_inanimate_tools_1.png","115"
"html-button-response-mod","122","211988","0.0-122.0","74284","","","","","","triplet","638.0999999940395","","","","0","stimuli/boats_lowercase.png","stimuli/stim003_animate_fish_3.png","stimuli/stim009_animate_face_1.png","116"
"html-button-response-mod","123","213144","0.0-123.0","74284","","","","","","triplet","651.7000000178814","","","","0","stimuli/tree_uppercase.png","stimuli/stim019_inanimate_tree_3.png","stimuli/stim007_animate_bird_3.png","117"
"html-button-response-mod","124","214439","0.0-124.0","74284","","","","","","triplet","791","","","","0","stimuli/fish_lowercase.png","stimuli/stim013_inanimate_boats_1.png","stimuli/stim011_animate_face_3.png","118"
"html-button-response-mod","125","216164","0.0-125.0","74284","","","","","","triplet","1219.7999999821186","","","","2","stimuli/stim011_animate_face_3.png","stimuli/stim016_inanimate_boats_4.png","stimuli/stim002_animate_fish_2.png","119"
"html-button-response-mod","126","218142","0.0-126.0","74284","","","","","","triplet","1475.5","","","","0","stimuli/stim022_inanimate_tools_2.png","stimuli/stim009_animate_face_1.png","stimuli/stim012_animate_face_4.png","120"
"html-button-response-mod","127","219645","0.0-127.0","74284","","","","","","triplet","997.3000000119209","","","","0","stimuli/boats_uppercase.png","stimuli/stim004_animate_fish_4.png","stimuli/stim019_inanimate_tree_3.png","121"
"html-button-response-mod","128","221062","0.0-128.0","74284","","","","","","triplet","909.9000000059605","","","","2","stimuli/stim005_animate_bird_1.png","stimuli/stim018_inanimate_tree_2.png","stimuli/tree_uppercase.png","122"
"html-button-response-mod","129","223068","0.0-129.0","74284","","","","","","triplet","1502.699999988079","","","","2","stimuli/stim007_animate_bird_3.png","stimuli/stim004_animate_fish_4.png","stimuli/stim013_inanimate_boats_1.png","123"
"html-button-response-mod","130","224450","0.0-130.0","74284","","","","","","triplet","877.1999999880791","","","","1","stimuli/stim023_inanimate_tools_3.png","stimuli/fish_lowercase.png","stimuli/stim022_inanimate_tools_2.png","124"
"html-button-response-mod","131","226067","0.0-131.0","74284","","","","","","triplet","1113.199999988079","","","","1","stimuli/stim016_inanimate_boats_4.png","stimuli/stim024_inanimate_tools_4.png","stimuli/stim004_animate_fish_4.png","125"
"html-button-response-mod","132","227308","0.0-132.0","74284","","","","","","triplet","737.0999999940395","","","","2","stimuli/stim009_animate_face_1.png","stimuli/stim002_animate_fish_2.png","stimuli/boats_uppercase.png","126"
"html-button-response-mod","133","228810","0.0-133.0","74284","","","","","","triplet","993.9000000059605","","","","0","stimuli/stim022_inanimate_tools_2.png","stimuli/boats_lowercase.png","stimuli/face_lowercase.png","127"
"html-button-response-mod","134","230339","0.0-134.0","74284","","","","","","triplet","1025.2999999821186","","","","0","stimuli/stim011_animate_face_3.png","stimuli/stim003_animate_fish_3.png","stimuli/stim013_inanimate_boats_1.png","128"
"html-button-response-mod","135","231845","0.0-135.0","74284","","","","","","triplet","999.9000000059605","","","","2","stimuli/stim023_inanimate_tools_3.png","stimuli/stim004_animate_fish_4.png","stimuli/fish_uppercase.png","129"
"html-button-response-mod","136","233469","0.0-136.0","74284","","","","","","triplet","1118.4000000059605","","","","1","stimuli/stim006_animate_bird_2.png","stimuli/stim021_inanimate_tools_1.png","stimuli/stim014_inanimate_boats_2.png","130"
"html-button-response-mod","137","234611","0.0-137.0","74284","","","","","","triplet","638.2000000178814","","","","1","stimuli/stim009_animate_face_1.png","stimuli/bird_uppercase.png","stimuli/stim004_animate_fish_4.png","131"
"html-button-response-mod","138","236065","0.0-138.0","74284","","","","","","triplet","950","","","","0","stimuli/stim018_inanimate_tree_2.png","stimuli/boats_uppercase.png","stimuli/fish_uppercase.png","132"
"html-button-response-mod","139","237527","0.0-139.0","74284","","","","","","triplet","958.7999999821186","","","","1","stimuli/stim006_animate_bird_2.png","stimuli/stim022_inanimate_tools_2.png","stimuli/stim011_animate_face_3.png","133"
"html-button-response-mod","140","238968","0.0-140.0","74284","","","","","","triplet","936.4000000059605","","","","1","stimuli/fish_uppercase.png","stimuli/stim016_inanimate_boats_4.png","stimuli/fish_lowercase.png","134"
"html-button-response-mod","141","240384","0.0-141.0","74284","","","","","","triplet","910.8999999761581","","","","0","stimuli/stim017_inanimate_tree_1.png","stimuli/tree_lowercase.png","stimuli/stim024_inanimate_tools_4.png","135"
"html-button-response-mod","142","241986","0.0-142.0","74284","","","","","","triplet","1096.7000000178814","","","","0","stimuli/stim018_inanimate_tree_2.png","stimuli/stim006_animate_bird_2.png","stimuli/stim005_animate_bird_1.png","136"
"html-button-response-mod","143","243404","0.0-143.0","74284","","","","","","triplet","912.9000000059605","","","","0","stimuli/stim022_inanimate_tools_2.png","stimuli/stim017_inanimate_tree_1.png","stimuli/stim005_animate_bird_1.png","137"
"html-button-response-mod","144","244961","0.0-144.0","74284","","","","","","triplet","1053.4000000059605","","","","2","stimuli/stim017_inanimate_tree_1.png","stimuli/stim018_inanimate_tree_2.png","stimuli/stim023_inanimate_tools_3.png","138"
"html-button-response-mod","145","246362","0.0-145.0","74284","","","","","","triplet","897","","","","0","stimuli/tree_uppercase.png","stimuli/stim018_inanimate_tree_2.png","stimuli/stim022_inanimate_tools_2.png","139"
"html-button-response-mod","146","247614","0.0-146.0","74284","","","","","","triplet","748.8999999761581","","","","0","stimuli/boats_lowercase.png","stimuli/stim006_animate_bird_2.png","stimuli/stim022_inanimate_tools_2.png","140"
"html-button-response-mod","147","249045","0.0-147.0","74284","","","","","","triplet","928.1000000238419","","","","1","stimuli/bird_uppercase.png","stimuli/stim013_inanimate_boats_1.png","stimuli/boats_lowercase.png","141"
"html-button-response-mod","148","251336","0.0-148.0","74284","","","","","","triplet","1787.2999999821186","","","","1","stimuli/tree_uppercase.png","stimuli/boats_uppercase.png","stimuli/bird_uppercase.png","142"
"html-button-response-mod","149","253144","0.0-149.0","74284","","","","","","triplet","1302.7999999821186","","","","2","stimuli/stim010_animate_face_2.png","stimuli/stim014_inanimate_boats_2.png","stimuli/face_uppercase.png","143"
"html-button-response-mod","150","255020","0.0-150.0","74284","","","","","","triplet","1372","","","","0","stimuli/stim024_inanimate_tools_4.png","stimuli/stim019_inanimate_tree_3.png","stimuli/stim014_inanimate_boats_2.png","144"
"html-button-response-mod","151","256155","0.0-151.0","74284","","","","","","triplet","629","","","","0","stimuli/face_uppercase.png","stimuli/stim017_inanimate_tree_1.png","stimuli/stim015_inanimate_boats_3.png","145"
"html-button-response-mod","152","257190","0.0-152.0","74284","","","","","","triplet","531.8000000119209","","","","0","stimuli/fish_lowercase.png","stimuli/stim007_animate_bird_3.png","stimuli/stim017_inanimate_tree_1.png","146"
"html-button-response-mod","153","258331","0.0-153.0","74284","","","","","","triplet","632.7999999821186","","","","0","stimuli/bird_uppercase.png","stimuli/stim015_inanimate_boats_3.png","stimuli/stim006_animate_bird_2.png","147"
"html-button-response-mod","154","259648","0.0-154.0","74284","","","","","","triplet","813.3999999761581","","","","1","stimuli/stim009_animate_face_1.png","stimuli/tree_uppercase.png","stimuli/stim019_inanimate_tree_3.png","148"
"html-button-response-mod","155","261064","0.0-155.0","74284","","","","","","triplet","911.3000000119209","","","","1","stimuli/tree_uppercase.png","stimuli/stim001_animate_fish_1.png","stimuli/bird_uppercase.png","149"
"html-button-response","156","267553","0.0-156.0","74284","","","","","","break","5986","<p>BREAK</p><p>Take a break for as long as you need</p><p>Click the button to continue</p>","0","","","","","",""
"html-button-response-mod","157","268413","0.0-157.0","74284","","","","","","triplet","858.5","","","","0","stimuli/fish_lowercase.png","stimuli/stim022_inanimate_tools_2.png","stimuli/stim003_animate_fish_3.png","150"
"html-button-response-mod","158","269950","0.0-158.0","74284","","","","","","triplet","1033","","","","1","stimuli/stim011_animate_face_3.png","stimuli/stim001_animate_fish_1.png","stimuli/stim008_animate_bird_4.png","151"
"html-button-response-mod","159","271011","0.0-159.0","74284","","","","","","triplet","558","","","","1","stimuli/stim011_animate_face_3.png","stimuli/tree_uppercase.png","stimuli/stim009_animate_face_1.png","152"
"html-button-response-mod","160","272369","0.0-160.0","74284","","","","","","triplet","853.7000000178814","","","","1","stimuli/tools_lowercase.png","stimuli/stim002_animate_fish_2.png","stimuli/tree_lowercase.png","153"
"html-button-response-mod","161","274062","0.0-161.0","74284","","","","","","triplet","1189.9000000059605","","","","1","stimuli/stim013_inanimate_boats_1.png","stimuli/stim022_inanimate_tools_2.png","stimuli/stim003_animate_fish_3.png","154"
"html-button-response-mod","162","275474","0.0-162.0","74284","","","","","","triplet","908.5","","","","2","stimuli/face_uppercase.png","stimuli/tools_uppercase.png","stimuli/stim006_animate_bird_2.png","155"
"html-button-response-mod","163","276834","0.0-163.0","74284","","","","","","triplet","856.5999999940395","","","","0","stimuli/stim023_inanimate_tools_3.png","stimuli/face_uppercase.png","stimuli/fish_uppercase.png","156"
"html-button-response-mod","164","278548","0.0-164.0","74284","","","","","","triplet","1210.800000011921","","","","2","stimuli/stim017_inanimate_tree_1.png","stimuli/stim002_animate_fish_2.png","stimuli/tree_lowercase.png","157"
"html-button-response-mod","165","280093","0.0-165.0","74284","","","","","","triplet","1040.6000000238419","","","","2","stimuli/stim007_animate_bird_3.png","stimuli/boats_uppercase.png","stimuli/boats_lowercase.png","158"
"html-button-response-mod","166","281503","0.0-166.0","74284","","","","","","triplet","906.1999999880791","","","","1","stimuli/stim024_inanimate_tools_4.png","stimuli/fish_lowercase.png","stimuli/stim003_animate_fish_3.png","159"
"html-button-response-mod","167","282853","0.0-167.0","74284","","","","","","triplet","845.9000000059605","","","","0","stimuli/bird_uppercase.png","stimuli/stim014_inanimate_boats_2.png","stimuli/stim008_animate_bird_4.png","160"
"html-button-response-mod","168","284329","0.0-168.0","74284","","","","","","triplet","972.5","","","","1","stimuli/fish_uppercase.png","stimuli/bird_lowercase.png","stimuli/stim024_inanimate_tools_4.png","161"
"html-button-response-mod","169","285755","0.0-169.0","74284","","","","","","triplet","922.2999999821186","","","","2","stimuli/stim013_inanimate_boats_1.png","stimuli/stim019_inanimate_tree_3.png","stimuli/tools_lowercase.png","162"
"html-button-response-mod","170","287042","0.0-170.0","74284","","","","","","triplet","780.9000000059605","","","","0","stimuli/bird_lowercase.png","stimuli/stim009_animate_face_1.png","stimuli/stim012_animate_face_4.png","163"
"html-button-response-mod","171","288787","0.0-171.0","74284","","","","","","triplet","1241.6000000238419","","","","1","stimuli/stim019_inanimate_tree_3.png","stimuli/stim024_inanimate_tools_4.png","stimuli/stim008_animate_bird_4.png","164"
"html-button-response-mod","172","290298","0.0-172.0","74284","","","","","","triplet","1005.5","","","","1","stimuli/tree_lowercase.png","stimuli/stim008_animate_bird_4.png","stimuli/bird_uppercase.png","165"
"html-button-response-mod","173","291983","0.0-173.0","74284","","","","","","triplet","1181.2000000178814","","","","1","stimuli/fish_uppercase.png","stimuli/stim019_inanimate_tree_3.png","stimuli/stim016_inanimate_boats_4.png","166"
"html-button-response-mod","174","293447","0.0-174.0","74284","","","","","","triplet","960.5","","","","0","stimuli/boats_lowercase.png","stimuli/stim014_inanimate_boats_2.png","stimuli/stim019_inanimate_tree_3.png","167"
"html-button-response-mod","175","294862","0.0-175.0","74284","","","","","","triplet","911.1999999880791","","","","1","stimuli/stim008_animate_bird_4.png","stimuli/stim021_inanimate_tools_1.png","stimuli/stim015_inanimate_boats_3.png","168"
"html-button-response-mod","176","296235","0.0-176.0","74284","","","","","","triplet","868.0999999940395","","","","1","stimuli/stim001_animate_fish_1.png","stimuli/bird_lowercase.png","stimuli/stim003_animate_fish_3.png","169"
"html-button-response-mod","177","297652","0.0-177.0","74284","","","","","","triplet","912.3000000119209","","","","2","stimuli/stim005_animate_bird_1.png","stimuli/stim002_animate_fish_2.png","stimuli/tree_uppercase.png","170"
"html-button-response-mod","178","298913","0.0-178.0","74284","","","","","","triplet","757.5","","","","1","stimuli/stim015_inanimate_boats_3.png","stimuli/face_uppercase.png","stimuli/stim023_inanimate_tools_3.png","171"
"html-button-response-mod","179","299989","0.0-179.0","74284","","","","","","triplet","572.1999999880791","","","","0","stimuli/tree_lowercase.png","stimuli/stim003_animate_fish_3.png","stimuli/stim017_inanimate_tree_1.png","172"
"html-button-response-mod","180","301297","0.0-180.0","74284","","","","","","triplet","803.5","","","","1","stimuli/stim016_inanimate_boats_4.png","stimuli/face_uppercase.png","stimuli/stim023_inanimate_tools_3.png","173"
"html-button-response-mod","181","302605","0.0-181.0","74284","","","","","","triplet","803.0999999940395","","","","2","stimuli/stim006_animate_bird_2.png","stimuli/stim021_inanimate_tools_1.png","stimuli/tools_lowercase.png","174"
"html-button-response-mod","182","303879","0.0-182.0","74284","","","","","","triplet","769.0999999940395","","","","1","stimuli/stim021_inanimate_tools_1.png","stimuli/bird_uppercase.png","stimuli/stim020_inanimate_tree_4.png","175"
"html-button-response-mod","183","306190","0.0-183.0","74284","","","","","","triplet","1808.2999999821186","","","","1","stimuli/stim004_animate_fish_4.png","stimuli/stim013_inanimate_boats_1.png","stimuli/stim001_animate_fish_1.png","176"
"html-button-response-mod","184","307777","0.0-184.0","74284","","","","","","triplet","1082.199999988079","","","","2","stimuli/stim008_animate_bird_4.png","stimuli/stim023_inanimate_tools_3.png","stimuli/stim009_animate_face_1.png","177"
"html-button-response-mod","185","309118","0.0-185.0","74284","","","","","","triplet","836.2999999821186","","","","1","stimuli/boats_lowercase.png","stimuli/stim021_inanimate_tools_1.png","stimuli/fish_uppercase.png","178"
"html-button-response-mod","186","310922","0.0-186.0","74284","","","","","","triplet","1299.5999999940395","","","","2","stimuli/stim016_inanimate_boats_4.png","stimuli/stim013_inanimate_boats_1.png","stimuli/stim010_animate_face_2.png","179"
"html-button-response-mod","187","312613","0.0-187.0","74284","","","","","","triplet","1187.9000000059605","","","","0","stimuli/tree_lowercase.png","stimuli/face_uppercase.png","stimuli/bird_uppercase.png","180"
"html-button-response-mod","188","314441","0.0-188.0","74284","","","","","","triplet","1323.4000000059605","","","","0","stimuli/tree_uppercase.png","stimuli/stim010_animate_face_2.png","stimuli/stim021_inanimate_tools_1.png","181"
"html-button-response-mod","189","315791","0.0-189.0","74284","","","","","","triplet","846.2000000178814","","","","1","stimuli/stim012_animate_face_4.png","stimuli/fish_uppercase.png","stimuli/stim022_inanimate_tools_2.png","182"
"html-button-response-mod","190","317138","0.0-190.0","74284","","","","","","triplet","843.8000000119209","","","","2","stimuli/stim015_inanimate_boats_3.png","stimuli/stim016_inanimate_boats_4.png","stimuli/fish_lowercase.png","183"
"html-button-response-mod","191","318404","0.0-191.0","74284","","","","","","triplet","759.5","","","","2","stimuli/stim015_inanimate_boats_3.png","stimuli/stim005_animate_bird_1.png","stimuli/bird_lowercase.png","184"
"html-button-response-mod","192","320344","0.0-192.0","74284","","","","","","triplet","1435","","","","2","stimuli/bird_uppercase.png","stimuli/fish_uppercase.png","stimuli/stim007_animate_bird_3.png","185"
"html-button-response-mod","193","321971","0.0-193.0","74284","","","","","","triplet","1122.9000000059605","","","","0","stimuli/face_lowercase.png","stimuli/stim016_inanimate_boats_4.png","stimuli/stim004_animate_fish_4.png","186"
"html-button-response-mod","194","323364","0.0-194.0","74284","","","","","","triplet","889.1999999880791","","","","1","stimuli/stim023_inanimate_tools_3.png","stimuli/tree_uppercase.png","stimuli/stim017_inanimate_tree_1.png","187"
"html-button-response-mod","195","324737","0.0-195.0","74284","","","","","","triplet","870","","","","2","stimuli/stim001_animate_fish_1.png","stimuli/stim010_animate_face_2.png","stimuli/face_uppercase.png","188"
"html-button-response-mod","196","326025","0.0-196.0","74284","","","","","","triplet","783.0999999940395","","","","1","stimuli/stim015_inanimate_boats_3.png","stimuli/tools_uppercase.png","stimuli/stim016_inanimate_boats_4.png","189"
"html-button-response-mod","197","328166","0.0-197.0","74284","","","","","","triplet","1638.199999988079","","","","1","stimuli/stim003_animate_fish_3.png","stimuli/stim018_inanimate_tree_2.png","stimuli/stim023_inanimate_tools_3.png","190"
"html-button-response-mod","198","329500","0.0-198.0","74284","","","","","","triplet","828.8000000119209","","","","2","stimuli/stim013_inanimate_boats_1.png","stimuli/stim003_animate_fish_3.png","stimuli/boats_lowercase.png","191"
"html-button-response-mod","199","330963","0.0-199.0","74284","","","","","","triplet","958.6999999880791","","","","2","stimuli/fish_lowercase.png","stimuli/face_uppercase.png","stimuli/stim016_inanimate_boats_4.png","192"
"html-button-response-mod","200","332291","0.0-200.0","74284","","","","","","triplet","823.9000000059605","","","","2","stimuli/tree_lowercase.png","stimuli/boats_lowercase.png","stimuli/stim012_animate_face_4.png","193"
"html-button-response-mod","201","333866","0.0-201.0","74284","","","","","","triplet","1068.4000000059605","","","","2","stimuli/stim013_inanimate_boats_1.png","stimuli/stim006_animate_bird_2.png","stimuli/tree_uppercase.png","194"
"html-button-response-mod","202","334896","0.0-202.0","74284","","","","","","triplet","525.1999999880791","","","","2","stimuli/stim001_animate_fish_1.png","stimuli/stim011_animate_face_3.png","stimuli/bird_lowercase.png","195"
"html-button-response-mod","203","336038","0.0-203.0","74284","","","","","","triplet","639.3000000119209","","","","2","stimuli/fish_uppercase.png","stimuli/tools_lowercase.png","stimuli/bird_lowercase.png","196"
"html-button-response-mod","204","337367","0.0-204.0","74284","","","","","","triplet","824","","","","1","stimuli/bird_lowercase.png","stimuli/stim016_inanimate_boats_4.png","stimuli/boats_uppercase.png","197"
"html-button-response-mod","205","338696","0.0-205.0","74284","","","","","","triplet","825.4000000059605","","","","2","stimuli/stim014_inanimate_boats_2.png","stimuli/stim004_animate_fish_4.png","stimuli/bird_uppercase.png","198"
"html-button-response-mod","206","340214","0.0-206.0","74284","","","","","","triplet","1014.5999999940395","","","","0","stimuli/stim009_animate_face_1.png","stimuli/face_uppercase.png","stimuli/bird_uppercase.png","199"
"html-button-response","207","342345","0.0-207.0","74284","","","","","","break","1628.5","<p>BREAK</p><p>Take a break for as long as you need</p><p>Click the button to continue</p>","0","","","","","",""
"html-button-response-mod","208","343297","0.0-208.0","74284","","","","","","triplet","950.5999999940395","","","","2","stimuli/stim016_inanimate_boats_4.png","stimuli/stim004_animate_fish_4.png","stimuli/tools_lowercase.png","200"
"html-button-response-mod","209","344657","0.0-209.0","74284","","","","","","triplet","856.4000000059605","","","","0","stimuli/fish_uppercase.png","stimuli/stim015_inanimate_boats_3.png","stimuli/stim016_inanimate_boats_4.png","201"
"html-button-response-mod","210","346055","0.0-210.0","74284","","","","","","triplet","893.6999999880791","","","","2","stimuli/stim024_inanimate_tools_4.png","stimuli/stim003_animate_fish_3.png","stimuli/stim021_inanimate_tools_1.png","202"
"html-button-response-mod","211","347430","0.0-211.0","74284","","","","","","triplet","871.1000000238419","","","","2","stimuli/tree_lowercase.png","stimuli/boats_lowercase.png","stimuli/stim013_inanimate_boats_1.png","203"
"html-button-response-mod","212","348845","0.0-212.0","74284","","","","","","triplet","911.5999999940395","","","","1","stimuli/stim023_inanimate_tools_3.png","stimuli/stim018_inanimate_tree_2.png","stimuli/stim012_animate_face_4.png","204"
"html-button-response-mod","213","349883","0.0-213.0","74284","","","","","","triplet","533.6999999880791","","","","1","stimuli/stim015_inanimate_boats_3.png","stimuli/tree_lowercase.png","stimuli/stim019_inanimate_tree_3.png","205"
"html-button-response-mod","214","351264","0.0-214.0","74284","","","","","","triplet","876.9000000059605","","","","1","stimuli/stim013_inanimate_boats_1.png","stimuli/bird_uppercase.png","stimuli/stim017_inanimate_tree_1.png","206"
"html-button-response-mod","215","352833","0.0-215.0","74284","","","","","","triplet","1065.5","","","","2","stimuli/face_lowercase.png","stimuli/tools_lowercase.png","stimuli/stim001_animate_fish_1.png","207"
"html-button-response-mod","216","354167","0.0-216.0","74284","","","","","","triplet","830.2000000178814","","","","2","stimuli/tree_lowercase.png","stimuli/bird_lowercase.png","stimuli/stim020_inanimate_tree_4.png","208"
"html-button-response-mod","217","355227","0.0-217.0","74284","","","","","","triplet","556.5","","","","2","stimuli/stim001_animate_fish_1.png","stimuli/stim006_animate_bird_2.png","stimuli/fish_uppercase.png","209"
"html-button-response-mod","218","356722","0.0-218.0","74284","","","","","","triplet","988.9000000059605","","","","1","stimuli/stim005_animate_bird_1.png","stimuli/stim024_inanimate_tools_4.png","stimuli/stim022_inanimate_tools_2.png","210"
"html-button-response-mod","219","358121","0.0-219.0","74284","","","","","","triplet","893","","","","0","stimuli/face_uppercase.png","stimuli/stim019_inanimate_tree_3.png","stimuli/stim023_inanimate_tools_3.png","211"
"html-button-response-mod","220","359326","0.0-220.0","74284","","","","","","triplet","701.6000000238419","","","","2","stimuli/stim009_animate_face_1.png","stimuli/stim006_animate_bird_2.png","stimuli/boats_lowercase.png","212"
"html-button-response-mod","221","360374","0.0-221.0","74284","","","","","","triplet","542.0999999940395","","","","2","stimuli/stim005_animate_bird_1.png","stimuli/stim009_animate_face_1.png","stimuli/stim020_inanimate_tree_4.png","213"
"html-button-response-mod","222","361817","0.0-222.0","74284","","","","","","triplet","939.3000000119209","","","","0","stimuli/stim010_animate_face_2.png","stimuli/boats_uppercase.png","stimuli/tree_uppercase.png","214"
"html-button-response-mod","223","363340","0.0-223.0","74284","","","","","","triplet","1019.0999999940395","","","","2","stimuli/stim004_animate_fish_4.png","stimuli/stim009_animate_face_1.png","stimuli/stim013_inanimate_boats_1.png","215"
"html-button-response-mod","224","364757","0.0-224.0","74284","","","","","","triplet","912.1999999880791","","","","2","stimuli/stim002_animate_fish_2.png","stimuli/stim005_animate_bird_1.png","stimuli/tools_uppercase.png","216"
"html-button-response-mod","225","366145","0.0-225.0","74284","","","","","","triplet","883.3000000119209","","","","1","stimuli/bird_uppercase.png","stimuli/stim004_animate_fish_4.png","stimuli/fish_lowercase.png","217"
"html-button-response-mod","226","367599","0.0-226.0","74284","","","","","","triplet","947.5","","","","1","stimuli/bird_lowercase.png","stimuli/stim001_animate_fish_1.png","stimuli/boats_uppercase.png","218"
"html-button-response-mod","227","369135","0.0-227.0","74284","","","","","","triplet","1032.7000000178814","","","","0","stimuli/tree_uppercase.png","stimuli/stim019_inanimate_tree_3.png","stimuli/stim016_inanimate_boats_4.png","219"
"html-button-response-mod","228","370536","0.0-228.0","74284","","","","","","triplet","898.0999999940395","","","","2","stimuli/tools_lowercase.png","stimuli/face_lowercase.png","stimuli/stim018_inanimate_tree_2.png","220"
"html-button-response-mod","229","371772","0.0-229.0","74284","","","","","","triplet","732.9000000059605","","","","2","stimuli/stim015_inanimate_boats_3.png","stimuli/stim014_inanimate_boats_2.png","stimuli/fish_uppercase.png","221"
"html-button-response-mod","230","372897","0.0-230.0","74284","","","","","","triplet","621.5","","","","2","stimuli/stim015_inanimate_boats_3.png","stimuli/stim018_inanimate_tree_2.png","stimuli/fish_lowercase.png","222"
"html-button-response-mod","231","374781","0.0-231.0","74284","","","","","","triplet","1381.5","","","","0","stimuli/tools_uppercase.png","stimuli/stim009_animate_face_1.png","stimuli/stim024_inanimate_tools_4.png","223"
"html-button-response-mod","232","376309","0.0-232.0","74284","","","","","","triplet","1021","","","","0","stimuli/stim001_animate_fish_1.png","stimuli/tools_lowercase.png","stimuli/tools_uppercase.png","224"
"html-button-response-mod","233","377918","0.0-233.0","74284","","","","","","triplet","1105.5999999940395","","","","0","stimuli/stim015_inanimate_boats_3.png","stimuli/stim020_inanimate_tree_4.png","stimuli/stim010_animate_face_2.png","225"
"html-button-response-mod","234","379398","0.0-234.0","74284","","","","","","triplet","976","","","","0","stimuli/fish_uppercase.png","stimuli/stim018_inanimate_tree_2.png","stimuli/stim024_inanimate_tools_4.png","226"
"html-button-response-mod","235","380726","0.0-235.0","74284","","","","","","triplet","822.3000000119209","","","","1","stimuli/stim012_animate_face_4.png","stimuli/stim013_inanimate_boats_1.png","stimuli/stim022_inanimate_tools_2.png","227"
"html-button-response-mod","236","381926","0.0-236.0","74284","","","","","","triplet","696.5","","","","2","stimuli/bird_uppercase.png","stimuli/tree_uppercase.png","stimuli/stim006_animate_bird_2.png","228"
"html-button-response-mod","237","383466","0.0-237.0","74284","","","","","","triplet","1035.4000000059605","","","","2","stimuli/stim005_animate_bird_1.png","stimuli/stim017_inanimate_tree_1.png","stimuli/tree_uppercase.png","229"
"html-button-response-mod","238","384867","0.0-238.0","74284","","","","","","triplet","895.4000000059605","","","","1","stimuli/tools_uppercase.png","stimuli/stim003_animate_fish_3.png","stimuli/boats_uppercase.png","230"
"html-button-response-mod","239","386352","0.0-239.0","74284","","","","","","triplet","980.7999999821186","","","","0","stimuli/fish_lowercase.png","stimuli/stim003_animate_fish_3.png","stimuli/stim019_inanimate_tree_3.png","231"
"html-button-response-mod","240","388177","0.0-240.0","74284","","","","","","triplet","1321.9000000059605","","","","2","stimuli/stim005_animate_bird_1.png","stimuli/stim006_animate_bird_2.png","stimuli/stim003_animate_fish_3.png","232"
"html-button-response-mod","241","389565","0.0-241.0","74284","","","","","","triplet","882.4000000059605","","","","0","stimuli/boats_lowercase.png","stimuli/stim006_animate_bird_2.png","stimuli/stim007_animate_bird_3.png","233"
"html-button-response-mod","242","390842","0.0-242.0","74284","","","","","","triplet","771.6999999880791","","","","1","stimuli/stim012_animate_face_4.png","stimuli/boats_lowercase.png","stimuli/stim022_inanimate_tools_2.png","234"
"html-button-response-mod","243","392292","0.0-243.0","74284","","","","","","triplet","945","","","","0","stimuli/stim017_inanimate_tree_1.png","stimuli/stim006_animate_bird_2.png","stimuli/stim021_inanimate_tools_1.png","235"
"html-button-response-mod","244","393584","0.0-244.0","74284","","","","","","triplet","787.4000000059605","","","","1","stimuli/stim003_animate_fish_3.png","stimuli/boats_lowercase.png","stimuli/stim014_inanimate_boats_2.png","236"
"html-button-response-mod","245","394924","0.0-245.0","74284","","","","","","triplet","835.2999999821186","","","","1","stimuli/fish_uppercase.png","stimuli/stim009_animate_face_1.png","stimuli/boats_uppercase.png","237"
"html-button-response-mod","246","396415","0.0-246.0","74284","","","","","","triplet","984.5999999940395","","","","0","stimuli/stim010_animate_face_2.png","stimuli/stim007_animate_bird_3.png","stimuli/stim023_inanimate_tools_3.png","238"
"html-button-response-mod","247","397694","0.0-247.0","74284","","","","","","triplet","773.2000000178814","","","","1","stimuli/stim003_animate_fish_3.png","stimuli/face_lowercase.png","stimuli/stim013_inanimate_boats_1.png","239"
"html-button-response-mod","248","399076","0.0-248.0","74284","","","","","","triplet","876.0999999940395","","","","1","stimuli/stim006_animate_bird_2.png","stimuli/face_uppercase.png","stimuli/stim021_inanimate_tools_1.png","240"
"html-button-response-mod","249","400577","0.0-249.0","74284","","","","","","triplet","997.9000000059605","","","","1","stimuli/stim020_inanimate_tree_4.png","stimuli/stim016_inanimate_boats_4.png","stimuli/boats_uppercase.png","241"
"html-button-response-mod","250","401995","0.0-250.0","74284","","","","","","triplet","914","","","","1","stimuli/stim007_animate_bird_3.png","stimuli/face_uppercase.png","stimuli/stim003_animate_fish_3.png","242"
"html-button-response-mod","251","403375","0.0-251.0","74284","","","","","","triplet","876.4000000059605","","","","2","stimuli/stim024_inanimate_tools_4.png","stimuli/stim015_inanimate_boats_3.png","stimuli/tree_uppercase.png","243"
"html-button-response-mod","252","404679","0.0-252.0","74284","","","","","","triplet","801","","","","1","stimuli/stim005_animate_bird_1.png","stimuli/tree_lowercase.png","stimuli/stim011_animate_face_3.png","244"
"html-button-response-mod","253","405912","0.0-253.0","74284","","","","","","triplet","728.9000000059605","","","","1","stimuli/stim010_animate_face_2.png","stimuli/face_uppercase.png","stimuli/stim023_inanimate_tools_3.png","245"
"html-button-response-mod","254","407188","0.0-254.0","74284","","","","","","triplet","770.6000000238419","","","","2","stimuli/stim022_inanimate_tools_2.png","stimuli/stim007_animate_bird_3.png","stimuli/stim017_inanimate_tree_1.png","246"
"html-button-response-mod","255","408560","0.0-255.0","74284","","","","","","triplet","868.7000000178814","","","","0","stimuli/tree_lowercase.png","stimuli/stim007_animate_bird_3.png","stimuli/stim006_animate_bird_2.png","247"
"html-button-response-mod","256","409994","0.0-256.0","74284","","","","","","triplet","929.1999999880791","","","","0","stimuli/stim003_animate_fish_3.png","stimuli/stim011_animate_face_3.png","stimuli/stim009_animate_face_1.png","248"
"html-button-response-mod","257","411433","0.0-257.0","74284","","","","","","triplet","935.9000000059605","","","","1","stimuli/fish_lowercase.png","stimuli/stim004_animate_fish_4.png","stimuli/boats_lowercase.png","249"
"html-button-response","258","416690","0.0-258.0","74284","","","","","","break","4751.0999999940395","<p>BREAK</p><p>Take a break for as long as you need</p><p>Click the button to continue</p>","0","","","","","",""
"html-button-response-mod","259","418201","0.0-259.0","74284","","","","","","triplet","1509.2000000178814","","","","1","stimuli/fish_lowercase.png","stimuli/stim004_animate_fish_4.png","stimuli/tree_uppercase.png","250"
"html-button-response-mod","260","419541","0.0-260.0","74284","","","","","","triplet","835.3000000119209","","","","1","stimuli/boats_uppercase.png","stimuli/stim013_inanimate_boats_1.png","stimuli/fish_uppercase.png","251"
"html-button-response-mod","261","420810","0.0-261.0","74284","","","","","","triplet","766.3000000119209","","","","2","stimuli/fish_lowercase.png","stimuli/boats_uppercase.png","stimuli/stim013_inanimate_boats_1.png","252"
"html-button-response-mod","262","422131","0.0-262.0","74284","","","","","","triplet","816","","","","0","stimuli/boats_lowercase.png","stimuli/stim006_animate_bird_2.png","stimuli/stim018_inanimate_tree_2.png","253"
"html-button-response-mod","263","423489","0.0-263.0","74284","","","","","","triplet","854","","","","2","stimuli/tree_lowercase.png","stimuli/boats_lowercase.png","stimuli/stim016_inanimate_boats_4.png","254"
"html-button-response-mod","264","424880","0.0-264.0","74284","","","","","","triplet","884.3000000119209","","","","0","stimuli/tools_uppercase.png","stimuli/stim020_inanimate_tree_4.png","stimuli/stim003_animate_fish_3.png","255"
"html-button-response-mod","265","426134","0.0-265.0","74284","","","","","","triplet","750.3000000119209","","","","2","stimuli/stim011_animate_face_3.png","stimuli/stim002_animate_fish_2.png","stimuli/fish_lowercase.png","256"
"html-button-response-mod","266","428106","0.0-266.0","74284","","","","","","triplet","1466.9000000059605","","","","0","stimuli/stim016_inanimate_boats_4.png","stimuli/stim004_animate_fish_4.png","stimuli/stim002_animate_fish_2.png","257"
"html-button-response-mod","267","429347","0.0-267.0","74284","","","","","","triplet","735.6999999880791","","","","1","stimuli/stim015_inanimate_boats_3.png","stimuli/fish_uppercase.png","stimuli/stim009_animate_face_1.png","258"
"html-button-response-mod","268","430416","0.0-268.0","74284","","","","","","triplet","564","","","","0","stimuli/tools_lowercase.png","stimuli/stim009_animate_face_1.png","stimuli/stim018_inanimate_tree_2.png","259"
"html-button-response-mod","269","431771","0.0-269.0","74284","","","","","","triplet","851.1000000238419","","","","2","stimuli/stim020_inanimate_tree_4.png","stimuli/stim009_animate_face_1.png","stimuli/face_uppercase.png","260"
"html-button-response-mod","270","433041","0.0-270.0","74284","","","","","","triplet","766.2000000178814","","","","1","stimuli/stim021_inanimate_tools_1.png","stimuli/tools_lowercase.png","stimuli/stim011_animate_face_3.png","261"
"html-button-response-mod","271","434738","0.0-271.0","74284","","","","","","triplet","1193.9000000059605","","","","0","stimuli/stim012_animate_face_4.png","stimuli/stim006_animate_bird_2.png","stimuli/stim004_animate_fish_4.png","262"
"html-button-response-mod","272","436190","0.0-272.0","74284","","","","","","triplet","949.9000000059605","","","","0","stimuli/stim020_inanimate_tree_4.png","stimuli/face_uppercase.png","stimuli/tree_uppercase.png","263"
"html-button-response-mod","273","437933","0.0-273.0","74284","","","","","","triplet","1238.6000000238419","","","","1","stimuli/stim014_inanimate_boats_2.png","stimuli/boats_uppercase.png","stimuli/stim020_inanimate_tree_4.png","264"
"html-button-response-mod","274","439315","0.0-274.0","74284","","","","","","triplet","879.4000000059605","","","","0","stimuli/tree_lowercase.png","stimuli/stim018_inanimate_tree_2.png","stimuli/stim013_inanimate_boats_1.png","265"
"html-button-response-mod","275","440950","0.0-275.0","74284","","","","","","triplet","1132","","","","2","stimuli/stim004_animate_fish_4.png","stimuli/stim023_inanimate_tools_3.png","stimuli/stim006_animate_bird_2.png","266"
"html-button-response-mod","276","442349","0.0-276.0","74284","","","","","","triplet","895.6999999880791","","","","0","stimuli/boats_uppercase.png","stimuli/stim013_inanimate_boats_1.png","stimuli/stim021_inanimate_tools_1.png","267"
"html-button-response-mod","277","444418","0.0-277.0","74284","","","","","","triplet","1565.199999988079","","","","1","stimuli/stim022_inanimate_tools_2.png","stimuli/stim001_animate_fish_1.png","stimuli/stim015_inanimate_boats_3.png","268"
"html-button-response-mod","278","446029","0.0-278.0","74284","","","","","","triplet","1105.6000000238419","","","","0","stimuli/stim003_animate_fish_3.png","stimuli/face_uppercase.png","stimuli/face_lowercase.png","269"
"html-button-response-mod","279","447482","0.0-279.0","74284","","","","","","triplet","949.8000000119209","","","","2","stimuli/stim022_inanimate_tools_2.png","stimuli/stim016_inanimate_boats_4.png","stimuli/tree_lowercase.png","270"
"html-button-response-mod","280","448810","0.0-280.0","74284","","","","","","triplet","822.6999999880791","","","","1","stimuli/stim014_inanimate_boats_2.png","stimuli/tools_uppercase.png","stimuli/stim011_animate_face_3.png","271"
"html-button-response-mod","281","450137","0.0-281.0","74284","","","","","","triplet","822.8000000119209","","","","2","stimuli/stim001_animate_fish_1.png","stimuli/stim015_inanimate_boats_3.png","stimuli/fish_lowercase.png","272"
"html-button-response-mod","282","451439","0.0-282.0","74284","","","","","","triplet","798.4000000059605","","","","0","stimuli/tree_lowercase.png","stimuli/stim013_inanimate_boats_1.png","stimuli/stim007_animate_bird_3.png","273"
"html-button-response-mod","283","452747","0.0-283.0","74284","","","","","","triplet","802.5999999940395","","","","1","stimuli/stim018_inanimate_tree_2.png","stimuli/stim016_inanimate_boats_4.png","stimuli/stim020_inanimate_tree_4.png","274"
"html-button-response-mod","284","454011","0.0-284.0","74284","","","","","","triplet","759.8000000119209","","","","2","stimuli/stim022_inanimate_tools_2.png","stimuli/stim021_inanimate_tools_1.png","stimuli/face_lowercase.png","275"
"html-button-response-mod","285","455391","0.0-285.0","74284","","","","","","triplet","877.0999999940395","","","","2","stimuli/tools_lowercase.png","stimuli/boats_lowercase.png","stimuli/stim023_inanimate_tools_3.png","276"
"html-button-response-mod","286","456752","0.0-286.0","74284","","","","","","triplet","857.2000000178814","","","","1","stimuli/stim014_inanimate_boats_2.png","stimuli/fish_uppercase.png","stimuli/stim022_inanimate_tools_2.png","277"
"html-button-response-mod","287","457790","0.0-287.0","74284","","","","","","triplet","534.5","","","","2","stimuli/stim009_animate_face_1.png","stimuli/stim024_inanimate_tools_4.png","stimuli/face_lowercase.png","278"
"html-button-response-mod","288","458815","0.0-288.0","74284","","","","","","triplet","519.8999999761581","","","","1","stimuli/stim013_inanimate_boats_1.png","stimuli/fish_lowercase.png","stimuli/stim014_inanimate_boats_2.png","279"
"html-button-response-mod","289","460353","0.0-289.0","74284","","","","","","triplet","1031.6000000238419","","","","0","stimuli/tree_uppercase.png","stimuli/stim013_inanimate_boats_1.png","stimuli/stim022_inanimate_tools_2.png","280"
"html-button-response-mod","290","461847","0.0-290.0","74284","","","","","","triplet","988.1999999880791","","","","1","stimuli/tree_uppercase.png","stimuli/stim006_animate_bird_2.png","stimuli/bird_lowercase.png","281"
"html-button-response-mod","291","462946","0.0-291.0","74284","","","","","","triplet","594.8999999761581","","","","1","stimuli/stim001_animate_fish_1.png","stimuli/bird_uppercase.png","stimuli/stim002_animate_fish_2.png","282"
"html-button-response-mod","292","464581","0.0-292.0","74284","","","","","","triplet","1128.0999999940395","","","","0","stimuli/stim020_inanimate_tree_4.png","stimuli/stim011_animate_face_3.png","stimuli/stim008_animate_bird_4.png","283"
"html-button-response-mod","293","465704","0.0-293.0","74284","","","","","","triplet","619","","","","0","stimuli/stim024_inanimate_tools_4.png","stimuli/stim003_animate_fish_3.png","stimuli/stim016_inanimate_boats_4.png","284"
"html-button-response-mod","294","467096","0.0-294.0","74284","","","","","","triplet","888.3999999761581","","","","2","stimuli/stim006_animate_bird_2.png","stimuli/stim009_animate_face_1.png","stimuli/fish_uppercase.png","285"
"html-button-response-mod","295","468583","0.0-295.0","74284","","","","","","triplet","982.5999999940395","","","","2","stimuli/stim023_inanimate_tools_3.png","stimuli/stim008_animate_bird_4.png","stimuli/tools_lowercase.png","286"
"html-button-response-mod","296","470034","0.0-296.0","74284","","","","","","triplet","946.5","","","","0","stimuli/tree_lowercase.png","stimuli/stim005_animate_bird_1.png","stimuli/stim001_animate_fish_1.png","287"
"html-button-response-mod","297","471413","0.0-297.0","74284","","","","","","triplet","876","","","","1","stimuli/stim007_animate_bird_3.png","stimuli/bird_uppercase.png","stimuli/stim006_animate_bird_2.png","288"
"html-button-response-mod","298","473017","0.0-298.0","74284","","","","","","triplet","1099.5999999940395","","","","0","stimuli/stim020_inanimate_tree_4.png","stimuli/stim014_inanimate_boats_2.png","stimuli/stim015_inanimate_boats_3.png","289"
"html-button-response-mod","299","475013","0.0-299.0","74284","","","","","","triplet","1492.300000011921","","","","1","stimuli/stim010_animate_face_2.png","stimuli/boats_uppercase.png","stimuli/stim011_animate_face_3.png","290"
"html-button-response-mod","300","476169","0.0-300.0","74284","","","","","","triplet","651.5","","","","1","stimuli/stim018_inanimate_tree_2.png","stimuli/tools_uppercase.png","stimuli/stim021_inanimate_tools_1.png","291"
"html-button-response-mod","301","477705","0.0-301.0","74284","","","","","","triplet","1032.3999999761581","","","","2","stimuli/stim022_inanimate_tools_2.png","stimuli/stim017_inanimate_tree_1.png","stimuli/fish_lowercase.png","292"
"html-button-response-mod","302","479252","0.0-302.0","74284","","","","","","triplet","1042","","","","2","stimuli/bird_lowercase.png","stimuli/fish_uppercase.png","stimuli/stim005_animate_bird_1.png","293"
"html-button-response-mod","303","480795","0.0-303.0","74284","","","","","","triplet","1037.8999999761581","","","","1","stimuli/stim020_inanimate_tree_4.png","stimuli/stim015_inanimate_boats_3.png","stimuli/stim007_animate_bird_3.png","294"
"html-button-response-mod","304","481552","0.0-304.0","74284","","","","","","triplet","253.80000001192093","","","","0","stimuli/fish_lowercase.png","stimuli/stim004_animate_fish_4.png","stimuli/stim023_inanimate_tools_3.png","295"
"html-button-response-mod","305","482978","0.0-305.0","74284","","","","","","triplet","922.6000000238419","","","","2","stimuli/face_lowercase.png","stimuli/tree_lowercase.png","stimuli/stim009_animate_face_1.png","296"
"html-button-response-mod","306","484807","0.0-306.0","74284","","","","","","triplet","1321.9000000059605","","","","0","stimuli/stim022_inanimate_tools_2.png","stimuli/stim017_inanimate_tree_1.png","stimuli/fish_uppercase.png","297"
"html-button-response-mod","307","486601","0.0-307.0","74284","","","","","","triplet","1290","","","","1","stimuli/stim012_animate_face_4.png","stimuli/face_uppercase.png","stimuli/fish_uppercase.png","298"
"html-button-response-mod","308","487977","0.0-308.0","74284","","","","","","triplet","871.8000000119209","","","","0","stimuli/stim004_animate_fish_4.png","stimuli/face_uppercase.png","stimuli/fish_lowercase.png","299"
"html-button-response","309","490079","0.0-309.0","74284","","","","","","break","1596.9000000059605","<p>BREAK</p><p>Take a break for as long as you need</p><p>Click the button to continue</p>","0","","","","","",""
"html-button-response-mod","310","490934","0.0-310.0","74284","","","","","","triplet","853.9000000059605","","","","1","stimuli/stim023_inanimate_tools_3.png","stimuli/stim015_inanimate_boats_3.png","stimuli/stim021_inanimate_tools_1.png","300"
"html-button-response-mod","311","492229","0.0-311.0","74284","","","","","","triplet","789.5","","","","0","stimuli/bird_lowercase.png","stimuli/stim006_animate_bird_2.png","stimuli/stim016_inanimate_boats_4.png","301"
"html-button-response-mod","312","493558","0.0-312.0","74284","","","","","","triplet","822.9000000059605","","","","2","stimuli/tree_uppercase.png","stimuli/fish_uppercase.png","stimuli/stim001_animate_fish_1.png","302"
"html-button-response-mod","313","494769","0.0-313.0","74284","","","","","","triplet","705","","","","2","stimuli/bird_lowercase.png","stimuli/fish_lowercase.png","stimuli/stim003_animate_fish_3.png","303"
"html-button-response-mod","314","496176","0.0-314.0","74284","","","","","","triplet","904.0999999940395","","","","0","stimuli/tools_lowercase.png","stimuli/stim008_animate_bird_4.png","stimuli/stim014_inanimate_boats_2.png","304"
"html-button-response-mod","315","498149","0.0-315.0","74284","","","","","","triplet","1468.5","","","","1","stimuli/stim018_inanimate_tree_2.png","stimuli/stim007_animate_bird_3.png","stimuli/stim019_inanimate_tree_3.png","305"
"html-button-response-mod","316","499265","0.0-316.0","74284","","","","","","triplet","613.2000000178814","","","","0","stimuli/tools_uppercase.png","stimuli/stim021_inanimate_tools_1.png","stimuli/stim024_inanimate_tools_4.png","306"
"html-button-response-mod","317","500476","0.0-317.0","74284","","","","","","triplet","706.0999999940395","","","","0","stimuli/face_lowercase.png","stimuli/tree_uppercase.png","stimuli/bird_uppercase.png","307"
"html-button-response-mod","318","502048","0.0-318.0","74284","","","","","","triplet","1068.3999999761581","","","","2","stimuli/stim013_inanimate_boats_1.png","stimuli/stim023_inanimate_tools_3.png","stimuli/stim014_inanimate_boats_2.png","308"
"html-button-response-mod","319","503382","0.0-319.0","74284","","","","","","triplet","828.5999999940395","","","","2","stimuli/fish_lowercase.png","stimuli/tools_lowercase.png","stimuli/stim003_animate_fish_3.png","309"
"html-button-response-mod","320","504853","0.0-320.0","74284","","","","","","triplet","967.0999999940395","","","","0","stimuli/face_uppercase.png","stimuli/stim009_animate_face_1.png","stimuli/stim013_inanimate_boats_1.png","310"
"html-button-response-mod","321","506318","0.0-321.0","74284","","","","","","triplet","962","","","","2","stimuli/stim016_inanimate_boats_4.png","stimuli/stim013_inanimate_boats_1.png","stimuli/face_uppercase.png","311"
"html-button-response-mod","322","507824","0.0-322.0","74284","","","","","","triplet","1003.6000000238419","","","","0","stimuli/fish_uppercase.png","stimuli/stim006_animate_bird_2.png","stimuli/stim016_inanimate_boats_4.png","312"
"html-button-response-mod","323","509365","0.0-323.0","74284","","","","","","triplet","1035.5999999940395","","","","2","stimuli/face_uppercase.png","stimuli/fish_uppercase.png","stimuli/stim024_inanimate_tools_4.png","313"
"html-button-response-mod","324","510796","0.0-324.0","74284","","","","","","triplet","927.2999999821186","","","","0","stimuli/stim011_animate_face_3.png","stimuli/bird_lowercase.png","stimuli/boats_uppercase.png","314"
"html-button-response-mod","325","512649","0.0-325.0","74284","","","","","","triplet","1346.300000011921","","","","2","stimuli/stim017_inanimate_tree_1.png","stimuli/stim020_inanimate_tree_4.png","stimuli/stim007_animate_bird_3.png","315"
"html-button-response-mod","326","514023","0.0-326.0","74284","","","","","","triplet","868.8000000119209","","","","1","stimuli/bird_lowercase.png","stimuli/stim010_animate_face_2.png","stimuli/face_uppercase.png","316"
"html-button-response-mod","327","515648","0.0-327.0","74284","","","","","","triplet","1120.9000000059605","","","","0","stimuli/bird_uppercase.png","stimuli/stim014_inanimate_boats_2.png","stimuli/stim017_inanimate_tree_1.png","317"
"html-button-response-mod","328","517405","0.0-328.0","74284","","","","","","triplet","1251.7999999821186","","","","2","stimuli/stim014_inanimate_boats_2.png","stimuli/stim017_inanimate_tree_1.png","stimuli/fish_lowercase.png","318"
"html-button-response-mod","329","519226","0.0-329.0","74284","","","","","","triplet","1315.7000000178814","","","","0","stimuli/face_lowercase.png","stimuli/tools_uppercase.png","stimuli/stim008_animate_bird_4.png","319"
"html-button-response-mod","330","520648","0.0-330.0","74284","","","","","","triplet","917.9000000059605","","","","1","stimuli/boats_uppercase.png","stimuli/stim024_inanimate_tools_4.png","stimuli/tree_lowercase.png","320"
"html-button-response-mod","331","522757","0.0-331.0","74284","","","","","","triplet","1603.8999999761581","","","","2","stimuli/stim024_inanimate_tools_4.png","stimuli/stim006_animate_bird_2.png","stimuli/bird_uppercase.png","321"
"html-button-response-mod","332","524358","0.0-332.0","74284","","","","","","triplet","1094.2999999821186","","","","1","stimuli/stim016_inanimate_boats_4.png","stimuli/stim022_inanimate_tools_2.png","stimuli/stim011_animate_face_3.png","322"
"html-button-response-mod","333","525735","0.0-333.0","74284","","","","","","triplet","873","","","","1","stimuli/stim007_animate_bird_3.png","stimuli/stim020_inanimate_tree_4.png","stimuli/stim016_inanimate_boats_4.png","323"
"html-button-response-mod","334","527126","0.0-334.0","74284","","","","","","triplet","884.5999999940395","","","","0","stimuli/face_lowercase.png","stimuli/stim002_animate_fish_2.png","stimuli/stim009_animate_face_1.png","324"
"html-button-response-mod","335","528526","0.0-335.0","74284","","","","","","triplet","895.8000000119209","","","","2","stimuli/boats_lowercase.png","stimuli/fish_uppercase.png","stimuli/stim024_inanimate_tools_4.png","325"
"html-button-response-mod","336","529775","0.0-336.0","74284","","","","","","triplet","745.4000000059605","","","","2","stimuli/tree_uppercase.png","stimuli/face_uppercase.png","stimuli/bird_lowercase.png","326"
"html-button-response-mod","337","531150","0.0-337.0","74284","","","","","","triplet","872.2999999821186","","","","1","stimuli/face_uppercase.png","stimuli/stim011_animate_face_3.png","stimuli/fish_uppercase.png","327"
"html-button-response-mod","338","532211","0.0-338.0","74284","","","","","","triplet","557.6999999880791","","","","1","stimuli/stim023_inanimate_tools_3.png","stimuli/fish_lowercase.png","stimuli/stim005_animate_bird_1.png","328"
"html-button-response-mod","339","534039","0.0-339.0","74284","","","","","","triplet","1323.199999988079","","","","0","stimuli/stim016_inanimate_boats_4.png","stimuli/stim022_inanimate_tools_2.png","stimuli/stim002_animate_fish_2.png","329"
"html-button-response-mod","340","535542","0.0-340.0","74284","","","","","","triplet","998.0999999940395","","","","0","stimuli/stim019_inanimate_tree_3.png","stimuli/stim022_inanimate_tools_2.png","stimuli/stim021_inanimate_tools_1.png","330"
"html-button-response-mod","341","537157","0.0-341.0","74284","","","","","","triplet","1111.0999999940395","","","","2","stimuli/stim002_animate_fish_2.png","stimuli/stim008_animate_bird_4.png","stimuli/stim001_animate_fish_1.png","331"
"html-button-response-mod","342","538412","0.0-342.0","74284","","","","","","triplet","751.9000000059605","","","","2","stimuli/stim009_animate_face_1.png","stimuli/stim004_animate_fish_4.png","stimuli/tools_lowercase.png","332"
"html-button-response-mod","343","540579","0.0-343.0","74284","","","","","","triplet","1659.5999999940395","","","","1","stimuli/stim018_inanimate_tree_2.png","stimuli/stim023_inanimate_tools_3.png","stimuli/stim015_inanimate_boats_3.png","333"
"html-button-response-mod","344","541833","0.0-344.0","74284","","","","","","triplet","749.5999999940395","","","","2","stimuli/stim014_inanimate_boats_2.png","stimuli/stim012_animate_face_4.png","stimuli/boats_uppercase.png","334"
"html-button-response-mod","345","543095","0.0-345.0","74284","","","","","","triplet","757","","","","2","stimuli/face_uppercase.png","stimuli/bird_lowercase.png","stimuli/stim020_inanimate_tree_4.png","335"
"html-button-response-mod","346","544186","0.0-346.0","74284","","","","","","triplet","586.3000000119209","","","","2","stimuli/stim011_animate_face_3.png","stimuli/stim009_animate_face_1.png","stimuli/stim013_inanimate_boats_1.png","336"
"html-button-response-mod","347","545505","0.0-347.0","74284","","","","","","triplet","816.1000000238419","","","","0","stimuli/face_uppercase.png","stimuli/stim004_animate_fish_4.png","stimuli/stim023_inanimate_tools_3.png","337"
"html-button-response-mod","348","546726","0.0-348.0","74284","","","","","","triplet","717.1999999880791","","","","0","stimuli/boats_uppercase.png","stimuli/stim003_animate_fish_3.png","stimuli/stim009_animate_face_1.png","338"
"html-button-response-mod","349","548159","0.0-349.0","74284","","","","","","triplet","927","","","","2","stimuli/stim016_inanimate_boats_4.png","stimuli/stim017_inanimate_tree_1.png","stimuli/face_lowercase.png","339"
"html-button-response-mod","350","549927","0.0-350.0","74284","","","","","","triplet","1264.300000011921","","","","1","stimuli/stim004_animate_fish_4.png","stimuli/stim015_inanimate_boats_3.png","stimuli/stim023_inanimate_tools_3.png","340"
"html-button-response-mod","351","551318","0.0-351.0","74284","","","","","","triplet","884.6999999880791","","","","1","stimuli/stim005_animate_bird_1.png","stimuli/face_lowercase.png","stimuli/stim016_inanimate_boats_4.png","341"
"html-button-response-mod","352","552540","0.0-352.0","74284","","","","","","triplet","717.2999999821186","","","","1","stimuli/stim024_inanimate_tools_4.png","stimuli/tools_uppercase.png","stimuli/stim022_inanimate_tools_2.png","342"
"html-button-response-mod","353","553909","0.0-353.0","74284","","","","","","triplet","863.7000000178814","","","","2","stimuli/stim006_animate_bird_2.png","stimuli/stim023_inanimate_tools_3.png","stimuli/stim005_animate_bird_1.png","343"
"html-button-response-mod","354","555129","0.0-354.0","74284","","","","","","triplet","715.6999999880791","","","","2","stimuli/stim008_animate_bird_4.png","stimuli/stim003_animate_fish_3.png","stimuli/fish_lowercase.png","344"
"html-button-response-mod","355","556188","0.0-355.0","74284","","","","","","triplet","553.5","","","","2","stimuli/stim011_animate_face_3.png","stimuli/stim008_animate_bird_4.png","stimuli/stim019_inanimate_tree_3.png","345"
"html-button-response-mod","356","557611","0.0-356.0","74284","","","","","","triplet","919.2000000178814","","","","0","stimuli/stim004_animate_fish_4.png","stimuli/stim019_inanimate_tree_3.png","stimuli/stim018_inanimate_tree_2.png","346"
"html-button-response-mod","357","558824","0.0-357.0","74284","","","","","","triplet","706.9000000059605","","","","2","stimuli/stim018_inanimate_tree_2.png","stimuli/stim022_inanimate_tools_2.png","stimuli/boats_lowercase.png","347"
"html-button-response-mod","358","560257","0.0-358.0","74284","","","","","","triplet","926.5","","","","1","stimuli/stim022_inanimate_tools_2.png","stimuli/stim013_inanimate_boats_1.png","stimuli/stim018_inanimate_tree_2.png","348"
"html-button-response-mod","359","561542","0.0-359.0","74284","","","","","","triplet","780.7000000178814","","","","0","stimuli/face_lowercase.png","stimuli/stim004_animate_fish_4.png","stimuli/stim005_animate_bird_1.png","349"
"html-button-response","360","563458","0.0-360.0","74284","","","","","","break","1409.7000000178814","<p>BREAK</p><p>Take a break for as long as you need</p><p>Click the button to continue</p>","0","","","","","",""
"html-button-response-mod","361","564274","0.0-361.0","74284","","","","","","triplet","813.3000000119209","","","","1","stimuli/face_lowercase.png","stimuli/stim003_animate_fish_3.png","stimuli/boats_lowercase.png","350"
"html-button-response-mod","362","565514","0.0-362.0","74284","","","","","","triplet","735.5999999940395","","","","1","stimuli/stim001_animate_fish_1.png","stimuli/bird_uppercase.png","stimuli/stim023_inanimate_tools_3.png","351"
"html-button-response-mod","363","566941","0.0-363.0","74284","","","","","","triplet","923.0999999940395","","","","0","stimuli/face_lowercase.png","stimuli/stim008_animate_bird_4.png","stimuli/stim011_animate_face_3.png","352"
"html-button-response-mod","364","568843","0.0-364.0","74284","","","","","","triplet","1397","","","","0","stimuli/stim009_animate_face_1.png","stimuli/stim005_animate_bird_1.png","stimuli/stim002_animate_fish_2.png","353"
"html-button-response-mod","365","570112","0.0-365.0","74284","","","","","","triplet","765.3000000119209","","","","2","stimuli/stim020_inanimate_tree_4.png","stimuli/stim006_animate_bird_2.png","stimuli/face_lowercase.png","354"
"html-button-response-mod","366","572531","0.0-366.0","74284","","","","","","triplet","1914.5999999940395","","","","0","stimuli/stim012_animate_face_4.png","stimuli/stim004_animate_fish_4.png","stimuli/stim005_animate_bird_1.png","355"
"html-button-response-mod","367","573986","0.0-367.0","74284","","","","","","triplet","951.0999999940395","","","","1","stimuli/stim002_animate_fish_2.png","stimuli/stim023_inanimate_tools_3.png","stimuli/stim010_animate_face_2.png","356"
"html-button-response-mod","368","575516","0.0-368.0","74284","","","","","","triplet","1024.5","","","","1","stimuli/stim005_animate_bird_1.png","stimuli/stim016_inanimate_boats_4.png","stimuli/stim004_animate_fish_4.png","357"
"html-button-response-mod","369","577004","0.0-369.0","74284","","","","","","triplet","984.5","","","","2","stimuli/stim018_inanimate_tree_2.png","stimuli/stim019_inanimate_tree_3.png","stimuli/stim003_animate_fish_3.png","358"
"html-button-response-mod","370","578445","0.0-370.0","74284","","","","","","triplet","936.5","","","","0","stimuli/fish_uppercase.png","stimuli/stim001_animate_fish_1.png","stimuli/stim021_inanimate_tools_1.png","359"
"html-button-response-mod","371","579762","0.0-371.0","74284","","","","","","triplet","811.1999999880791","","","","2","stimuli/boats_lowercase.png","stimuli/fish_lowercase.png","stimuli/stim012_animate_face_4.png","360"
"html-button-response-mod","372","580913","0.0-372.0","74284","","","","","","triplet","647.5","","","","2","stimuli/stim002_animate_fish_2.png","stimuli/stim003_animate_fish_3.png","stimuli/tools_uppercase.png","361"
"html-button-response-mod","373","582213","0.0-373.0","74284","","","","","","triplet","794.3999999761581","","","","0","stimuli/stim003_animate_fish_3.png","stimuli/tools_lowercase.png","stimuli/boats_lowercase.png","362"
"html-button-response-mod","374","583449","0.0-374.0","74284","","","","","","triplet","731.7000000178814","","","","1","stimuli/stim020_inanimate_tree_4.png","stimuli/fish_lowercase.png","stimuli/stim004_animate_fish_4.png","363"
"html-button-response-mod","375","584727","0.0-375.0","74284","","","","","","triplet","772.6000000238419","","","","0","stimuli/stim019_inanimate_tree_3.png","stimuli/tree_lowercase.png","stimuli/fish_uppercase.png","364"
"html-button-response-mod","376","586052","0.0-376.0","74284","","","","","","triplet","819.8000000119209","","","","1","stimuli/stim008_animate_bird_4.png","stimuli/boats_uppercase.png","stimuli/stim001_animate_fish_1.png","365"
"html-button-response-mod","377","587316","0.0-377.0","74284","","","","","","triplet","760.5999999940395","","","","2","stimuli/stim009_animate_face_1.png","stimuli/stim004_animate_fish_4.png","stimuli/stim024_inanimate_tools_4.png","366"
"html-button-response-mod","378","588665","0.0-378.0","74284","","","","","","triplet","845.5","","","","0","stimuli/tree_lowercase.png","stimuli/stim024_inanimate_tools_4.png","stimuli/stim023_inanimate_tools_3.png","367"
"html-button-response-mod","379","589991","0.0-379.0","74284","","","","","","triplet","819.3999999761581","","","","0","stimuli/stim022_inanimate_tools_2.png","stimuli/stim007_animate_bird_3.png","stimuli/stim008_animate_bird_4.png","368"
"html-button-response-mod","380","591342","0.0-380.0","74284","","","","","","triplet","847.4000000059605","","","","2","stimuli/stim015_inanimate_boats_3.png","stimuli/stim009_animate_face_1.png","stimuli/tree_uppercase.png","369"
"html-button-response-mod","381","592652","0.0-381.0","74284","","","","","","triplet","806.8000000119209","","","","0","stimuli/stim010_animate_face_2.png","stimuli/stim008_animate_bird_4.png","stimuli/stim007_animate_bird_3.png","370"
"html-button-response-mod","382","594099","0.0-382.0","74284","","","","","","triplet","943.5999999940395","","","","1","stimuli/tree_lowercase.png","stimuli/stim009_animate_face_1.png","stimuli/bird_uppercase.png","371"
"html-button-response-mod","383","595169","0.0-383.0","74284","","","","","","triplet","565.3999999761581","","","","1","stimuli/stim016_inanimate_boats_4.png","stimuli/fish_uppercase.png","stimuli/stim004_animate_fish_4.png","372"
"html-button-response-mod","384","597086","0.0-384.0","74284","","","","","","triplet","1414.300000011921","","","","1","stimuli/stim002_animate_fish_2.png","stimuli/stim004_animate_fish_4.png","stimuli/stim001_animate_fish_1.png","373"
"html-button-response-mod","385","598187","0.0-385.0","74284","","","","","","triplet","598","","","","0","stimuli/boats_lowercase.png","stimuli/stim019_inanimate_tree_3.png","stimuli/stim005_animate_bird_1.png","374"
"html-button-response-mod","386","599559","0.0-386.0","74284","","","","","","triplet","868.9000000059605","","","","2","stimuli/stim004_animate_fish_4.png","stimuli/stim006_animate_bird_2.png","stimuli/face_lowercase.png","375"
"html-button-response-mod","387","600910","0.0-387.0","74284","","","","","","triplet","847.9000000059605","","","","1","stimuli/stim021_inanimate_tools_1.png","stimuli/tools_uppercase.png","stimuli/stim004_animate_fish_4.png","376"
"html-button-response-mod","388","602676","0.0-388.0","74284","","","","","","triplet","1260","","","","2","stimuli/stim022_inanimate_tools_2.png","stimuli/stim021_inanimate_tools_1.png","stimuli/stim005_animate_bird_1.png","377"
"html-button-response-mod","389","603984","0.0-389.0","74284","","","","","","triplet","803.5","","","","1","stimuli/stim014_inanimate_boats_2.png","stimuli/tools_lowercase.png","stimuli/stim022_inanimate_tools_2.png","378"
"html-button-response-mod","390","605575","0.0-390.0","74284","","","","","","triplet","1086.199999988079","","","","2","stimuli/stim003_animate_fish_3.png","stimuli/stim024_inanimate_tools_4.png","stimuli/bird_lowercase.png","379"
"html-button-response-mod","391","607217","0.0-391.0","74284","","","","","","triplet","1139.4000000059605","","","","1","stimuli/stim012_animate_face_4.png","stimuli/stim003_animate_fish_3.png","stimuli/stim009_animate_face_1.png","380"
"html-button-response-mod","392","609215","0.0-392.0","74284","","","","","","triplet","1494.6000000238419","","","","1","stimuli/stim006_animate_bird_2.png","stimuli/tree_lowercase.png","stimuli/stim019_inanimate_tree_3.png","381"
"html-button-response-mod","393","610559","0.0-393.0","74284","","","","","","triplet","837.5","","","","1","stimuli/stim016_inanimate_boats_4.png","stimuli/stim011_animate_face_3.png","stimuli/stim001_animate_fish_1.png","382"
"html-button-response-mod","394","612274","0.0-394.0","74284","","","","","","triplet","1209.5","","","","0","stimuli/stim010_animate_face_2.png","stimuli/stim008_animate_bird_4.png","stimuli/stim022_inanimate_tools_2.png","383"
"html-button-response-mod","395","614480","0.0-395.0","74284","","","","","","triplet","1700.300000011921","","","","0","stimuli/stim016_inanimate_boats_4.png","stimuli/stim002_animate_fish_2.png","stimuli/stim007_animate_bird_3.png","384"
"html-button-response-mod","396","615799","0.0-396.0","74284","","","","","","triplet","813.8000000119209","","","","1","stimuli/stim011_animate_face_3.png","stimuli/boats_lowercase.png","stimuli/stim007_animate_bird_3.png","385"
"html-button-response-mod","397","616935","0.0-397.0","74284","","","","","","triplet","630.9000000059605","","","","1","stimuli/tree_lowercase.png","stimuli/stim001_animate_fish_1.png","stimuli/face_uppercase.png","386"
"html-button-response-mod","398","618274","0.0-398.0","74284","","","","","","triplet","833.3000000119209","","","","2","stimuli/stim020_inanimate_tree_4.png","stimuli/stim019_inanimate_tree_3.png","stimuli/face_lowercase.png","387"
"html-button-response-mod","399","619785","0.0-399.0","74284","","","","","","triplet","1007.2000000178814","","","","0","stimuli/stim011_animate_face_3.png","stimuli/boats_lowercase.png","stimuli/fish_uppercase.png","388"
"html-button-response-mod","400","621273","0.0-400.0","74284","","","","","","triplet","983.5999999940395","","","","1","stimuli/fish_lowercase.png","stimuli/stim015_inanimate_boats_3.png","stimuli/tree_uppercase.png","389"
"html-button-response-mod","401","622746","0.0-401.0","74284","","","","","","triplet","969.0999999940395","","","","0","stimuli/bird_uppercase.png","stimuli/stim024_inanimate_tools_4.png","stimuli/stim015_inanimate_boats_3.png","390"
"html-button-response-mod","402","624701","0.0-402.0","74284","","","","","","triplet","1449.3999999761581","","","","0","stimuli/bird_uppercase.png","stimuli/face_lowercase.png","stimuli/fish_lowercase.png","391"
"html-button-response-mod","403","625852","0.0-403.0","74284","","","","","","triplet","647.4000000059605","","","","0","stimuli/boats_lowercase.png","stimuli/stim009_animate_face_1.png","stimuli/stim023_inanimate_tools_3.png","392"
"html-button-response-mod","404","627075","0.0-404.0","74284","","","","","","triplet","720.6999999880791","","","","0","stimuli/tree_lowercase.png","stimuli/tree_uppercase.png","stimuli/face_uppercase.png","393"
"html-button-response-mod","405","628397","0.0-405.0","74284","","","","","","triplet","819.9000000059605","","","","1","stimuli/tools_uppercase.png","stimuli/stim009_animate_face_1.png","stimuli/tree_uppercase.png","394"
"html-button-response-mod","406","629836","0.0-406.0","74284","","","","","","triplet","933.6000000238419","","","","2","stimuli/stim013_inanimate_boats_1.png","stimuli/stim016_inanimate_boats_4.png","stimuli/stim003_animate_fish_3.png","395"
"html-button-response-mod","407","631052","0.0-407.0","74284","","","","","","triplet","712.1999999880791","","","","1","stimuli/face_uppercase.png","stimuli/stim008_animate_bird_4.png","stimuli/fish_lowercase.png","396"
"html-button-response-mod","408","632249","0.0-408.0","74284","","","","","","triplet","693.8999999761581","","","","0","stimuli/stim024_inanimate_tools_4.png","stimuli/boats_uppercase.png","stimuli/tree_uppercase.png","397"
"html-button-response-mod","409","633348","0.0-409.0","74284","","","","","","triplet","593.7999999821186","","","","0","stimuli/tools_uppercase.png","stimuli/stim004_animate_fish_4.png","stimuli/stim014_inanimate_boats_2.png","398"
"html-button-response-mod","410","634538","0.0-410.0","74284","","","","","","triplet","684.5999999940395","","","","1","stimuli/stim016_inanimate_boats_4.png","stimuli/stim009_animate_face_1.png","stimuli/stim023_inanimate_tools_3.png","399"
"html-button-response","411","636153","0.0-411.0","74284","","","","","","break","1111.5","<p>BREAK</p><p>Take a break for as long as you need</p><p>Click the button to continue</p>","0","","","","","",""
"survey-text","412","658801","0.0-412.0","74284","","","","","","data_patterns","22625.59999999404","","{""Q0"":""No""}","","","","","",""
"survey-text","413","661476","0.0-413.0","74284","","","","","","age_question","2671.9000000059605","","{""Age"":""19""}","","","","","",""
"html-button-response","414","663382","0.0-414.0","74284","","","","","","gender_question","1902.2999999821186","How would you like your gender to be recorded?","1","","","","","",""
"html-button-response","415","665284","0.0-415.0","74284","","","","","","debrief","1898.5999999940395","<p> Thank you for participating in this experiment! </p><p> We are investigating the dimensions along which you perceive the world </p><p>The images were all sorted according to whether they are animate or not, and </p><p> whether they are text or images. We are comparing this to some neuroimaging data to see </p> how your conscious classification relates to how your brain classifies the objects automatically. </p>","0","668631.1000000238","","","","",""
