"trial_type","trial_index","time_elapsed","internal_node_id","subject","success","timeout","failed_images","failed_audio","failed_video","test_part","rt","stimulus","response","end_time","button_pressed","stim0","stim1","stim2","trialnr"
"pavlovia","0","15","0.0-0.0","73247","","","","","","","","","","","","","","",""
"preload","1","741","0.0-1.0","73247","true","false","[]","[]","[]","preload","","","","","","","","",""
"html-button-response","2","10978","0.0-2.0","73247","","","","","","","10234.39999999851","<p>Welcome to the experiment. To begin, please read the following and press the button at the bottom of the screen.</p><p></p><p><strong>Project Name: A study on cognitive processes involved in visual perception</p></strong><p></p><p><strong>PARTICIPANT INFORMATION STATEMENT</strong></p><p></p><strong>(1) What is the study about?</strong><br>You are invited to participate in a study that investigates the cognitive processes involved in perceiving and recognizing visual stimuli.If you decide to participate, you will be asked to complete a task in which you will view pictures, letters, numbers, or words presented on a computer screen.<br><strong>(2) Who can participate?</strong><br>Anyone aged 18 years or over with access to a computer (not a phone/tablet)<br><strong>(3) Where is the study located?</strong><br>The study will be conducted in your browser<br><strong>(4) Who is carrying out the study?</strong><br>The study is being conducted by Sophia Shatek from the Computational Cognitive Neuroscience laboratory at the University of Sydney.<br><strong>(5) What does the study involve?</strong><br>In this study, you will be asked to perform tasks where you will see different stimuli appear on the computer screen.You will respond by pressing a key or using a computer mouse.<br><strong>(6) How much time will the study take?</strong><br>The study takes about 30 minutes<br><strong>(7)	Can I withdraw from the study?</strong><br>Being in this study is completely voluntary - you are not under any obligation to consent. You can withdraw at any time without having to give a reason and without penalty.<br><strong>(8) Will anyone else know the results?</strong><br>All aspects of the study, including results, will be strictly confidential and only the researchers will have access to information on participants.The results and data from the study may be submitted for publication or shared with other research labs, but individual participants will not be identifiable.<br><strong>(9) Will the study benefit me?</strong><br>You will be awarded 0.5 credits for your participation.<br><strong>(10) Can I tell other people about the study?</strong><br>Yes, please tell them to contact Dr Thomas Carlson by email at thomas.carlson@sydney.edu.au.<br><strong>(11) What if I require further information about the study or my involvement in it?</strong><br>When you have read this information, the investigator will discuss it with you further and answer any questions you may have.If you would like to know more at any stage, please feel free to contact Dr Thomas Carlson directly by email at thomas.carlson@sydney.edu.au.If you would like to be informed about the outcomes of the study, contact Dr Thomas Carlson directly by email at thomas.carlson@sydney.edu.au.<br><strong>(12) What if I have a complaint or any concerns?</strong><br>Any person with concerns or complaints about the conduct of a research study can contact The Manager,Human Ethics Administration, University of Sydney on +61 2 8627 8176 (Telephone); +61 2 8627 8177 (Facsimile) or ro.humanethics@sydney.edu.au (Email).</p><p></p><strong>By participating in this experiment, you consent to participate in this study and acknowledge that:</strong><br>1. The procedures required for the project and the times involved have been explained to me, and any questions I have about the project have been answered to my satisfaction.<br>2.	I have read the Above Information Statement and have been given the opportunity to discuss the information and my involvement in the project with the researcher/s.<br>3. I understand that allowing my data to be used in research reports is completely voluntary - I am not under any obligation to consent.<br>4. I understand that my involvement is strictly confidential. I understand that any research data gathered from the results of the study may be publishedhowever no information about me will be used in any way that is identifiable.</p><p></p>","0","","","","","",""
"html-button-response","3","15327","0.0-3.0","73247","","","","","","opening_instructions","4346.60000000149","<p>In this experiment, you will see three images appear on the screen.</p><p>You need to click the 'odd one out', or the image </p><p>that LOOKS MOST DIFFERENT to the other two. </p><p>Just go with your intuition, don't spend too long thinking about each one.</p>","0","18769.59999999404","","","","",""
"html-button-response-mod","4","17648","0.0-4.0","73247","","","","","","triplet","2318.2999999970198","","","","2","stimuli/stim023_inanimate_tools_3.png","stimuli/stim018_inanimate_tree_2.png","stimuli/fish_uppercase.png","0"
"html-button-response-mod","5","21520","0.0-5.0","73247","","","","","","triplet","3365.7000000029802","","","","0","stimuli/tree_uppercase.png","stimuli/stim013_inanimate_boats_1.png","stimuli/stim015_inanimate_boats_3.png","1"
"html-button-response-mod","6","25252","0.0-6.0","73247","","","","","","triplet","3228.89999999851","","","","1","stimuli/stim008_animate_bird_4.png","stimuli/stim023_inanimate_tools_3.png","stimuli/stim004_animate_fish_4.png","2"
"html-button-response-mod","7","27923","0.0-7.0","73247","","","","","","triplet","2164.39999999851","","","","2","stimuli/boats_uppercase.png","stimuli/tools_lowercase.png","stimuli/stim023_inanimate_tools_3.png","3"
"html-button-response-mod","8","29991","0.0-8.0","73247","","","","","","triplet","1565.6999999955297","","","","2","stimuli/stim022_inanimate_tools_2.png","stimuli/stim023_inanimate_tools_3.png","stimuli/tree_lowercase.png","4"
"html-button-response-mod","9","36926","0.0-9.0","73247","","","","","","triplet","6431.20000000298","","","","0","stimuli/stim009_animate_face_1.png","stimuli/tools_lowercase.png","stimuli/boats_lowercase.png","5"
"html-button-response-mod","10","43016","0.0-10.0","73247","","","","","","triplet","5585","","","","2","stimuli/tree_uppercase.png","stimuli/face_uppercase.png","stimuli/stim018_inanimate_tree_2.png","6"
"html-button-response-mod","11","46107","0.0-11.0","73247","","","","","","triplet","2584.39999999851","","","","2","stimuli/fish_uppercase.png","stimuli/face_lowercase.png","stimuli/stim002_animate_fish_2.png","7"
"html-button-response-mod","12","49692","0.0-12.0","73247","","","","","","triplet","3083.60000000149","","","","2","stimuli/face_uppercase.png","stimuli/bird_uppercase.png","stimuli/stim020_inanimate_tree_4.png","8"
"html-button-response-mod","13","55711","0.0-13.0","73247","","","","","","triplet","5512.39999999851","","","","0","stimuli/stim020_inanimate_tree_4.png","stimuli/stim015_inanimate_boats_3.png","stimuli/stim004_animate_fish_4.png","9"
"html-button-response-mod","14","57540","0.0-14.0","73247","","","","","","triplet","1322.1000000014901","","","","2","stimuli/stim007_animate_bird_3.png","stimuli/stim004_animate_fish_4.png","stimuli/stim012_animate_face_4.png","10"
"html-button-response-mod","15","60025","0.0-15.0","73247","","","","","","triplet","1982.6000000014901","","","","1","stimuli/stim009_animate_face_1.png","stimuli/tree_lowercase.png","stimuli/stim002_animate_fish_2.png","11"
"html-button-response-mod","16","61682","0.0-16.0","73247","","","","","","triplet","1154.1000000014901","","","","2","stimuli/stim018_inanimate_tree_2.png","stimuli/stim020_inanimate_tree_4.png","stimuli/stim024_inanimate_tools_4.png","12"
"html-button-response-mod","17","66710","0.0-17.0","73247","","","","","","triplet","4524.19999999553","","","","2","stimuli/stim011_animate_face_3.png","stimuli/stim012_animate_face_4.png","stimuli/fish_uppercase.png","13"
"html-button-response-mod","18","69560","0.0-18.0","73247","","","","","","triplet","2344.2000000029802","","","","2","stimuli/stim017_inanimate_tree_1.png","stimuli/stim008_animate_bird_4.png","stimuli/bird_lowercase.png","14"
"html-button-response-mod","19","71332","0.0-19.0","73247","","","","","","triplet","1269.9000000059605","","","","1","stimuli/stim007_animate_bird_3.png","stimuli/bird_lowercase.png","stimuli/stim012_animate_face_4.png","15"
"html-button-response-mod","20","74364","0.0-20.0","73247","","","","","","triplet","2527.60000000149","","","","1","stimuli/stim007_animate_bird_3.png","stimuli/stim014_inanimate_boats_2.png","stimuli/stim009_animate_face_1.png","16"
"html-button-response-mod","21","79111","0.0-21.0","73247","","","","","","triplet","4243.9000000059605","","","","0","stimuli/stim005_animate_bird_1.png","stimuli/stim018_inanimate_tree_2.png","stimuli/stim019_inanimate_tree_3.png","17"
"html-button-response-mod","22","80654","0.0-22.0","73247","","","","","","triplet","1037.8999999985099","","","","2","stimuli/stim022_inanimate_tools_2.png","stimuli/stim021_inanimate_tools_1.png","stimuli/stim002_animate_fish_2.png","18"
"html-button-response-mod","23","82764","0.0-23.0","73247","","","","","","triplet","1603.2000000029802","","","","1","stimuli/face_uppercase.png","stimuli/stim019_inanimate_tree_3.png","stimuli/tree_lowercase.png","19"
"html-button-response-mod","24","84949","0.0-24.0","73247","","","","","","triplet","1679.1999999955297","","","","1","stimuli/stim012_animate_face_4.png","stimuli/stim008_animate_bird_4.png","stimuli/stim011_animate_face_3.png","20"
"html-button-response-mod","25","86705","0.0-25.0","73247","","","","","","triplet","1253.1000000014901","","","","2","stimuli/fish_lowercase.png","stimuli/stim002_animate_fish_2.png","stimuli/stim012_animate_face_4.png","21"
"html-button-response-mod","26","88903","0.0-26.0","73247","","","","","","triplet","1694.1000000014901","","","","0","stimuli/stim010_animate_face_2.png","stimuli/stim005_animate_bird_1.png","stimuli/stim006_animate_bird_2.png","22"
"html-button-response-mod","27","91246","0.0-27.0","73247","","","","","","triplet","1837","","","","2","stimuli/stim019_inanimate_tree_3.png","stimuli/stim013_inanimate_boats_1.png","stimuli/face_uppercase.png","23"
"html-button-response-mod","28","94781","0.0-28.0","73247","","","","","","triplet","3032.5","","","","1","stimuli/stim002_animate_fish_2.png","stimuli/tree_uppercase.png","stimuli/stim015_inanimate_boats_3.png","24"
"html-button-response-mod","29","96645","0.0-29.0","73247","","","","","","triplet","1358.1000000014901","","","","0","stimuli/tree_lowercase.png","stimuli/stim012_animate_face_4.png","stimuli/stim006_animate_bird_2.png","25"
"html-button-response-mod","30","97920","0.0-30.0","73247","","","","","","triplet","770","","","","1","stimuli/stim023_inanimate_tools_3.png","stimuli/tree_lowercase.png","stimuli/stim015_inanimate_boats_3.png","26"
"html-button-response-mod","31","100530","0.0-31.0","73247","","","","","","triplet","2103.60000000149","","","","2","stimuli/tools_uppercase.png","stimuli/tree_lowercase.png","stimuli/stim020_inanimate_tree_4.png","27"
"html-button-response-mod","32","103514","0.0-32.0","73247","","","","","","triplet","2481.5999999940395","","","","2","stimuli/stim013_inanimate_boats_1.png","stimuli/stim012_animate_face_4.png","stimuli/tree_uppercase.png","28"
"html-button-response-mod","33","107359","0.0-33.0","73247","","","","","","triplet","3342","","","","2","stimuli/stim006_animate_bird_2.png","stimuli/stim011_animate_face_3.png","stimuli/tree_uppercase.png","29"
"html-button-response-mod","34","113241","0.0-34.0","73247","","","","","","triplet","5375.29999999702","","","","0","stimuli/stim013_inanimate_boats_1.png","stimuli/stim019_inanimate_tree_3.png","stimuli/stim008_animate_bird_4.png","30"
"html-button-response-mod","35","118457","0.0-35.0","73247","","","","","","triplet","4709.39999999851","","","","0","stimuli/fish_lowercase.png","stimuli/stim006_animate_bird_2.png","stimuli/stim020_inanimate_tree_4.png","31"
"html-button-response-mod","36","120334","0.0-36.0","73247","","","","","","triplet","1369.8999999985099","","","","1","stimuli/stim013_inanimate_boats_1.png","stimuli/face_lowercase.png","stimuli/stim016_inanimate_boats_4.png","32"
"html-button-response-mod","37","121588","0.0-37.0","73247","","","","","","triplet","748.5","","","","1","stimuli/stim023_inanimate_tools_3.png","stimuli/face_uppercase.png","stimuli/stim001_animate_fish_1.png","33"
"html-button-response-mod","38","122952","0.0-38.0","73247","","","","","","triplet","858.7000000029802","","","","1","stimuli/stim024_inanimate_tools_4.png","stimuli/tools_uppercase.png","stimuli/stim017_inanimate_tree_1.png","34"
"html-button-response-mod","39","124327","0.0-39.0","73247","","","","","","triplet","868.6000000014901","","","","0","stimuli/tools_uppercase.png","stimuli/stim001_animate_fish_1.png","stimuli/stim017_inanimate_tree_1.png","35"
"html-button-response-mod","40","127947","0.0-40.0","73247","","","","","","triplet","3113.8000000044703","","","","2","stimuli/stim010_animate_face_2.png","stimuli/stim017_inanimate_tree_1.png","stimuli/stim024_inanimate_tools_4.png","36"
"html-button-response-mod","41","129278","0.0-41.0","73247","","","","","","triplet","824.7000000029802","","","","1","stimuli/stim023_inanimate_tools_3.png","stimuli/boats_uppercase.png","stimuli/stim002_animate_fish_2.png","37"
"html-button-response-mod","42","130646","0.0-42.0","73247","","","","","","triplet","863.6000000014901","","","","2","stimuli/tree_lowercase.png","stimuli/tree_uppercase.png","stimuli/stim016_inanimate_boats_4.png","38"
"html-button-response-mod","43","133127","0.0-43.0","73247","","","","","","triplet","1976.6000000014901","","","","0","stimuli/boats_lowercase.png","stimuli/stim016_inanimate_boats_4.png","stimuli/stim018_inanimate_tree_2.png","39"
"html-button-response-mod","44","134242","0.0-44.0","73247","","","","","","triplet","611.3999999985099","","","","0","stimuli/fish_uppercase.png","stimuli/stim003_animate_fish_3.png","stimuli/stim010_animate_face_2.png","40"
"html-button-response-mod","45","135428","0.0-45.0","73247","","","","","","triplet","683.6000000014901","","","","0","stimuli/fish_lowercase.png","stimuli/stim022_inanimate_tools_2.png","stimuli/stim005_animate_bird_1.png","41"
"html-button-response-mod","46","136956","0.0-46.0","73247","","","","","","triplet","1024.0999999940395","","","","1","stimuli/stim023_inanimate_tools_3.png","stimuli/stim006_animate_bird_2.png","stimuli/stim024_inanimate_tools_4.png","42"
"html-button-response-mod","47","138775","0.0-47.0","73247","","","","","","triplet","1313.1000000014901","","","","2","stimuli/stim013_inanimate_boats_1.png","stimuli/stim014_inanimate_boats_2.png","stimuli/stim002_animate_fish_2.png","43"
"html-button-response-mod","48","140158","0.0-48.0","73247","","","","","","triplet","876.5","","","","2","stimuli/stim005_animate_bird_1.png","stimuli/stim018_inanimate_tree_2.png","stimuli/fish_lowercase.png","44"
"html-button-response-mod","49","141676","0.0-49.0","73247","","","","","","triplet","1012.7999999970198","","","","0","stimuli/stim013_inanimate_boats_1.png","stimuli/stim023_inanimate_tools_3.png","stimuli/stim022_inanimate_tools_2.png","45"
"html-button-response-mod","50","142921","0.0-50.0","73247","","","","","","triplet","741.5999999940395","","","","0","stimuli/face_uppercase.png","stimuli/stim004_animate_fish_4.png","stimuli/stim018_inanimate_tree_2.png","46"
"html-button-response-mod","51","145122","0.0-51.0","73247","","","","","","triplet","1699.3000000044703","","","","1","stimuli/stim008_animate_bird_4.png","stimuli/stim022_inanimate_tools_2.png","stimuli/stim012_animate_face_4.png","47"
"html-button-response-mod","52","146590","0.0-52.0","73247","","","","","","triplet","961.5","","","","1","stimuli/stim014_inanimate_boats_2.png","stimuli/tools_lowercase.png","stimuli/stim006_animate_bird_2.png","48"
"html-button-response-mod","53","148686","0.0-53.0","73247","","","","","","triplet","1590.1000000014901","","","","0","stimuli/boats_lowercase.png","stimuli/stim001_animate_fish_1.png","stimuli/stim014_inanimate_boats_2.png","49"
"html-button-response","54","151553","0.0-54.0","73247","","","","","","break","2360.8000000044703","<p>BREAK</p><p>Take a break for as long as you need</p><p>Click the button to continue</p>","0","","","","","",""
"html-button-response-mod","55","153028","0.0-55.0","73247","","","","","","triplet","1472.7999999970198","","","","0","stimuli/tools_lowercase.png","stimuli/stim003_animate_fish_3.png","stimuli/stim022_inanimate_tools_2.png","50"
"html-button-response-mod","56","154591","0.0-56.0","73247","","","","","","triplet","1057.7000000029802","","","","0","stimuli/stim003_animate_fish_3.png","stimuli/boats_uppercase.png","stimuli/tools_lowercase.png","51"
"html-button-response-mod","57","156092","0.0-57.0","73247","","","","","","triplet","998.6999999955297","","","","1","stimuli/stim009_animate_face_1.png","stimuli/stim006_animate_bird_2.png","stimuli/stim012_animate_face_4.png","52"
"html-button-response-mod","58","158177","0.0-58.0","73247","","","","","","triplet","1581.8999999985099","","","","2","stimuli/stim018_inanimate_tree_2.png","stimuli/stim016_inanimate_boats_4.png","stimuli/tools_lowercase.png","53"
"html-button-response-mod","59","159565","0.0-59.0","73247","","","","","","triplet","885.9000000059605","","","","2","stimuli/boats_lowercase.png","stimuli/tools_uppercase.png","stimuli/stim020_inanimate_tree_4.png","54"
"html-button-response-mod","60","161778","0.0-60.0","73247","","","","","","triplet","1710.3999999985099","","","","0","stimuli/fish_lowercase.png","stimuli/stim010_animate_face_2.png","stimuli/stim017_inanimate_tree_1.png","55"
"html-button-response-mod","61","163192","0.0-61.0","73247","","","","","","triplet","908.2999999970198","","","","0","stimuli/boats_lowercase.png","stimuli/stim021_inanimate_tools_1.png","stimuli/stim010_animate_face_2.png","56"
"html-button-response-mod","62","164524","0.0-62.0","73247","","","","","","triplet","825.0999999940395","","","","1","stimuli/stim006_animate_bird_2.png","stimuli/tools_uppercase.png","stimuli/stim021_inanimate_tools_1.png","57"
"html-button-response-mod","63","166593","0.0-63.0","73247","","","","","","triplet","1565.2999999970198","","","","1","stimuli/stim002_animate_fish_2.png","stimuli/stim023_inanimate_tools_3.png","stimuli/stim012_animate_face_4.png","58"
"html-button-response-mod","64","172996","0.0-64.0","73247","","","","","","triplet","5899.69999999553","","","","1","stimuli/stim007_animate_bird_3.png","stimuli/tree_lowercase.png","stimuli/stim003_animate_fish_3.png","59"
"html-button-response-mod","65","174295","0.0-65.0","73247","","","","","","triplet","795.1999999955297","","","","2","stimuli/stim010_animate_face_2.png","stimuli/stim022_inanimate_tools_2.png","stimuli/bird_lowercase.png","60"
"html-button-response-mod","66","175586","0.0-66.0","73247","","","","","","triplet","785.1000000014901","","","","1","stimuli/stim004_animate_fish_4.png","stimuli/tree_lowercase.png","stimuli/stim021_inanimate_tools_1.png","61"
"html-button-response-mod","67","177499","0.0-67.0","73247","","","","","","triplet","1406.3000000044703","","","","2","stimuli/stim012_animate_face_4.png","stimuli/stim005_animate_bird_1.png","stimuli/stim021_inanimate_tools_1.png","62"
"html-button-response-mod","68","179231","0.0-68.0","73247","","","","","","triplet","1229.8999999985099","","","","2","stimuli/stim017_inanimate_tree_1.png","stimuli/stim021_inanimate_tools_1.png","stimuli/face_uppercase.png","63"
"html-button-response-mod","69","180859","0.0-69.0","73247","","","","","","triplet","1124.6000000014901","","","","1","stimuli/stim002_animate_fish_2.png","stimuli/fish_uppercase.png","stimuli/stim017_inanimate_tree_1.png","64"
"html-button-response-mod","70","182030","0.0-70.0","73247","","","","","","triplet","667.8999999985099","","","","1","stimuli/stim017_inanimate_tree_1.png","stimuli/tools_uppercase.png","stimuli/stim015_inanimate_boats_3.png","65"
"html-button-response-mod","71","183269","0.0-71.0","73247","","","","","","triplet","734.7000000029802","","","","2","stimuli/stim007_animate_bird_3.png","stimuli/stim010_animate_face_2.png","stimuli/tools_lowercase.png","66"
"html-button-response-mod","72","184488","0.0-72.0","73247","","","","","","triplet","714.9000000059605","","","","1","stimuli/stim015_inanimate_boats_3.png","stimuli/fish_uppercase.png","stimuli/stim019_inanimate_tree_3.png","67"
"html-button-response-mod","73","185593","0.0-73.0","73247","","","","","","triplet","599.5","","","","1","stimuli/stim002_animate_fish_2.png","stimuli/tree_uppercase.png","stimuli/stim003_animate_fish_3.png","68"
"html-button-response-mod","74","187241","0.0-74.0","73247","","","","","","triplet","1141.5","","","","2","stimuli/stim002_animate_fish_2.png","stimuli/stim016_inanimate_boats_4.png","stimuli/stim019_inanimate_tree_3.png","69"
"html-button-response-mod","75","188982","0.0-75.0","73247","","","","","","triplet","1236.8999999985099","","","","0","stimuli/stim011_animate_face_3.png","stimuli/fish_lowercase.png","stimuli/bird_lowercase.png","70"
"html-button-response-mod","76","191852","0.0-76.0","73247","","","","","","triplet","2367.7999999970198","","","","0","stimuli/boats_uppercase.png","stimuli/face_lowercase.png","stimuli/tools_lowercase.png","71"
"html-button-response-mod","77","193464","0.0-77.0","73247","","","","","","triplet","1108.6000000014901","","","","2","stimuli/boats_uppercase.png","stimuli/bird_uppercase.png","stimuli/stim022_inanimate_tools_2.png","72"
"html-button-response-mod","78","195164","0.0-78.0","73247","","","","","","triplet","1196.8000000044703","","","","2","stimuli/fish_lowercase.png","stimuli/bird_lowercase.png","stimuli/stim024_inanimate_tools_4.png","73"
"html-button-response-mod","79","197201","0.0-79.0","73247","","","","","","triplet","1532.4000000059605","","","","0","stimuli/face_lowercase.png","stimuli/stim014_inanimate_boats_2.png","stimuli/stim004_animate_fish_4.png","74"
"html-button-response-mod","80","198613","0.0-80.0","73247","","","","","","triplet","905.3999999985099","","","","2","stimuli/stim020_inanimate_tree_4.png","stimuli/stim002_animate_fish_2.png","stimuli/face_lowercase.png","75"
"html-button-response-mod","81","200175","0.0-81.0","73247","","","","","","triplet","1059.8000000044703","","","","2","stimuli/stim006_animate_bird_2.png","stimuli/stim002_animate_fish_2.png","stimuli/fish_lowercase.png","76"
"html-button-response-mod","82","201707","0.0-82.0","73247","","","","","","triplet","1027.6999999955297","","","","0","stimuli/stim016_inanimate_boats_4.png","stimuli/stim019_inanimate_tree_3.png","stimuli/stim020_inanimate_tree_4.png","77"
"html-button-response-mod","83","203391","0.0-83.0","73247","","","","","","triplet","1180.8000000044703","","","","2","stimuli/stim015_inanimate_boats_3.png","stimuli/stim018_inanimate_tree_2.png","stimuli/tools_lowercase.png","78"
"html-button-response-mod","84","205199","0.0-84.0","73247","","","","","","triplet","1301.6000000014901","","","","2","stimuli/stim006_animate_bird_2.png","stimuli/stim011_animate_face_3.png","stimuli/stim022_inanimate_tools_2.png","79"
"html-button-response-mod","85","207950","0.0-85.0","73247","","","","","","triplet","2246.89999999851","","","","0","stimuli/stim022_inanimate_tools_2.png","stimuli/tools_lowercase.png","stimuli/face_uppercase.png","80"
"html-button-response-mod","86","210123","0.0-86.0","73247","","","","","","triplet","1669.4000000059605","","","","1","stimuli/stim010_animate_face_2.png","stimuli/stim015_inanimate_boats_3.png","stimuli/stim012_animate_face_4.png","81"
"html-button-response-mod","87","212613","0.0-87.0","73247","","","","","","triplet","1986.3999999985099","","","","2","stimuli/bird_uppercase.png","stimuli/fish_lowercase.png","stimuli/stim011_animate_face_3.png","82"
"html-button-response-mod","88","214056","0.0-88.0","73247","","","","","","triplet","937","","","","1","stimuli/stim004_animate_fish_4.png","stimuli/tree_uppercase.png","stimuli/stim017_inanimate_tree_1.png","83"
"html-button-response-mod","89","215676","0.0-89.0","73247","","","","","","triplet","1117","","","","0","stimuli/stim013_inanimate_boats_1.png","stimuli/boats_uppercase.png","stimuli/fish_uppercase.png","84"
"html-button-response-mod","90","216847","0.0-90.0","73247","","","","","","triplet","668.3000000044703","","","","0","stimuli/stim016_inanimate_boats_4.png","stimuli/boats_lowercase.png","stimuli/boats_uppercase.png","85"
"html-button-response-mod","91","218154","0.0-91.0","73247","","","","","","triplet","804.3000000044703","","","","1","stimuli/fish_lowercase.png","stimuli/stim001_animate_fish_1.png","stimuli/boats_lowercase.png","86"
"html-button-response-mod","92","219830","0.0-92.0","73247","","","","","","triplet","1170.7000000029802","","","","2","stimuli/stim010_animate_face_2.png","stimuli/stim003_animate_fish_3.png","stimuli/stim022_inanimate_tools_2.png","87"
"html-button-response-mod","93","222220","0.0-93.0","73247","","","","","","triplet","1887.7999999970198","","","","0","stimuli/tools_uppercase.png","stimuli/stim021_inanimate_tools_1.png","stimuli/stim011_animate_face_3.png","88"
"html-button-response-mod","94","223744","0.0-94.0","73247","","","","","","triplet","1021.6999999955297","","","","0","stimuli/stim016_inanimate_boats_4.png","stimuli/stim004_animate_fish_4.png","stimuli/stim002_animate_fish_2.png","89"
"html-button-response-mod","95","225051","0.0-95.0","73247","","","","","","triplet","804.6000000014901","","","","1","stimuli/fish_uppercase.png","stimuli/stim019_inanimate_tree_3.png","stimuli/tools_uppercase.png","90"
"html-button-response-mod","96","227000","0.0-96.0","73247","","","","","","triplet","1444.9000000059605","","","","0","stimuli/stim024_inanimate_tools_4.png","stimuli/stim012_animate_face_4.png","stimuli/stim018_inanimate_tree_2.png","91"
"html-button-response-mod","97","229341","0.0-97.0","73247","","","","","","triplet","1839.7999999970198","","","","2","stimuli/stim008_animate_bird_4.png","stimuli/stim009_animate_face_1.png","stimuli/stim022_inanimate_tools_2.png","92"
"html-button-response-mod","98","230801","0.0-98.0","73247","","","","","","triplet","956.8999999985099","","","","0","stimuli/fish_lowercase.png","stimuli/stim014_inanimate_boats_2.png","stimuli/stim007_animate_bird_3.png","93"
"html-button-response-mod","99","232701","0.0-99.0","73247","","","","","","triplet","1396.6000000014901","","","","0","stimuli/stim019_inanimate_tree_3.png","stimuli/bird_lowercase.png","stimuli/tools_uppercase.png","94"
"html-button-response-mod","100","233968","0.0-100.0","73247","","","","","","triplet","764.1000000014901","","","","1","stimuli/bird_lowercase.png","stimuli/stim005_animate_bird_1.png","stimuli/fish_uppercase.png","95"
"html-button-response-mod","101","235186","0.0-101.0","73247","","","","","","triplet","716","","","","1","stimuli/stim012_animate_face_4.png","stimuli/bird_uppercase.png","stimuli/stim017_inanimate_tree_1.png","96"
"html-button-response-mod","102","236413","0.0-102.0","73247","","","","","","triplet","723.1999999955297","","","","2","stimuli/stim023_inanimate_tools_3.png","stimuli/stim002_animate_fish_2.png","stimuli/boats_lowercase.png","97"
"html-button-response-mod","103","237737","0.0-103.0","73247","","","","","","triplet","820.3999999985099","","","","0","stimuli/stim004_animate_fish_4.png","stimuli/tools_lowercase.png","stimuli/bird_uppercase.png","98"
"html-button-response-mod","104","239453","0.0-104.0","73247","","","","","","triplet","1213.7000000029802","","","","2","stimuli/stim014_inanimate_boats_2.png","stimuli/stim016_inanimate_boats_4.png","stimuli/stim024_inanimate_tools_4.png","99"
"html-button-response","105","242275","0.0-105.0","73247","","","","","","break","2319.5999999940395","<p>BREAK</p><p>Take a break for as long as you need</p><p>Click the button to continue</p>","0","","","","","",""
"html-button-response-mod","106","245269","0.0-106.0","73247","","","","","","triplet","2992.2999999970198","","","","2","stimuli/bird_lowercase.png","stimuli/tools_lowercase.png","stimuli/tree_uppercase.png","100"
"html-button-response-mod","107","246689","0.0-107.0","73247","","","","","","triplet","917.1000000014901","","","","1","stimuli/tools_uppercase.png","stimuli/stim023_inanimate_tools_3.png","stimuli/face_uppercase.png","101"
"html-button-response-mod","108","248261","0.0-108.0","73247","","","","","","triplet","1067.3999999985099","","","","2","stimuli/stim016_inanimate_boats_4.png","stimuli/stim018_inanimate_tree_2.png","stimuli/face_uppercase.png","102"
"html-button-response-mod","109","249785","0.0-109.0","73247","","","","","","triplet","1020.8999999985099","","","","0","stimuli/stim010_animate_face_2.png","stimuli/stim004_animate_fish_4.png","stimuli/stim005_animate_bird_1.png","103"
"html-button-response-mod","110","252630","0.0-110.0","73247","","","","","","triplet","2343.3000000044703","","","","2","stimuli/tools_lowercase.png","stimuli/face_uppercase.png","stimuli/stim003_animate_fish_3.png","104"
"html-button-response-mod","111","254736","0.0-111.0","73247","","","","","","triplet","1598.8999999985099","","","","1","stimuli/stim013_inanimate_boats_1.png","stimuli/fish_uppercase.png","stimuli/stim019_inanimate_tree_3.png","105"
"html-button-response-mod","112","256620","0.0-112.0","73247","","","","","","triplet","1381.2000000029802","","","","0","stimuli/stim007_animate_bird_3.png","stimuli/bird_lowercase.png","stimuli/tools_lowercase.png","106"
"html-button-response-mod","113","257906","0.0-113.0","73247","","","","","","triplet","784","","","","2","stimuli/boats_lowercase.png","stimuli/fish_lowercase.png","stimuli/stim015_inanimate_boats_3.png","107"
"html-button-response-mod","114","259367","0.0-114.0","73247","","","","","","triplet","953.9000000059605","","","","0","stimuli/face_lowercase.png","stimuli/stim022_inanimate_tools_2.png","stimuli/stim021_inanimate_tools_1.png","108"
"html-button-response-mod","115","260729","0.0-115.0","73247","","","","","","triplet","856.6000000014901","","","","1","stimuli/stim015_inanimate_boats_3.png","stimuli/tree_lowercase.png","stimuli/stim013_inanimate_boats_1.png","109"
"html-button-response-mod","116","264190","0.0-116.0","73247","","","","","","triplet","2953.8000000044703","","","","0","stimuli/stim023_inanimate_tools_3.png","stimuli/stim007_animate_bird_3.png","stimuli/stim016_inanimate_boats_4.png","110"
"html-button-response-mod","117","266471","0.0-117.0","73247","","","","","","triplet","1774.5","","","","0","stimuli/stim004_animate_fish_4.png","stimuli/stim022_inanimate_tools_2.png","stimuli/stim020_inanimate_tree_4.png","111"
"html-button-response-mod","118","267892","0.0-118.0","73247","","","","","","triplet","918.2000000029802","","","","2","stimuli/stim011_animate_face_3.png","stimuli/stim001_animate_fish_1.png","stimuli/tree_uppercase.png","112"
"html-button-response-mod","119","269375","0.0-119.0","73247","","","","","","triplet","979.8999999985099","","","","0","stimuli/stim012_animate_face_4.png","stimuli/stim017_inanimate_tree_1.png","stimuli/stim015_inanimate_boats_3.png","113"
"html-button-response-mod","120","270655","0.0-120.0","73247","","","","","","triplet","775","","","","2","stimuli/stim021_inanimate_tools_1.png","stimuli/stim006_animate_bird_2.png","stimuli/boats_uppercase.png","114"
"html-button-response-mod","121","272025","0.0-121.0","73247","","","","","","triplet","867.8999999985099","","","","1","stimuli/tree_lowercase.png","stimuli/stim014_inanimate_boats_2.png","stimuli/face_lowercase.png","115"
"html-button-response-mod","122","273333","0.0-122.0","73247","","","","","","triplet","803","","","","2","stimuli/boats_lowercase.png","stimuli/bird_lowercase.png","stimuli/stim002_animate_fish_2.png","116"
"html-button-response-mod","123","274969","0.0-123.0","73247","","","","","","triplet","1132.8999999985099","","","","1","stimuli/stim002_animate_fish_2.png","stimuli/stim023_inanimate_tools_3.png","stimuli/stim004_animate_fish_4.png","117"
"html-button-response-mod","124","276256","0.0-124.0","73247","","","","","","triplet","784.5999999940395","","","","2","stimuli/face_uppercase.png","stimuli/boats_lowercase.png","stimuli/stim007_animate_bird_3.png","118"
"html-button-response-mod","125","279205","0.0-125.0","73247","","","","","","triplet","2441.9000000059605","","","","2","stimuli/stim003_animate_fish_3.png","stimuli/stim009_animate_face_1.png","stimuli/stim018_inanimate_tree_2.png","119"
"html-button-response-mod","126","281075","0.0-126.0","73247","","","","","","triplet","1364.5","","","","1","stimuli/face_uppercase.png","stimuli/bird_lowercase.png","stimuli/boats_uppercase.png","120"
"html-button-response-mod","127","283339","0.0-127.0","73247","","","","","","triplet","1760.2000000029802","","","","0","stimuli/stim009_animate_face_1.png","stimuli/stim008_animate_bird_4.png","stimuli/stim001_animate_fish_1.png","121"
"html-button-response-mod","128","284558","0.0-128.0","73247","","","","","","triplet","715.2000000029802","","","","0","stimuli/tools_uppercase.png","stimuli/stim002_animate_fish_2.png","stimuli/stim020_inanimate_tree_4.png","122"
"html-button-response-mod","129","285798","0.0-129.0","73247","","","","","","triplet","735.6999999955297","","","","1","stimuli/stim020_inanimate_tree_4.png","stimuli/fish_lowercase.png","stimuli/stim011_animate_face_3.png","123"
"html-button-response-mod","130","287184","0.0-130.0","73247","","","","","","triplet","883.6999999955297","","","","1","stimuli/tools_uppercase.png","stimuli/stim011_animate_face_3.png","stimuli/tree_lowercase.png","124"
"html-button-response-mod","131","288627","0.0-131.0","73247","","","","","","triplet","936.2000000029802","","","","2","stimuli/stim017_inanimate_tree_1.png","stimuli/stim014_inanimate_boats_2.png","stimuli/boats_lowercase.png","125"
"html-button-response-mod","132","289702","0.0-132.0","73247","","","","","","triplet","567.1000000014901","","","","2","stimuli/stim013_inanimate_boats_1.png","stimuli/stim014_inanimate_boats_2.png","stimuli/boats_uppercase.png","126"
"html-button-response-mod","133","292949","0.0-133.0","73247","","","","","","triplet","2743.9000000059605","","","","0","stimuli/stim009_animate_face_1.png","stimuli/stim023_inanimate_tools_3.png","stimuli/stim013_inanimate_boats_1.png","127"
"html-button-response-mod","134","294043","0.0-134.0","73247","","","","","","triplet","588.8000000044703","","","","1","stimuli/stim002_animate_fish_2.png","stimuli/tree_uppercase.png","stimuli/stim024_inanimate_tools_4.png","128"
"html-button-response-mod","135","295478","0.0-135.0","73247","","","","","","triplet","929.5","","","","1","stimuli/tree_uppercase.png","stimuli/boats_lowercase.png","stimuli/tree_lowercase.png","129"
"html-button-response-mod","136","297379","0.0-136.0","73247","","","","","","triplet","1397.2000000029802","","","","0","stimuli/fish_lowercase.png","stimuli/stim002_animate_fish_2.png","stimuli/stim001_animate_fish_1.png","130"
"html-button-response-mod","137","299428","0.0-137.0","73247","","","","","","triplet","1541.7000000029802","","","","2","stimuli/tools_lowercase.png","stimuli/tree_uppercase.png","stimuli/stim016_inanimate_boats_4.png","131"
"html-button-response-mod","138","300647","0.0-138.0","73247","","","","","","triplet","715.5","","","","0","stimuli/tree_lowercase.png","stimuli/stim007_animate_bird_3.png","stimuli/stim021_inanimate_tools_1.png","132"
"html-button-response-mod","139","302106","0.0-139.0","73247","","","","","","triplet","952","","","","1","stimuli/stim014_inanimate_boats_2.png","stimuli/boats_lowercase.png","stimuli/stim021_inanimate_tools_1.png","133"
"html-button-response-mod","140","303216","0.0-140.0","73247","","","","","","triplet","603.1000000014901","","","","0","stimuli/stim021_inanimate_tools_1.png","stimuli/face_uppercase.png","stimuli/face_lowercase.png","134"
"html-button-response-mod","141","305278","0.0-141.0","73247","","","","","","triplet","1557.8999999985099","","","","2","stimuli/stim009_animate_face_1.png","stimuli/stim002_animate_fish_2.png","stimuli/stim018_inanimate_tree_2.png","135"
"html-button-response-mod","142","307772","0.0-142.0","73247","","","","","","triplet","1990.1000000014901","","","","0","stimuli/stim016_inanimate_boats_4.png","stimuli/stim007_animate_bird_3.png","stimuli/stim009_animate_face_1.png","136"
"html-button-response-mod","143","309066","0.0-143.0","73247","","","","","","triplet","787.5","","","","0","stimuli/fish_uppercase.png","stimuli/stim011_animate_face_3.png","stimuli/stim001_animate_fish_1.png","137"
"html-button-response-mod","144","310767","0.0-144.0","73247","","","","","","triplet","1198.2000000029802","","","","0","stimuli/stim002_animate_fish_2.png","stimuli/face_uppercase.png","stimuli/boats_lowercase.png","138"
"html-button-response-mod","145","312226","0.0-145.0","73247","","","","","","triplet","956.0999999940395","","","","1","stimuli/tree_lowercase.png","stimuli/face_uppercase.png","stimuli/fish_lowercase.png","139"
"html-button-response-mod","146","314106","0.0-146.0","73247","","","","","","triplet","1375.5999999940395","","","","0","stimuli/stim016_inanimate_boats_4.png","stimuli/stim010_animate_face_2.png","stimuli/stim002_animate_fish_2.png","140"
"html-button-response-mod","147","315470","0.0-147.0","73247","","","","","","triplet","856","","","","2","stimuli/stim021_inanimate_tools_1.png","stimuli/stim022_inanimate_tools_2.png","stimuli/bird_lowercase.png","141"
"html-button-response-mod","148","316849","0.0-148.0","73247","","","","","","triplet","871.8000000044703","","","","1","stimuli/stim003_animate_fish_3.png","stimuli/bird_lowercase.png","stimuli/stim005_animate_bird_1.png","142"
"html-button-response-mod","149","318072","0.0-149.0","73247","","","","","","triplet","719","","","","0","stimuli/fish_uppercase.png","stimuli/stim021_inanimate_tools_1.png","stimuli/stim003_animate_fish_3.png","143"
"html-button-response-mod","150","319812","0.0-150.0","73247","","","","","","triplet","1234.2999999970198","","","","2","stimuli/stim018_inanimate_tree_2.png","stimuli/stim003_animate_fish_3.png","stimuli/boats_uppercase.png","144"
"html-button-response-mod","151","320991","0.0-151.0","73247","","","","","","triplet","672.8000000044703","","","","2","stimuli/stim015_inanimate_boats_3.png","stimuli/stim024_inanimate_tools_4.png","stimuli/tools_lowercase.png","145"
"html-button-response-mod","152","322089","0.0-152.0","73247","","","","","","triplet","594.8000000044703","","","","2","stimuli/stim009_animate_face_1.png","stimuli/stim014_inanimate_boats_2.png","stimuli/face_uppercase.png","146"
"html-button-response-mod","153","323392","0.0-153.0","73247","","","","","","triplet","797.3999999985099","","","","2","stimuli/bird_lowercase.png","stimuli/tools_uppercase.png","stimuli/stim005_animate_bird_1.png","147"
"html-button-response-mod","154","325348","0.0-154.0","73247","","","","","","triplet","1452.7000000029802","","","","2","stimuli/stim004_animate_fish_4.png","stimuli/fish_uppercase.png","stimuli/face_uppercase.png","148"
"html-button-response-mod","155","326062","0.0-155.0","73247","","","","","","triplet","209.69999999552965","","","","2","stimuli/tree_lowercase.png","stimuli/face_lowercase.png","stimuli/fish_uppercase.png","149"
"html-button-response","156","327696","0.0-156.0","73247","","","","","","break","1126.4000000059605","<p>BREAK</p><p>Take a break for as long as you need</p><p>Click the button to continue</p>","0","","","","","",""
"html-button-response-mod","157","328080","0.0-157.0","73247","","","","","","triplet","381.70000000298023","","","","2","stimuli/tools_lowercase.png","stimuli/stim019_inanimate_tree_3.png","stimuli/stim011_animate_face_3.png","150"
"html-button-response-mod","158","328761","0.0-158.0","73247","","","","","","triplet","177","","","","2","stimuli/stim002_animate_fish_2.png","stimuli/tree_uppercase.png","stimuli/stim023_inanimate_tools_3.png","151"
"html-button-response-mod","159","329419","0.0-159.0","73247","","","","","","triplet","153.29999999701977","","","","2","stimuli/stim007_animate_bird_3.png","stimuli/stim009_animate_face_1.png","stimuli/bird_lowercase.png","152"
"html-button-response-mod","160","330132","0.0-160.0","73247","","","","","","triplet","208.70000000298023","","","","2","stimuli/stim018_inanimate_tree_2.png","stimuli/boats_lowercase.png","stimuli/stim020_inanimate_tree_4.png","153"
"html-button-response-mod","161","330767","0.0-161.0","73247","","","","","","triplet","129.19999999552965","","","","2","stimuli/fish_uppercase.png","stimuli/stim021_inanimate_tools_1.png","stimuli/stim007_animate_bird_3.png","154"
"html-button-response-mod","162","331464","0.0-162.0","73247","","","","","","triplet","193.30000000447035","","","","2","stimuli/stim008_animate_bird_4.png","stimuli/tools_uppercase.png","stimuli/stim007_animate_bird_3.png","155"
"html-button-response-mod","163","332242","0.0-163.0","73247","","","","","","triplet","274","","","","2","stimuli/boats_uppercase.png","stimuli/stim017_inanimate_tree_1.png","stimuli/boats_lowercase.png","156"
"html-button-response-mod","164","332956","0.0-164.0","73247","","","","","","triplet","207.70000000298023","","","","2","stimuli/stim024_inanimate_tools_4.png","stimuli/bird_uppercase.png","stimuli/stim021_inanimate_tools_1.png","157"
"html-button-response-mod","165","333726","0.0-165.0","73247","","","","","","triplet","266.5","","","","2","stimuli/tree_lowercase.png","stimuli/stim002_animate_fish_2.png","stimuli/tools_uppercase.png","158"
"html-button-response-mod","166","334472","0.0-166.0","73247","","","","","","triplet","241.69999999552965","","","","2","stimuli/fish_lowercase.png","stimuli/stim019_inanimate_tree_3.png","stimuli/stim016_inanimate_boats_4.png","159"
"html-button-response-mod","167","335162","0.0-167.0","73247","","","","","","triplet","185.70000000298023","","","","2","stimuli/stim013_inanimate_boats_1.png","stimuli/stim004_animate_fish_4.png","stimuli/stim024_inanimate_tools_4.png","160"
"html-button-response-mod","168","335916","0.0-168.0","73247","","","","","","triplet","247.19999999552965","","","","2","stimuli/fish_uppercase.png","stimuli/fish_lowercase.png","stimuli/bird_lowercase.png","161"
"html-button-response-mod","169","336661","0.0-169.0","73247","","","","","","triplet","241.19999999552965","","","","2","stimuli/stim008_animate_bird_4.png","stimuli/stim022_inanimate_tools_2.png","stimuli/stim006_animate_bird_2.png","162"
"html-button-response-mod","170","337424","0.0-170.0","73247","","","","","","triplet","257.70000000298023","","","","2","stimuli/stim023_inanimate_tools_3.png","stimuli/stim018_inanimate_tree_2.png","stimuli/face_uppercase.png","163"
"html-button-response-mod","171","338121","0.0-171.0","73247","","","","","","triplet","190.5","","","","2","stimuli/stim020_inanimate_tree_4.png","stimuli/tools_uppercase.png","stimuli/stim017_inanimate_tree_1.png","164"
"html-button-response-mod","172","338835","0.0-172.0","73247","","","","","","triplet","210.10000000149012","","","","2","stimuli/stim005_animate_bird_1.png","stimuli/stim019_inanimate_tree_3.png","stimuli/stim013_inanimate_boats_1.png","165"
"html-button-response-mod","173","339509","0.0-173.0","73247","","","","","","triplet","166.70000000298023","","","","2","stimuli/stim020_inanimate_tree_4.png","stimuli/stim012_animate_face_4.png","stimuli/stim009_animate_face_1.png","166"
"html-button-response-mod","174","340771","0.0-174.0","73247","","","","","","triplet","755.1999999955297","","","","2","stimuli/stim019_inanimate_tree_3.png","stimuli/stim010_animate_face_2.png","stimuli/stim002_animate_fish_2.png","167"
"html-button-response-mod","175","341469","0.0-175.0","73247","","","","","","triplet","193.5","","","","2","stimuli/stim014_inanimate_boats_2.png","stimuli/stim022_inanimate_tools_2.png","stimuli/stim019_inanimate_tree_3.png","168"
"html-button-response-mod","176","342367","0.0-176.0","73247","","","","","","triplet","394.6000000014901","","","","2","stimuli/stim017_inanimate_tree_1.png","stimuli/stim004_animate_fish_4.png","stimuli/bird_uppercase.png","169"
"html-button-response-mod","177","343081","0.0-177.0","73247","","","","","","triplet","209.89999999850988","","","","2","stimuli/stim009_animate_face_1.png","stimuli/fish_lowercase.png","stimuli/stim001_animate_fish_1.png","170"
"html-button-response-mod","178","343851","0.0-178.0","73247","","","","","","triplet","265.79999999701977","","","","2","stimuli/stim024_inanimate_tools_4.png","stimuli/stim008_animate_bird_4.png","stimuli/stim001_animate_fish_1.png","171"
"html-button-response-mod","179","344436","0.0-179.0","73247","","","","","","triplet","81.60000000149012","","","","2","stimuli/stim020_inanimate_tree_4.png","stimuli/stim017_inanimate_tree_1.png","stimuli/stim018_inanimate_tree_2.png","172"
"html-button-response-mod","180","345158","0.0-180.0","73247","","","","","","triplet","218.10000000149012","","","","2","stimuli/stim014_inanimate_boats_2.png","stimuli/boats_lowercase.png","stimuli/tree_uppercase.png","173"
"html-button-response-mod","181","345895","0.0-181.0","73247","","","","","","triplet","232.19999999552965","","","","2","stimuli/stim024_inanimate_tools_4.png","stimuli/stim006_animate_bird_2.png","stimuli/fish_uppercase.png","174"
"html-button-response-mod","182","346609","0.0-182.0","73247","","","","","","triplet","209.30000000447035","","","","2","stimuli/stim018_inanimate_tree_2.png","stimuli/fish_lowercase.png","stimuli/stim022_inanimate_tools_2.png","175"
"html-button-response-mod","183","347355","0.0-183.0","73247","","","","","","triplet","241.59999999403954","","","","2","stimuli/boats_uppercase.png","stimuli/stim011_animate_face_3.png","stimuli/stim024_inanimate_tools_4.png","176"
"html-button-response-mod","184","347948","0.0-184.0","73247","","","","","","triplet","91","","","","2","stimuli/stim008_animate_bird_4.png","stimuli/stim015_inanimate_boats_3.png","stimuli/stim018_inanimate_tree_2.png","177"
"html-button-response-mod","185","348726","0.0-185.0","73247","","","","","","triplet","273.8999999985099","","","","2","stimuli/stim010_animate_face_2.png","stimuli/boats_lowercase.png","stimuli/stim022_inanimate_tools_2.png","178"
"html-button-response-mod","186","349432","0.0-186.0","73247","","","","","","triplet","202.80000000447035","","","","2","stimuli/stim012_animate_face_4.png","stimuli/stim011_animate_face_3.png","stimuli/stim002_animate_fish_2.png","179"
"html-button-response-mod","187","350154","0.0-187.0","73247","","","","","","triplet","218.10000000149012","","","","2","stimuli/tools_uppercase.png","stimuli/fish_lowercase.png","stimuli/stim005_animate_bird_1.png","180"
"html-button-response-mod","188","350923","0.0-188.0","73247","","","","","","triplet","266.1000000014901","","","","2","stimuli/stim008_animate_bird_4.png","stimuli/tools_uppercase.png","stimuli/stim017_inanimate_tree_1.png","181"
"html-button-response-mod","189","351621","0.0-189.0","73247","","","","","","triplet","195.79999999701977","","","","2","stimuli/stim002_animate_fish_2.png","stimuli/stim005_animate_bird_1.png","stimuli/stim001_animate_fish_1.png","182"
"html-button-response-mod","190","352222","0.0-190.0","73247","","","","","","triplet","98","","","","2","stimuli/tree_uppercase.png","stimuli/stim011_animate_face_3.png","stimuli/stim005_animate_bird_1.png","183"
"html-button-response-mod","191","352903","0.0-191.0","73247","","","","","","triplet","178.59999999403954","","","","2","stimuli/stim018_inanimate_tree_2.png","stimuli/face_lowercase.png","stimuli/tools_uppercase.png","184"
"html-button-response-mod","192","353529","0.0-192.0","73247","","","","","","triplet","121.79999999701977","","","","2","stimuli/stim010_animate_face_2.png","stimuli/stim012_animate_face_4.png","stimuli/stim008_animate_bird_4.png","185"
"html-button-response-mod","193","354106","0.0-193.0","73247","","","","","","triplet","71.30000000447035","","","","2","stimuli/stim001_animate_fish_1.png","stimuli/stim017_inanimate_tree_1.png","stimuli/stim024_inanimate_tools_4.png","186"
"html-button-response-mod","194","354708","0.0-194.0","73247","","","","","","triplet","97.70000000298023","","","","2","stimuli/stim021_inanimate_tools_1.png","stimuli/stim010_animate_face_2.png","stimuli/stim023_inanimate_tools_3.png","187"
"html-button-response-mod","195","355438","0.0-195.0","73247","","","","","","triplet","226.20000000298023","","","","2","stimuli/stim018_inanimate_tree_2.png","stimuli/stim009_animate_face_1.png","stimuli/stim006_animate_bird_2.png","188"
"html-button-response-mod","196","356191","0.0-196.0","73247","","","","","","triplet","249.60000000149012","","","","2","stimuli/stim015_inanimate_boats_3.png","stimuli/face_uppercase.png","stimuli/stim008_animate_bird_4.png","189"
"html-button-response-mod","197","356953","0.0-197.0","73247","","","","","","triplet","259.30000000447035","","","","2","stimuli/stim002_animate_fish_2.png","stimuli/tools_lowercase.png","stimuli/stim010_animate_face_2.png","190"
"html-button-response-mod","198","357563","0.0-198.0","73247","","","","","","triplet","106.29999999701977","","","","2","stimuli/stim010_animate_face_2.png","stimuli/tools_uppercase.png","stimuli/boats_uppercase.png","191"
"html-button-response-mod","199","358349","0.0-199.0","73247","","","","","","triplet","282.1000000014901","","","","2","stimuli/stim016_inanimate_boats_4.png","stimuli/stim021_inanimate_tools_1.png","stimuli/stim015_inanimate_boats_3.png","192"
"html-button-response-mod","200","359143","0.0-200.0","73247","","","","","","triplet","290.29999999701977","","","","2","stimuli/stim016_inanimate_boats_4.png","stimuli/stim009_animate_face_1.png","stimuli/bird_uppercase.png","193"
"html-button-response-mod","201","359744","0.0-201.0","73247","","","","","","triplet","97.39999999850988","","","","2","stimuli/bird_uppercase.png","stimuli/stim013_inanimate_boats_1.png","stimuli/tools_uppercase.png","194"
"html-button-response-mod","202","360346","0.0-202.0","73247","","","","","","triplet","97.5","","","","2","stimuli/stim023_inanimate_tools_3.png","stimuli/stim002_animate_fish_2.png","stimuli/stim019_inanimate_tree_3.png","195"
"html-button-response-mod","203","361092","0.0-203.0","73247","","","","","","triplet","241.79999999701977","","","","2","stimuli/stim007_animate_bird_3.png","stimuli/stim021_inanimate_tools_1.png","stimuli/stim018_inanimate_tree_2.png","196"
"html-button-response-mod","204","361822","0.0-204.0","73247","","","","","","triplet","225.80000000447035","","","","2","stimuli/stim009_animate_face_1.png","stimuli/stim002_animate_fish_2.png","stimuli/stim015_inanimate_boats_3.png","197"
"html-button-response-mod","205","362543","0.0-205.0","73247","","","","","","triplet","218","","","","2","stimuli/stim014_inanimate_boats_2.png","stimuli/stim012_animate_face_4.png","stimuli/stim013_inanimate_boats_1.png","198"
"html-button-response-mod","206","363257","0.0-206.0","73247","","","","","","triplet","208.60000000149012","","","","2","stimuli/fish_uppercase.png","stimuli/bird_lowercase.png","stimuli/stim018_inanimate_tree_2.png","199"
"html-button-response","207","363907","0.0-207.0","73247","","","","","","break","145.29999999701977","<p>BREAK</p><p>Take a break for as long as you need</p><p>Click the button to continue</p>","0","","","","","",""
"html-button-response-mod","208","364083","0.0-208.0","73247","","","","","","triplet","173.79999999701977","","","","2","stimuli/tools_lowercase.png","stimuli/stim001_animate_fish_1.png","stimuli/stim023_inanimate_tools_3.png","200"
"html-button-response-mod","209","364789","0.0-209.0","73247","","","","","","triplet","202","","","","2","stimuli/stim013_inanimate_boats_1.png","stimuli/stim010_animate_face_2.png","stimuli/tree_uppercase.png","201"
"html-button-response-mod","210","365567","0.0-210.0","73247","","","","","","triplet","273.5","","","","2","stimuli/face_uppercase.png","stimuli/stim017_inanimate_tree_1.png","stimuli/stim020_inanimate_tree_4.png","202"
"html-button-response-mod","211","366200","0.0-211.0","73247","","","","","","triplet","129.39999999850988","","","","2","stimuli/stim010_animate_face_2.png","stimuli/stim008_animate_bird_4.png","stimuli/stim024_inanimate_tools_4.png","203"
"html-button-response-mod","212","367034","0.0-212.0","73247","","","","","","triplet","329.8999999985099","","","","2","stimuli/fish_lowercase.png","stimuli/stim017_inanimate_tree_1.png","stimuli/bird_lowercase.png","204"
"html-button-response-mod","213","367684","0.0-213.0","73247","","","","","","triplet","145.5","","","","2","stimuli/stim005_animate_bird_1.png","stimuli/stim004_animate_fish_4.png","stimuli/stim018_inanimate_tree_2.png","205"
"html-button-response-mod","214","368389","0.0-214.0","73247","","","","","","triplet","201.80000000447035","","","","2","stimuli/stim001_animate_fish_1.png","stimuli/stim012_animate_face_4.png","stimuli/stim009_animate_face_1.png","206"
"html-button-response-mod","215","369135","0.0-215.0","73247","","","","","","triplet","242.5","","","","2","stimuli/stim006_animate_bird_2.png","stimuli/bird_lowercase.png","stimuli/tree_uppercase.png","207"
"html-button-response-mod","216","369841","0.0-216.0","73247","","","","","","triplet","201.40000000596046","","","","2","stimuli/stim019_inanimate_tree_3.png","stimuli/stim018_inanimate_tree_2.png","stimuli/bird_lowercase.png","208"
"html-button-response-mod","217","370458","0.0-217.0","73247","","","","","","triplet","115.60000000149012","","","","2","stimuli/stim010_animate_face_2.png","stimuli/stim018_inanimate_tree_2.png","stimuli/stim009_animate_face_1.png","209"
"html-button-response-mod","218","371144","0.0-218.0","73247","","","","","","triplet","181.39999999850988","","","","2","stimuli/stim004_animate_fish_4.png","stimuli/tree_lowercase.png","stimuli/stim006_animate_bird_2.png","210"
"html-button-response-mod","219","371753","0.0-219.0","73247","","","","","","triplet","102.39999999850988","","","","2","stimuli/stim007_animate_bird_3.png","stimuli/stim010_animate_face_2.png","stimuli/tree_lowercase.png","211"
"html-button-response-mod","220","372283","0.0-220.0","73247","","","","","","triplet","23.5","","","","2","stimuli/stim005_animate_bird_1.png","stimuli/bird_lowercase.png","stimuli/stim013_inanimate_boats_1.png","212"
"html-button-response-mod","221","372917","0.0-221.0","73247","","","","","","triplet","130.70000000298023","","","","2","stimuli/stim005_animate_bird_1.png","stimuli/fish_uppercase.png","stimuli/face_uppercase.png","213"
"html-button-response-mod","222","373662","0.0-222.0","73247","","","","","","triplet","241.39999999850988","","","","2","stimuli/stim010_animate_face_2.png","stimuli/stim021_inanimate_tools_1.png","stimuli/stim018_inanimate_tree_2.png","214"
"html-button-response-mod","223","374304","0.0-223.0","73247","","","","","","triplet","139","","","","2","stimuli/stim013_inanimate_boats_1.png","stimuli/stim011_animate_face_3.png","stimuli/stim006_animate_bird_2.png","215"
"html-button-response-mod","224","375263","0.0-224.0","73247","","","","","","triplet","455.40000000596046","","","","2","stimuli/face_lowercase.png","stimuli/stim003_animate_fish_3.png","stimuli/tools_uppercase.png","216"
"html-button-response-mod","225","375945","0.0-225.0","73247","","","","","","triplet","177.80000000447035","","","","2","stimuli/stim009_animate_face_1.png","stimuli/stim017_inanimate_tree_1.png","stimuli/boats_lowercase.png","217"
"html-button-response-mod","226","376674","0.0-226.0","73247","","","","","","triplet","225.69999999552965","","","","2","stimuli/stim014_inanimate_boats_2.png","stimuli/boats_uppercase.png","stimuli/stim023_inanimate_tools_3.png","218"
"html-button-response-mod","227","377228","0.0-227.0","73247","","","","","","triplet","47.69999999552965","","","","2","stimuli/boats_lowercase.png","stimuli/stim017_inanimate_tree_1.png","stimuli/stim019_inanimate_tree_3.png","219"
"html-button-response-mod","228","377805","0.0-228.0","73247","","","","","","triplet","71","","","","2","stimuli/stim008_animate_bird_4.png","stimuli/stim021_inanimate_tools_1.png","stimuli/stim017_inanimate_tree_1.png","220"
"html-button-response-mod","229","378415","0.0-229.0","73247","","","","","","triplet","102.39999999850988","","","","2","stimuli/stim008_animate_bird_4.png","stimuli/stim004_animate_fish_4.png","stimuli/stim018_inanimate_tree_2.png","221"
"html-button-response-mod","230","379012","0.0-230.0","73247","","","","","","triplet","92.79999999701977","","","","2","stimuli/bird_uppercase.png","stimuli/stim004_animate_fish_4.png","stimuli/stim006_animate_bird_2.png","222"
"html-button-response-mod","231","379606","0.0-231.0","73247","","","","","","triplet","87.89999999850988","","","","2","stimuli/stim013_inanimate_boats_1.png","stimuli/stim015_inanimate_boats_3.png","stimuli/stim021_inanimate_tools_1.png","223"
"html-button-response-mod","232","380208","0.0-232.0","73247","","","","","","triplet","94.39999999850988","","","","2","stimuli/face_lowercase.png","stimuli/stim013_inanimate_boats_1.png","stimuli/stim018_inanimate_tree_2.png","224"
"html-button-response-mod","233","380793","0.0-233.0","73247","","","","","","triplet","82.89999999850988","","","","2","stimuli/stim019_inanimate_tree_3.png","stimuli/face_uppercase.png","stimuli/stim007_animate_bird_3.png","225"
"html-button-response-mod","234","381378","0.0-234.0","73247","","","","","","triplet","81.79999999701977","","","","2","stimuli/stim012_animate_face_4.png","stimuli/stim002_animate_fish_2.png","stimuli/stim005_animate_bird_1.png","226"
"html-button-response-mod","235","381956","0.0-235.0","73247","","","","","","triplet","75.39999999850988","","","","2","stimuli/stim020_inanimate_tree_4.png","stimuli/stim014_inanimate_boats_2.png","stimuli/stim012_animate_face_4.png","227"
"html-button-response-mod","236","382678","0.0-236.0","73247","","","","","","triplet","218.70000000298023","","","","2","stimuli/stim023_inanimate_tools_3.png","stimuli/stim015_inanimate_boats_3.png","stimuli/tools_uppercase.png","228"
"html-button-response-mod","237","383387","0.0-237.0","73247","","","","","","triplet","202.5","","","","2","stimuli/stim004_animate_fish_4.png","stimuli/stim003_animate_fish_3.png","stimuli/stim002_animate_fish_2.png","229"
"html-button-response-mod","238","384101","0.0-238.0","73247","","","","","","triplet","211","","","","2","stimuli/tools_uppercase.png","stimuli/stim019_inanimate_tree_3.png","stimuli/stim011_animate_face_3.png","230"
"html-button-response-mod","239","384775","0.0-239.0","73247","","","","","","triplet","170.39999999850988","","","","2","stimuli/stim001_animate_fish_1.png","stimuli/stim007_animate_bird_3.png","stimuli/stim011_animate_face_3.png","231"
"html-button-response-mod","240","385345","0.0-240.0","73247","","","","","","triplet","64.79999999701977","","","","2","stimuli/stim021_inanimate_tools_1.png","stimuli/bird_lowercase.png","stimuli/boats_lowercase.png","232"
"html-button-response-mod","241","386074","0.0-241.0","73247","","","","","","triplet","226.29999999701977","","","","2","stimuli/stim005_animate_bird_1.png","stimuli/stim017_inanimate_tree_1.png","stimuli/stim012_animate_face_4.png","233"
"html-button-response-mod","242","386644","0.0-242.0","73247","","","","","","triplet","64.89999999850988","","","","2","stimuli/stim004_animate_fish_4.png","stimuli/boats_uppercase.png","stimuli/stim011_animate_face_3.png","234"
"html-button-response-mod","243","387201","0.0-243.0","73247","","","","","","triplet","49.30000000447035","","","","2","stimuli/stim002_animate_fish_2.png","stimuli/face_lowercase.png","stimuli/stim024_inanimate_tools_4.png","235"
"html-button-response-mod","244","387875","0.0-244.0","73247","","","","","","triplet","169.5","","","","2","stimuli/stim014_inanimate_boats_2.png","stimuli/bird_uppercase.png","stimuli/stim021_inanimate_tools_1.png","236"
"html-button-response-mod","245","388589","0.0-245.0","73247","","","","","","triplet","209.90000000596046","","","","2","stimuli/tree_uppercase.png","stimuli/fish_lowercase.png","stimuli/stim006_animate_bird_2.png","237"
"html-button-response-mod","246","389143","0.0-246.0","73247","","","","","","triplet","48.80000000447035","","","","2","stimuli/stim008_animate_bird_4.png","stimuli/face_uppercase.png","stimuli/stim021_inanimate_tools_1.png","238"
"html-button-response-mod","247","389864","0.0-247.0","73247","","","","","","triplet","216.80000000447035","","","","2","stimuli/stim003_animate_fish_3.png","stimuli/stim024_inanimate_tools_4.png","stimuli/stim002_animate_fish_2.png","239"
"html-button-response-mod","248","390396","0.0-248.0","73247","","","","","","triplet","26","","","","2","stimuli/stim003_animate_fish_3.png","stimuli/stim007_animate_bird_3.png","stimuli/boats_lowercase.png","240"
"html-button-response-mod","249","390943","0.0-249.0","73247","","","","","","triplet","40.100000001490116","","","","2","stimuli/stim010_animate_face_2.png","stimuli/fish_lowercase.png","stimuli/stim019_inanimate_tree_3.png","241"
"html-button-response-mod","250","391473","0.0-250.0","73247","","","","","","triplet","23.700000002980232","","","","2","stimuli/stim019_inanimate_tree_3.png","stimuli/boats_uppercase.png","stimuli/stim016_inanimate_boats_4.png","242"
"html-button-response-mod","251","392042","0.0-251.0","73247","","","","","","triplet","63.599999994039536","","","","2","stimuli/tree_lowercase.png","stimuli/stim018_inanimate_tree_2.png","stimuli/fish_uppercase.png","243"
"html-button-response-mod","252","392660","0.0-252.0","73247","","","","","","triplet","114.40000000596046","","","","2","stimuli/boats_lowercase.png","stimuli/tools_uppercase.png","stimuli/stim005_animate_bird_1.png","244"
"html-button-response-mod","253","393253","0.0-253.0","73247","","","","","","triplet","90.29999999701977","","","","2","stimuli/tree_uppercase.png","stimuli/stim010_animate_face_2.png","stimuli/stim021_inanimate_tools_1.png","245"
"html-button-response-mod","254","393839","0.0-254.0","73247","","","","","","triplet","83.39999999850988","","","","2","stimuli/boats_uppercase.png","stimuli/tree_uppercase.png","stimuli/stim023_inanimate_tools_3.png","246"
"html-button-response-mod","255","394385","0.0-255.0","73247","","","","","","triplet","39.899999998509884","","","","2","stimuli/bird_uppercase.png","stimuli/bird_lowercase.png","stimuli/boats_uppercase.png","247"
"html-button-response-mod","256","394982","0.0-256.0","73247","","","","","","triplet","94.5","","","","2","stimuli/stim004_animate_fish_4.png","stimuli/stim006_animate_bird_2.png","stimuli/stim014_inanimate_boats_2.png","248"
"html-button-response-mod","257","395519","0.0-257.0","73247","","","","","","triplet","32","","","","2","stimuli/stim008_animate_bird_4.png","stimuli/tools_uppercase.png","stimuli/stim001_animate_fish_1.png","249"
"html-button-response","258","396193","0.0-258.0","73247","","","","","","break","170.10000000149012","<p>BREAK</p><p>Take a break for as long as you need</p><p>Click the button to continue</p>","0","","","","","",""
"html-button-response-mod","259","396377","0.0-259.0","73247","","","","","","triplet","182.39999999850988","","","","2","stimuli/stim016_inanimate_boats_4.png","stimuli/face_uppercase.png","stimuli/stim005_animate_bird_1.png","250"
"html-button-response-mod","260","397076","0.0-260.0","73247","","","","","","triplet","195.70000000298023","","","","2","stimuli/stim001_animate_fish_1.png","stimuli/stim009_animate_face_1.png","stimuli/stim013_inanimate_boats_1.png","251"
"html-button-response-mod","261","397637","0.0-261.0","73247","","","","","","triplet","56.600000001490116","","","","2","stimuli/stim015_inanimate_boats_3.png","stimuli/stim020_inanimate_tree_4.png","stimuli/stim002_animate_fish_2.png","252"
"html-button-response-mod","262","398367","0.0-262.0","73247","","","","","","triplet","225.79999999701977","","","","2","stimuli/stim022_inanimate_tools_2.png","stimuli/tree_lowercase.png","stimuli/stim006_animate_bird_2.png","253"
"html-button-response-mod","263","399101","0.0-263.0","73247","","","","","","triplet","226.69999999552965","","","","2","stimuli/fish_uppercase.png","stimuli/stim012_animate_face_4.png","stimuli/stim017_inanimate_tree_1.png","254"
"html-button-response-mod","264","399670","0.0-264.0","73247","","","","","","triplet","64.89999999850988","","","","2","stimuli/bird_lowercase.png","stimuli/stim020_inanimate_tree_4.png","stimuli/boats_uppercase.png","255"
"html-button-response-mod","265","400248","0.0-265.0","73247","","","","","","triplet","72.89999999850988","","","","2","stimuli/stim007_animate_bird_3.png","stimuli/boats_lowercase.png","stimuli/stim021_inanimate_tools_1.png","256"
"html-button-response-mod","266","400841","0.0-266.0","73247","","","","","","triplet","88.69999999552965","","","","2","stimuli/boats_uppercase.png","stimuli/stim012_animate_face_4.png","stimuli/stim017_inanimate_tree_1.png","257"
"html-button-response-mod","267","401410","0.0-267.0","73247","","","","","","triplet","66.29999999701977","","","","2","stimuli/bird_uppercase.png","stimuli/stim023_inanimate_tools_3.png","stimuli/stim001_animate_fish_1.png","258"
"html-button-response-mod","268","402004","0.0-268.0","73247","","","","","","triplet","86.70000000298023","","","","2","stimuli/stim018_inanimate_tree_2.png","stimuli/stim014_inanimate_boats_2.png","stimuli/stim012_animate_face_4.png","259"
"html-button-response-mod","269","402710","0.0-269.0","73247","","","","","","triplet","200.10000000149012","","","","2","stimuli/stim004_animate_fish_4.png","stimuli/stim022_inanimate_tools_2.png","stimuli/stim017_inanimate_tree_1.png","260"
"html-button-response-mod","270","403268","0.0-270.0","73247","","","","","","triplet","55.099999994039536","","","","2","stimuli/stim017_inanimate_tree_1.png","stimuli/stim004_animate_fish_4.png","stimuli/stim016_inanimate_boats_4.png","261"
"html-button-response-mod","271","403974","0.0-271.0","73247","","","","","","triplet","202.19999999552965","","","","2","stimuli/stim024_inanimate_tools_4.png","stimuli/stim009_animate_face_1.png","stimuli/stim007_animate_bird_3.png","262"
"html-button-response-mod","272","404712","0.0-272.0","73247","","","","","","triplet","234.60000000149012","","","","2","stimuli/stim013_inanimate_boats_1.png","stimuli/stim009_animate_face_1.png","stimuli/stim017_inanimate_tree_1.png","263"
"html-button-response-mod","273","405289","0.0-273.0","73247","","","","","","triplet","74.89999999850988","","","","2","stimuli/stim013_inanimate_boats_1.png","stimuli/boats_lowercase.png","stimuli/stim020_inanimate_tree_4.png","264"
"html-button-response-mod","274","405843","0.0-274.0","73247","","","","","","triplet","47.100000001490116","","","","2","stimuli/bird_uppercase.png","stimuli/stim020_inanimate_tree_4.png","stimuli/tree_lowercase.png","265"
"html-button-response-mod","275","407884","0.0-275.0","73247","","","","","","triplet","1536","","","","2","stimuli/stim007_animate_bird_3.png","stimuli/face_uppercase.png","stimuli/stim010_animate_face_2.png","266"
"html-button-response-mod","276","408557","0.0-276.0","73247","","","","","","triplet","170.60000000149012","","","","2","stimuli/fish_lowercase.png","stimuli/tools_uppercase.png","stimuli/boats_lowercase.png","267"
"html-button-response-mod","277","409231","0.0-277.0","73247","","","","","","triplet","170.79999999701977","","","","2","stimuli/stim002_animate_fish_2.png","stimuli/stim012_animate_face_4.png","stimuli/tools_uppercase.png","268"
"html-button-response-mod","278","409929","0.0-278.0","73247","","","","","","triplet","192.10000000149012","","","","2","stimuli/stim012_animate_face_4.png","stimuli/stim019_inanimate_tree_3.png","stimuli/face_lowercase.png","269"
"html-button-response-mod","279","410659","0.0-279.0","73247","","","","","","triplet","226","","","","2","stimuli/boats_lowercase.png","stimuli/boats_uppercase.png","stimuli/fish_lowercase.png","270"
"html-button-response-mod","280","411457","0.0-280.0","73247","","","","","","triplet","293.5","","","","2","stimuli/stim001_animate_fish_1.png","stimuli/stim007_animate_bird_3.png","stimuli/stim016_inanimate_boats_4.png","271"
"html-button-response-mod","281","412163","0.0-281.0","73247","","","","","","triplet","202","","","","2","stimuli/stim017_inanimate_tree_1.png","stimuli/bird_uppercase.png","stimuli/stim002_animate_fish_2.png","272"
"html-button-response-mod","282","412916","0.0-282.0","73247","","","","","","triplet","250.10000000149012","","","","2","stimuli/stim014_inanimate_boats_2.png","stimuli/stim018_inanimate_tree_2.png","stimuli/stim017_inanimate_tree_1.png","273"
"html-button-response-mod","283","413526","0.0-283.0","73247","","","","","","triplet","103.69999999552965","","","","2","stimuli/boats_uppercase.png","stimuli/stim009_animate_face_1.png","stimuli/stim002_animate_fish_2.png","274"
"html-button-response-mod","284","414272","0.0-284.0","73247","","","","","","triplet","242.39999999850988","","","","2","stimuli/stim009_animate_face_1.png","stimuli/stim003_animate_fish_3.png","stimuli/stim006_animate_bird_2.png","275"
"html-button-response-mod","285","415050","0.0-285.0","73247","","","","","","triplet","273.79999999701977","","","","2","stimuli/stim011_animate_face_3.png","stimuli/bird_lowercase.png","stimuli/stim003_animate_fish_3.png","276"
"html-button-response-mod","286","415780","0.0-286.0","73247","","","","","","triplet","226.10000000149012","","","","2","stimuli/stim006_animate_bird_2.png","stimuli/stim005_animate_bird_1.png","stimuli/stim011_animate_face_3.png","277"
"html-button-response-mod","287","416542","0.0-287.0","73247","","","","","","triplet","258.20000000298023","","","","2","stimuli/stim003_animate_fish_3.png","stimuli/stim018_inanimate_tree_2.png","stimuli/face_uppercase.png","278"
"html-button-response-mod","288","417152","0.0-288.0","73247","","","","","","triplet","105.20000000298023","","","","2","stimuli/fish_uppercase.png","stimuli/stim016_inanimate_boats_4.png","stimuli/bird_uppercase.png","279"
"html-button-response-mod","289","417833","0.0-289.0","73247","","","","","","triplet","177.90000000596046","","","","2","stimuli/fish_lowercase.png","stimuli/boats_uppercase.png","stimuli/fish_uppercase.png","280"
"html-button-response-mod","290","418627","0.0-290.0","73247","","","","","","triplet","290.29999999701977","","","","2","stimuli/tree_lowercase.png","stimuli/face_uppercase.png","stimuli/stim014_inanimate_boats_2.png","281"
"html-button-response-mod","291","419414","0.0-291.0","73247","","","","","","triplet","282.09999999403954","","","","2","stimuli/tools_uppercase.png","stimuli/boats_uppercase.png","stimuli/face_uppercase.png","282"
"html-button-response-mod","292","420208","0.0-292.0","73247","","","","","","triplet","291","","","","2","stimuli/stim020_inanimate_tree_4.png","stimuli/stim016_inanimate_boats_4.png","stimuli/tree_lowercase.png","283"
"html-button-response-mod","293","420978","0.0-293.0","73247","","","","","","triplet","264.30000000447035","","","","2","stimuli/stim017_inanimate_tree_1.png","stimuli/stim006_animate_bird_2.png","stimuli/stim008_animate_bird_4.png","284"
"html-button-response-mod","294","421984","0.0-294.0","73247","","","","","","triplet","502.5","","","","2","stimuli/stim016_inanimate_boats_4.png","stimuli/stim015_inanimate_boats_3.png","stimuli/stim008_animate_bird_4.png","285"
"html-button-response-mod","295","422610","0.0-295.0","73247","","","","","","triplet","122","","","","2","stimuli/stim022_inanimate_tools_2.png","stimuli/stim004_animate_fish_4.png","stimuli/stim007_animate_bird_3.png","286"
"html-button-response-mod","296","423283","0.0-296.0","73247","","","","","","triplet","166.39999999850988","","","","2","stimuli/stim010_animate_face_2.png","stimuli/stim020_inanimate_tree_4.png","stimuli/stim012_animate_face_4.png","287"
"html-button-response-mod","297","423869","0.0-297.0","73247","","","","","","triplet","82.20000000298023","","","","2","stimuli/stim023_inanimate_tools_3.png","stimuli/stim020_inanimate_tree_4.png","stimuli/stim010_animate_face_2.png","288"
"html-button-response-mod","298","424623","0.0-298.0","73247","","","","","","triplet","251.09999999403954","","","","2","stimuli/stim015_inanimate_boats_3.png","stimuli/stim021_inanimate_tools_1.png","stimuli/tools_lowercase.png","289"
"html-button-response-mod","299","425393","0.0-299.0","73247","","","","","","triplet","266.29999999701977","","","","2","stimuli/face_lowercase.png","stimuli/face_uppercase.png","stimuli/stim018_inanimate_tree_2.png","290"
"html-button-response-mod","300","426146","0.0-300.0","73247","","","","","","triplet","250","","","","2","stimuli/stim002_animate_fish_2.png","stimuli/stim017_inanimate_tree_1.png","stimuli/stim016_inanimate_boats_4.png","291"
"html-button-response-mod","301","426892","0.0-301.0","73247","","","","","","triplet","242.10000000149012","","","","2","stimuli/stim023_inanimate_tools_3.png","stimuli/stim012_animate_face_4.png","stimuli/stim022_inanimate_tools_2.png","292"
"html-button-response-mod","302","427486","0.0-302.0","73247","","","","","","triplet","90.10000000149012","","","","2","stimuli/stim005_animate_bird_1.png","stimuli/stim007_animate_bird_3.png","stimuli/stim009_animate_face_1.png","293"
"html-button-response-mod","303","428176","0.0-303.0","73247","","","","","","triplet","186.20000000298023","","","","2","stimuli/fish_lowercase.png","stimuli/tools_lowercase.png","stimuli/stim014_inanimate_boats_2.png","294"
"html-button-response-mod","304","428994","0.0-304.0","73247","","","","","","triplet","315.20000000298023","","","","2","stimuli/stim015_inanimate_boats_3.png","stimuli/stim012_animate_face_4.png","stimuli/fish_uppercase.png","295"
"html-button-response-mod","305","429652","0.0-305.0","73247","","","","","","triplet","153.5","","","","2","stimuli/stim007_animate_bird_3.png","stimuli/stim008_animate_bird_4.png","stimuli/tools_lowercase.png","296"
"html-button-response-mod","306","430366","0.0-306.0","73247","","","","","","triplet","210","","","","2","stimuli/stim022_inanimate_tools_2.png","stimuli/stim003_animate_fish_3.png","stimuli/stim005_animate_bird_1.png","297"
"html-button-response-mod","307","431080","0.0-307.0","73247","","","","","","triplet","209.89999999850988","","","","2","stimuli/stim010_animate_face_2.png","stimuli/stim019_inanimate_tree_3.png","stimuli/stim014_inanimate_boats_2.png","298"
"html-button-response-mod","308","431810","0.0-308.0","73247","","","","","","triplet","226.89999999850988","","","","2","stimuli/fish_uppercase.png","stimuli/stim011_animate_face_3.png","stimuli/face_lowercase.png","299"
"html-button-response","309","434979","0.0-309.0","73247","","","","","","break","2665.3000000044703","<p>BREAK</p><p>Take a break for as long as you need</p><p>Click the button to continue</p>","0","","","","","",""
"html-button-response-mod","310","435155","0.0-310.0","73247","","","","","","triplet","174.80000000447035","","","","2","stimuli/tools_uppercase.png","stimuli/stim008_animate_bird_4.png","stimuli/stim012_animate_face_4.png","300"
"html-button-response-mod","311","435949","0.0-311.0","73247","","","","","","triplet","288.79999999701977","","","","2","stimuli/stim020_inanimate_tree_4.png","stimuli/stim003_animate_fish_3.png","stimuli/fish_uppercase.png","301"
"html-button-response-mod","312","436750","0.0-312.0","73247","","","","","","triplet","297.5","","","","2","stimuli/tools_uppercase.png","stimuli/bird_lowercase.png","stimuli/stim002_animate_fish_2.png","302"
"html-button-response-mod","313","437344","0.0-313.0","73247","","","","","","triplet","89.60000000149012","","","","2","stimuli/stim006_animate_bird_2.png","stimuli/stim022_inanimate_tools_2.png","stimuli/stim017_inanimate_tree_1.png","303"
"html-button-response-mod","314","438058","0.0-314.0","73247","","","","","","triplet","209.69999999552965","","","","2","stimuli/bird_uppercase.png","stimuli/tree_uppercase.png","stimuli/stim001_animate_fish_1.png","304"
"html-button-response-mod","315","438699","0.0-315.0","73247","","","","","","triplet","137.5","","","","2","stimuli/stim001_animate_fish_1.png","stimuli/stim024_inanimate_tools_4.png","stimuli/stim007_animate_bird_3.png","305"
"html-button-response-mod","316","439477","0.0-316.0","73247","","","","","","triplet","274.70000000298023","","","","2","stimuli/stim020_inanimate_tree_4.png","stimuli/tools_lowercase.png","stimuli/stim015_inanimate_boats_3.png","306"
"html-button-response-mod","317","440183","0.0-317.0","73247","","","","","","triplet","201.40000000596046","","","","2","stimuli/stim011_animate_face_3.png","stimuli/stim020_inanimate_tree_4.png","stimuli/bird_uppercase.png","307"
"html-button-response-mod","318","440993","0.0-318.0","73247","","","","","","triplet","308.1000000014901","","","","2","stimuli/stim002_animate_fish_2.png","stimuli/stim010_animate_face_2.png","stimuli/stim011_animate_face_3.png","308"
"html-button-response-mod","319","441574","0.0-319.0","73247","","","","","","triplet","78.20000000298023","","","","2","stimuli/stim013_inanimate_boats_1.png","stimuli/fish_uppercase.png","stimuli/tools_lowercase.png","309"
"html-button-response-mod","320","442176","0.0-320.0","73247","","","","","","triplet","96.69999999552965","","","","2","stimuli/stim001_animate_fish_1.png","stimuli/stim020_inanimate_tree_4.png","stimuli/tools_uppercase.png","310"
"html-button-response-mod","321","442858","0.0-321.0","73247","","","","","","triplet","174.80000000447035","","","","2","stimuli/stim023_inanimate_tools_3.png","stimuli/tree_uppercase.png","stimuli/stim022_inanimate_tools_2.png","311"
"html-button-response-mod","322","443539","0.0-322.0","73247","","","","","","triplet","178.39999999850988","","","","2","stimuli/boats_lowercase.png","stimuli/face_lowercase.png","stimuli/stim004_animate_fish_4.png","312"
"html-button-response-mod","323","444221","0.0-323.0","73247","","","","","","triplet","178.29999999701977","","","","2","stimuli/stim015_inanimate_boats_3.png","stimuli/stim009_animate_face_1.png","stimuli/stim001_animate_fish_1.png","313"
"html-button-response-mod","324","444879","0.0-324.0","73247","","","","","","triplet","153.10000000149012","","","","2","stimuli/stim018_inanimate_tree_2.png","stimuli/stim016_inanimate_boats_4.png","stimuli/stim019_inanimate_tree_3.png","314"
"html-button-response-mod","325","445697","0.0-325.0","73247","","","","","","triplet","315.3999999985099","","","","2","stimuli/boats_uppercase.png","stimuli/bird_lowercase.png","stimuli/stim006_animate_bird_2.png","315"
"html-button-response-mod","326","446306","0.0-326.0","73247","","","","","","triplet","103.69999999552965","","","","2","stimuli/boats_uppercase.png","stimuli/stim005_animate_bird_1.png","stimuli/stim008_animate_bird_4.png","316"
"html-button-response-mod","327","447108","0.0-327.0","73247","","","","","","triplet","296.5","","","","2","stimuli/stim004_animate_fish_4.png","stimuli/stim024_inanimate_tools_4.png","stimuli/boats_lowercase.png","317"
"html-button-response-mod","328","447871","0.0-328.0","73247","","","","","","triplet","258.30000000447035","","","","2","stimuli/face_uppercase.png","stimuli/fish_uppercase.png","stimuli/stim009_animate_face_1.png","318"
"html-button-response-mod","329","448624","0.0-329.0","73247","","","","","","triplet","250.89999999850988","","","","2","stimuli/tree_uppercase.png","stimuli/face_lowercase.png","stimuli/stim019_inanimate_tree_3.png","319"
"html-button-response-mod","330","449378","0.0-330.0","73247","","","","","","triplet","250","","","","2","stimuli/stim016_inanimate_boats_4.png","stimuli/stim014_inanimate_boats_2.png","stimuli/stim015_inanimate_boats_3.png","320"
"html-button-response-mod","331","450116","0.0-331.0","73247","","","","","","triplet","234.20000000298023","","","","2","stimuli/stim009_animate_face_1.png","stimuli/stim024_inanimate_tools_4.png","stimuli/tools_uppercase.png","321"
"html-button-response-mod","332","450886","0.0-332.0","73247","","","","","","triplet","266.29999999701977","","","","2","stimuli/stim019_inanimate_tree_3.png","stimuli/stim008_animate_bird_4.png","stimuli/stim014_inanimate_boats_2.png","322"
"html-button-response-mod","333","451688","0.0-333.0","73247","","","","","","triplet","298.30000000447035","","","","2","stimuli/stim022_inanimate_tools_2.png","stimuli/stim015_inanimate_boats_3.png","stimuli/stim003_animate_fish_3.png","323"
"html-button-response-mod","334","452265","0.0-334.0","73247","","","","","","triplet","72.60000000149012","","","","2","stimuli/bird_uppercase.png","stimuli/stim008_animate_bird_4.png","stimuli/tree_uppercase.png","324"
"html-button-response-mod","335","452883","0.0-335.0","73247","","","","","","triplet","113.59999999403954","","","","2","stimuli/stim018_inanimate_tree_2.png","stimuli/stim022_inanimate_tools_2.png","stimuli/stim017_inanimate_tree_1.png","325"
"html-button-response-mod","336","453877","0.0-336.0","73247","","","","","","triplet","490.79999999701977","","","","2","stimuli/stim021_inanimate_tools_1.png","stimuli/stim023_inanimate_tools_3.png","stimuli/stim006_animate_bird_2.png","326"
"html-button-response-mod","337","454687","0.0-337.0","73247","","","","","","triplet","306.8999999985099","","","","2","stimuli/stim021_inanimate_tools_1.png","stimuli/stim005_animate_bird_1.png","stimuli/face_lowercase.png","327"
"html-button-response-mod","338","455437","0.0-338.0","73247","","","","","","triplet","246.79999999701977","","","","2","stimuli/stim001_animate_fish_1.png","stimuli/tree_uppercase.png","stimuli/stim002_animate_fish_2.png","328"
"html-button-response-mod","339","456087","0.0-339.0","73247","","","","","","triplet","146.30000000447035","","","","2","stimuli/stim020_inanimate_tree_4.png","stimuli/stim008_animate_bird_4.png","stimuli/tools_uppercase.png","329"
"html-button-response-mod","340","457346","0.0-340.0","73247","","","","","","triplet","755.5999999940395","","","","2","stimuli/stim015_inanimate_boats_3.png","stimuli/stim020_inanimate_tree_4.png","stimuli/tools_uppercase.png","330"
"html-button-response-mod","341","457995","0.0-341.0","73247","","","","","","triplet","144.90000000596046","","","","2","stimuli/stim011_animate_face_3.png","stimuli/tools_lowercase.png","stimuli/stim013_inanimate_boats_1.png","331"
"html-button-response-mod","342","458653","0.0-342.0","73247","","","","","","triplet","153.90000000596046","","","","2","stimuli/stim023_inanimate_tools_3.png","stimuli/stim005_animate_bird_1.png","stimuli/stim014_inanimate_boats_2.png","332"
"html-button-response-mod","343","459294","0.0-343.0","73247","","","","","","triplet","138","","","","2","stimuli/stim019_inanimate_tree_3.png","stimuli/stim003_animate_fish_3.png","stimuli/bird_uppercase.png","333"
"html-button-response-mod","344","460882","0.0-344.0","73247","","","","","","triplet","1084.7000000029802","","","","2","stimuli/tools_uppercase.png","stimuli/stim003_animate_fish_3.png","stimuli/fish_lowercase.png","334"
"html-button-response-mod","345","461524","0.0-345.0","73247","","","","","","triplet","136.89999999850988","","","","2","stimuli/face_uppercase.png","stimuli/tree_lowercase.png","stimuli/stim024_inanimate_tools_4.png","335"
"html-button-response-mod","346","462285","0.0-346.0","73247","","","","","","triplet","259.30000000447035","","","","2","stimuli/stim008_animate_bird_4.png","stimuli/stim020_inanimate_tree_4.png","stimuli/tools_lowercase.png","336"
"html-button-response-mod","347","463087","0.0-347.0","73247","","","","","","triplet","295","","","","2","stimuli/stim016_inanimate_boats_4.png","stimuli/stim022_inanimate_tools_2.png","stimuli/stim021_inanimate_tools_1.png","337"
"html-button-response-mod","348","463857","0.0-348.0","73247","","","","","","triplet","266.5","","","","2","stimuli/stim020_inanimate_tree_4.png","stimuli/stim017_inanimate_tree_1.png","stimuli/tree_lowercase.png","338"
"html-button-response-mod","349","464594","0.0-349.0","73247","","","","","","triplet","235.60000000149012","","","","2","stimuli/stim023_inanimate_tools_3.png","stimuli/stim003_animate_fish_3.png","stimuli/fish_uppercase.png","339"
"html-button-response-mod","350","465284","0.0-350.0","73247","","","","","","triplet","185.69999999552965","","","","2","stimuli/stim020_inanimate_tree_4.png","stimuli/stim023_inanimate_tools_3.png","stimuli/fish_uppercase.png","340"
"html-button-response-mod","351","466062","0.0-351.0","73247","","","","","","triplet","274.1000000014901","","","","2","stimuli/fish_lowercase.png","stimuli/stim023_inanimate_tools_3.png","stimuli/bird_uppercase.png","341"
"html-button-response-mod","352","466879","0.0-352.0","73247","","","","","","triplet","313.6000000014901","","","","2","stimuli/stim010_animate_face_2.png","stimuli/fish_lowercase.png","stimuli/stim016_inanimate_boats_4.png","342"
"html-button-response-mod","353","467514","0.0-353.0","73247","","","","","","triplet","129.69999999552965","","","","2","stimuli/stim017_inanimate_tree_1.png","stimuli/stim005_animate_bird_1.png","stimuli/stim003_animate_fish_3.png","343"
"html-button-response-mod","354","468130","0.0-354.0","73247","","","","","","triplet","113.5","","","","2","stimuli/stim022_inanimate_tools_2.png","stimuli/stim005_animate_bird_1.png","stimuli/tree_lowercase.png","344"
"html-button-response-mod","355","468863","0.0-355.0","73247","","","","","","triplet","228","","","","2","stimuli/face_lowercase.png","stimuli/stim019_inanimate_tree_3.png","stimuli/stim017_inanimate_tree_1.png","345"
"html-button-response-mod","356","469674","0.0-356.0","73247","","","","","","triplet","308.5","","","","2","stimuli/stim006_animate_bird_2.png","stimuli/stim018_inanimate_tree_2.png","stimuli/stim003_animate_fish_3.png","346"
"html-button-response-mod","357","470403","0.0-357.0","73247","","","","","","triplet","226.10000000149012","","","","2","stimuli/stim007_animate_bird_3.png","stimuli/bird_uppercase.png","stimuli/stim013_inanimate_boats_1.png","347"
"html-button-response-mod","358","471165","0.0-358.0","73247","","","","","","triplet","258","","","","2","stimuli/stim011_animate_face_3.png","stimuli/stim022_inanimate_tools_2.png","stimuli/stim014_inanimate_boats_2.png","348"
"html-button-response-mod","359","471774","0.0-359.0","73247","","","","","","triplet","105.60000000149012","","","","2","stimuli/stim018_inanimate_tree_2.png","stimuli/tree_lowercase.png","stimuli/stim009_animate_face_1.png","349"
"html-button-response","360","472561","0.0-360.0","73247","","","","","","break","283.6000000014901","<p>BREAK</p><p>Take a break for as long as you need</p><p>Click the button to continue</p>","0","","","","","",""
"html-button-response-mod","361","472761","0.0-361.0","73247","","","","","","triplet","198.20000000298023","","","","2","stimuli/stim013_inanimate_boats_1.png","stimuli/face_uppercase.png","stimuli/stim009_animate_face_1.png","350"
"html-button-response-mod","362","473523","0.0-362.0","73247","","","","","","triplet","258.20000000298023","","","","2","stimuli/stim009_animate_face_1.png","stimuli/stim022_inanimate_tools_2.png","stimuli/stim024_inanimate_tools_4.png","351"
"html-button-response-mod","363","474293","0.0-363.0","73247","","","","","","triplet","266.79999999701977","","","","2","stimuli/tree_uppercase.png","stimuli/tools_lowercase.png","stimuli/stim023_inanimate_tools_3.png","352"
"html-button-response-mod","364","474906","0.0-364.0","73247","","","","","","triplet","106.29999999701977","","","","2","stimuli/stim004_animate_fish_4.png","stimuli/fish_uppercase.png","stimuli/stim002_animate_fish_2.png","353"
"html-button-response-mod","365","475708","0.0-365.0","73247","","","","","","triplet","299","","","","2","stimuli/stim007_animate_bird_3.png","stimuli/boats_uppercase.png","stimuli/stim009_animate_face_1.png","354"
"html-button-response-mod","366","476478","0.0-366.0","73247","","","","","","triplet","264.70000000298023","","","","2","stimuli/bird_lowercase.png","stimuli/stim012_animate_face_4.png","stimuli/stim019_inanimate_tree_3.png","355"
"html-button-response-mod","367","477112","0.0-367.0","73247","","","","","","triplet","129.39999999850988","","","","2","stimuli/tools_lowercase.png","stimuli/boats_uppercase.png","stimuli/tools_uppercase.png","356"
"html-button-response-mod","368","477737","0.0-368.0","73247","","","","","","triplet","121.10000000149012","","","","2","stimuli/stim021_inanimate_tools_1.png","stimuli/stim012_animate_face_4.png","stimuli/fish_lowercase.png","357"
"html-button-response-mod","369","478515","0.0-369.0","73247","","","","","","triplet","273.6000000014901","","","","2","stimuli/stim016_inanimate_boats_4.png","stimuli/boats_uppercase.png","stimuli/stim009_animate_face_1.png","358"
"html-button-response-mod","370","479157","0.0-370.0","73247","","","","","","triplet","137.5","","","","2","stimuli/stim001_animate_fish_1.png","stimuli/stim014_inanimate_boats_2.png","stimuli/face_uppercase.png","359"
"html-button-response-mod","371","479766","0.0-371.0","73247","","","","","","triplet","104.20000000298023","","","","2","stimuli/fish_lowercase.png","stimuli/stim023_inanimate_tools_3.png","stimuli/stim006_animate_bird_2.png","360"
"html-button-response-mod","372","480400","0.0-372.0","73247","","","","","","triplet","129.5","","","","2","stimuli/face_lowercase.png","stimuli/stim018_inanimate_tree_2.png","stimuli/boats_lowercase.png","361"
"html-button-response-mod","373","481050","0.0-373.0","73247","","","","","","triplet","146.39999999850988","","","","2","stimuli/stim010_animate_face_2.png","stimuli/stim017_inanimate_tree_1.png","stimuli/stim003_animate_fish_3.png","362"
"html-button-response-mod","374","481683","0.0-374.0","73247","","","","","","triplet","128.29999999701977","","","","2","stimuli/tree_uppercase.png","stimuli/stim012_animate_face_4.png","stimuli/stim016_inanimate_boats_4.png","363"
"html-button-response-mod","375","482308","0.0-375.0","73247","","","","","","triplet","121.5","","","","2","stimuli/stim024_inanimate_tools_4.png","stimuli/boats_uppercase.png","stimuli/stim002_animate_fish_2.png","364"
"html-button-response-mod","376","482934","0.0-376.0","73247","","","","","","triplet","121.5","","","","2","stimuli/stim012_animate_face_4.png","stimuli/boats_uppercase.png","stimuli/stim004_animate_fish_4.png","365"
"html-button-response-mod","377","483583","0.0-377.0","73247","","","","","","triplet","145","","","","2","stimuli/stim015_inanimate_boats_3.png","stimuli/boats_lowercase.png","stimuli/stim023_inanimate_tools_3.png","366"
"html-button-response-mod","378","484225","0.0-378.0","73247","","","","","","triplet","137.39999999850988","","","","2","stimuli/fish_lowercase.png","stimuli/stim019_inanimate_tree_3.png","stimuli/stim009_animate_face_1.png","367"
"html-button-response-mod","379","484843","0.0-379.0","73247","","","","","","triplet","113.5","","","","2","stimuli/fish_lowercase.png","stimuli/stim010_animate_face_2.png","stimuli/stim012_animate_face_4.png","368"
"html-button-response-mod","380","485460","0.0-380.0","73247","","","","","","triplet","112.79999999701977","","","","2","stimuli/stim011_animate_face_3.png","stimuli/tools_uppercase.png","stimuli/boats_lowercase.png","369"
"html-button-response-mod","381","486078","0.0-381.0","73247","","","","","","triplet","113.60000000149012","","","","2","stimuli/stim005_animate_bird_1.png","stimuli/stim002_animate_fish_2.png","stimuli/stim010_animate_face_2.png","370"
"html-button-response-mod","382","486696","0.0-382.0","73247","","","","","","triplet","113.20000000298023","","","","2","stimuli/stim018_inanimate_tree_2.png","stimuli/stim002_animate_fish_2.png","stimuli/stim013_inanimate_boats_1.png","371"
"html-button-response-mod","383","487313","0.0-383.0","73247","","","","","","triplet","112.39999999850988","","","","2","stimuli/tools_uppercase.png","stimuli/tree_uppercase.png","stimuli/bird_uppercase.png","372"
"html-button-response-mod","384","487955","0.0-384.0","73247","","","","","","triplet","137","","","","2","stimuli/stim001_animate_fish_1.png","stimuli/stim020_inanimate_tree_4.png","stimuli/stim006_animate_bird_2.png","373"
"html-button-response-mod","385","488573","0.0-385.0","73247","","","","","","triplet","113.39999999850988","","","","2","stimuli/bird_uppercase.png","stimuli/boats_uppercase.png","stimuli/stim013_inanimate_boats_1.png","374"
"html-button-response-mod","386","489199","0.0-386.0","73247","","","","","","triplet","121.40000000596046","","","","2","stimuli/stim007_animate_bird_3.png","stimuli/face_uppercase.png","stimuli/tools_uppercase.png","375"
"html-button-response-mod","387","489832","0.0-387.0","73247","","","","","","triplet","130.29999999701977","","","","2","stimuli/stim017_inanimate_tree_1.png","stimuli/stim006_animate_bird_2.png","stimuli/boats_lowercase.png","376"
"html-button-response-mod","388","490474","0.0-388.0","73247","","","","","","triplet","136","","","","2","stimuli/tools_uppercase.png","stimuli/fish_lowercase.png","stimuli/stim010_animate_face_2.png","377"
"html-button-response-mod","389","491083","0.0-389.0","73247","","","","","","triplet","105.5","","","","2","stimuli/stim002_animate_fish_2.png","stimuli/stim011_animate_face_3.png","stimuli/stim023_inanimate_tools_3.png","378"
"html-button-response-mod","390","491717","0.0-390.0","73247","","","","","","triplet","129.20000000298023","","","","2","stimuli/tree_lowercase.png","stimuli/stim014_inanimate_boats_2.png","stimuli/stim003_animate_fish_3.png","379"
"html-button-response-mod","391","492335","0.0-391.0","73247","","","","","","triplet","113.29999999701977","","","","2","stimuli/stim013_inanimate_boats_1.png","stimuli/tools_uppercase.png","stimuli/stim024_inanimate_tools_4.png","380"
"html-button-response-mod","392","492952","0.0-392.0","73247","","","","","","triplet","113.30000000447035","","","","2","stimuli/tree_uppercase.png","stimuli/stim001_animate_fish_1.png","stimuli/face_uppercase.png","381"
"html-button-response-mod","393","493603","0.0-393.0","73247","","","","","","triplet","144.70000000298023","","","","2","stimuli/stim012_animate_face_4.png","stimuli/stim009_animate_face_1.png","stimuli/fish_uppercase.png","382"
"html-button-response-mod","394","494236","0.0-394.0","73247","","","","","","triplet","131.69999999552965","","","","2","stimuli/stim012_animate_face_4.png","stimuli/tree_uppercase.png","stimuli/stim003_animate_fish_3.png","383"
"html-button-response-mod","395","494870","0.0-395.0","73247","","","","","","triplet","129.60000000149012","","","","2","stimuli/stim018_inanimate_tree_2.png","stimuli/stim021_inanimate_tools_1.png","stimuli/stim001_animate_fish_1.png","384"
"html-button-response-mod","396","495503","0.0-396.0","73247","","","","","","triplet","130.39999999850988","","","","2","stimuli/fish_lowercase.png","stimuli/stim005_animate_bird_1.png","stimuli/stim021_inanimate_tools_1.png","385"
"html-button-response-mod","397","496137","0.0-397.0","73247","","","","","","triplet","129.10000000149012","","","","2","stimuli/stim023_inanimate_tools_3.png","stimuli/fish_uppercase.png","stimuli/stim012_animate_face_4.png","386"
"html-button-response-mod","398","496754","0.0-398.0","73247","","","","","","triplet","112.70000000298023","","","","2","stimuli/stim023_inanimate_tools_3.png","stimuli/stim017_inanimate_tree_1.png","stimuli/tree_uppercase.png","387"
"html-button-response-mod","399","497380","0.0-399.0","73247","","","","","","triplet","121","","","","2","stimuli/tree_uppercase.png","stimuli/stim023_inanimate_tools_3.png","stimuli/stim019_inanimate_tree_3.png","388"
"html-button-response-mod","400","498030","0.0-400.0","73247","","","","","","triplet","145.10000000149012","","","","2","stimuli/stim007_animate_bird_3.png","stimuli/stim012_animate_face_4.png","stimuli/stim024_inanimate_tools_4.png","389"
"html-button-response-mod","401","498720","0.0-401.0","73247","","","","","","triplet","184.70000000298023","","","","2","stimuli/tree_uppercase.png","stimuli/stim023_inanimate_tools_3.png","stimuli/stim024_inanimate_tools_4.png","390"
"html-button-response-mod","402","499426","0.0-402.0","73247","","","","","","triplet","201.39999999850988","","","","2","stimuli/stim007_animate_bird_3.png","stimuli/stim006_animate_bird_2.png","stimuli/stim004_animate_fish_4.png","391"
"html-button-response-mod","403","500172","0.0-403.0","73247","","","","","","triplet","241.5","","","","2","stimuli/stim021_inanimate_tools_1.png","stimuli/stim016_inanimate_boats_4.png","stimuli/stim005_animate_bird_1.png","392"
"html-button-response-mod","404","500790","0.0-404.0","73247","","","","","","triplet","113.29999999701977","","","","2","stimuli/stim009_animate_face_1.png","stimuli/face_uppercase.png","stimuli/stim012_animate_face_4.png","393"
"html-button-response-mod","405","501447","0.0-405.0","73247","","","","","","triplet","153.30000000447035","","","","2","stimuli/stim020_inanimate_tree_4.png","stimuli/stim019_inanimate_tree_3.png","stimuli/stim012_animate_face_4.png","394"
"html-button-response-mod","406","502254","0.0-406.0","73247","","","","","","triplet","303","","","","2","stimuli/stim020_inanimate_tree_4.png","stimuli/stim015_inanimate_boats_3.png","stimuli/stim006_animate_bird_2.png","395"
"html-button-response-mod","407","502847","0.0-407.0","73247","","","","","","triplet","87.20000000298023","","","","2","stimuli/stim010_animate_face_2.png","stimuli/stim005_animate_bird_1.png","stimuli/tools_lowercase.png","396"
"html-button-response-mod","408","503473","0.0-408.0","73247","","","","","","triplet","120.09999999403954","","","","2","stimuli/stim017_inanimate_tree_1.png","stimuli/stim019_inanimate_tree_3.png","stimuli/fish_lowercase.png","397"
"html-button-response-mod","409","504098","0.0-409.0","73247","","","","","","triplet","120.89999999850988","","","","2","stimuli/stim013_inanimate_boats_1.png","stimuli/stim014_inanimate_boats_2.png","stimuli/stim004_animate_fish_4.png","398"
"html-button-response-mod","410","504748","0.0-410.0","73247","","","","","","triplet","145.10000000149012","","","","2","stimuli/tools_lowercase.png","stimuli/tree_lowercase.png","stimuli/boats_lowercase.png","399"
"html-button-response","411","505391","0.0-411.0","73247","","","","","","break","138.80000000447035","<p>BREAK</p><p>Take a break for as long as you need</p><p>Click the button to continue</p>","0","","","","","",""
"survey-text","412","509927","0.0-412.0","73247","","","","","","data_patterns","4509.5","","{""Q0"":""no""}","","","","","",""
"survey-text","413","512415","0.0-413.0","73247","","","","","","age_question","2585.1999999955297","","{""Age"":""18""}","","","","","",""
"html-button-response","414","514233","0.0-414.0","73247","","","","","","gender_question","1816.7999999970198","How would you like your gender to be recorded?","0","","","","","",""
"html-button-response","415","515436","0.0-415.0","73247","","","","","","debrief","1201.2000000029802","<p> Thank you for participating in this experiment! </p><p> We are investigating the dimensions along which you perceive the world </p><p>The images were all sorted according to whether they are animate or not, and </p><p> whether they are text or images. We are comparing this to some neuroimaging data to see </p> how your conscious classification relates to how your brain classifies the objects automatically. </p>","0","518964.59999999404","","","","",""
