"trial_type","trial_index","time_elapsed","internal_node_id","subject","success","timeout","failed_images","failed_audio","failed_video","test_part","rt","stimulus","response","end_time","button_pressed","stim0","stim1","stim2","trialnr"
"pavlovia","0","31","0.0-0.0","76098","","","","","","","","","","","","","","",""
"preload","1","2162","0.0-1.0","76098","true","false","[]","[]","[]","preload","","","","","","","","",""
"html-button-response","2","6762","0.0-2.0","76098","","","","","","","4595.200000000186","<p>Welcome to the experiment. To begin, please read the following and press the button at the bottom of the screen.</p><p></p><p><strong>Project Name: A study on cognitive processes involved in visual perception</p></strong><p></p><p><strong>PARTICIPANT INFORMATION STATEMENT</strong></p><p></p><strong>(1) What is the study about?</strong><br>You are invited to participate in a study that investigates the cognitive processes involved in perceiving and recognizing visual stimuli.If you decide to participate, you will be asked to complete a task in which you will view pictures, letters, numbers, or words presented on a computer screen.<br><strong>(2) Who can participate?</strong><br>Anyone aged 18 years or over with access to a computer (not a phone/tablet)<br><strong>(3) Where is the study located?</strong><br>The study will be conducted in your browser<br><strong>(4) Who is carrying out the study?</strong><br>The study is being conducted by Sophia Shatek from the Computational Cognitive Neuroscience laboratory at the University of Sydney.<br><strong>(5) What does the study involve?</strong><br>In this study, you will be asked to perform tasks where you will see different stimuli appear on the computer screen.You will respond by pressing a key or using a computer mouse.<br><strong>(6) How much time will the study take?</strong><br>The study takes about 30 minutes<br><strong>(7)	Can I withdraw from the study?</strong><br>Being in this study is completely voluntary - you are not under any obligation to consent. You can withdraw at any time without having to give a reason and without penalty.<br><strong>(8) Will anyone else know the results?</strong><br>All aspects of the study, including results, will be strictly confidential and only the researchers will have access to information on participants.The results and data from the study may be submitted for publication or shared with other research labs, but individual participants will not be identifiable.<br><strong>(9) Will the study benefit me?</strong><br>You will be awarded 0.5 credits for your participation.<br><strong>(10) Can I tell other people about the study?</strong><br>Yes, please tell them to contact Dr Thomas Carlson by email at thomas.carlson@sydney.edu.au.<br><strong>(11) What if I require further information about the study or my involvement in it?</strong><br>When you have read this information, the investigator will discuss it with you further and answer any questions you may have.If you would like to know more at any stage, please feel free to contact Dr Thomas Carlson directly by email at thomas.carlson@sydney.edu.au.If you would like to be informed about the outcomes of the study, contact Dr Thomas Carlson directly by email at thomas.carlson@sydney.edu.au.<br><strong>(12) What if I have a complaint or any concerns?</strong><br>Any person with concerns or complaints about the conduct of a research study can contact The Manager,Human Ethics Administration, University of Sydney on +61 2 8627 8176 (Telephone); +61 2 8627 8177 (Facsimile) or ro.humanethics@sydney.edu.au (Email).</p><p></p><strong>By participating in this experiment, you consent to participate in this study and acknowledge that:</strong><br>1. The procedures required for the project and the times involved have been explained to me, and any questions I have about the project have been answered to my satisfaction.<br>2.	I have read the Above Information Statement and have been given the opportunity to discuss the information and my involvement in the project with the researcher/s.<br>3. I understand that allowing my data to be used in research reports is completely voluntary - I am not under any obligation to consent.<br>4. I understand that my involvement is strictly confidential. I understand that any research data gathered from the results of the study may be publishedhowever no information about me will be used in any way that is identifiable.</p><p></p>","0","","","","","",""
"html-button-response","3","11619","0.0-3.0","76098","","","","","","opening_instructions","4853.5","<p>In this experiment, you will see three images appear on the screen.</p><p>You need to click the 'odd one out', or the image </p><p>that LOOKS MOST DIFFERENT to the other two. </p><p>Just go with your intuition, don't spend too long thinking about each one.</p>","0","15748.599999999627","","","","",""
"html-button-response-mod","4","14070","0.0-4.0","76098","","","","","","triplet","2447.2999999998137","","","","0","stimuli/stim023_inanimate_tools_3.png","stimuli/stim014_inanimate_boats_2.png","stimuli/stim002_animate_fish_2.png","0"
"html-button-response-mod","5","15748","0.0-5.0","76098","","","","","","triplet","1174.2999999998137","","","","2","stimuli/face_uppercase.png","stimuli/bird_uppercase.png","stimuli/stim006_animate_bird_2.png","1"
"html-button-response-mod","6","17244","0.0-6.0","76098","","","","","","triplet","992","","","","1","stimuli/stim008_animate_bird_4.png","stimuli/stim015_inanimate_boats_3.png","stimuli/stim006_animate_bird_2.png","2"
"html-button-response-mod","7","18687","0.0-7.0","76098","","","","","","triplet","938.6999999992549","","","","1","stimuli/stim011_animate_face_3.png","stimuli/fish_lowercase.png","stimuli/stim012_animate_face_4.png","3"
"html-button-response-mod","8","20005","0.0-8.0","76098","","","","","","triplet","802.3000000007451","","","","0","stimuli/face_lowercase.png","stimuli/stim021_inanimate_tools_1.png","stimuli/stim024_inanimate_tools_4.png","4"
"html-button-response-mod","9","21593","0.0-9.0","76098","","","","","","triplet","1083.5","","","","1","stimuli/stim001_animate_fish_1.png","stimuli/stim024_inanimate_tools_4.png","stimuli/stim006_animate_bird_2.png","5"
"html-button-response-mod","10","23264","0.0-10.0","76098","","","","","","triplet","1162.1000000005588","","","","0","stimuli/stim003_animate_fish_3.png","stimuli/stim011_animate_face_3.png","stimuli/stim009_animate_face_1.png","6"
"html-button-response-mod","11","24605","0.0-11.0","76098","","","","","","triplet","830.4000000003725","","","","2","stimuli/tools_lowercase.png","stimuli/tree_lowercase.png","stimuli/stim013_inanimate_boats_1.png","7"
"html-button-response-mod","12","26282","0.0-12.0","76098","","","","","","triplet","1168.7999999998137","","","","2","stimuli/stim003_animate_fish_3.png","stimuli/stim016_inanimate_boats_4.png","stimuli/stim011_animate_face_3.png","8"
"html-button-response-mod","13","27984","0.0-13.0","76098","","","","","","triplet","1199.5","","","","2","stimuli/stim001_animate_fish_1.png","stimuli/stim007_animate_bird_3.png","stimuli/fish_lowercase.png","9"
"html-button-response-mod","14","30264","0.0-14.0","76098","","","","","","triplet","1769.2000000001863","","","","0","stimuli/bird_uppercase.png","stimuli/stim021_inanimate_tools_1.png","stimuli/stim017_inanimate_tree_1.png","10"
"html-button-response-mod","15","31610","0.0-15.0","76098","","","","","","triplet","843.3999999994412","","","","0","stimuli/stim001_animate_fish_1.png","stimuli/face_uppercase.png","stimuli/tree_lowercase.png","11"
"html-button-response-mod","16","33378","0.0-16.0","76098","","","","","","triplet","1256.3999999994412","","","","0","stimuli/stim011_animate_face_3.png","stimuli/stim006_animate_bird_2.png","stimuli/stim003_animate_fish_3.png","12"
"html-button-response-mod","17","34747","0.0-17.0","76098","","","","","","triplet","866.4000000003725","","","","1","stimuli/stim006_animate_bird_2.png","stimuli/face_uppercase.png","stimuli/stim018_inanimate_tree_2.png","13"
"html-button-response-mod","18","36012","0.0-18.0","76098","","","","","","triplet","747.7000000001863","","","","1","stimuli/tree_uppercase.png","stimuli/stim018_inanimate_tree_2.png","stimuli/fish_uppercase.png","14"
"html-button-response-mod","19","38155","0.0-19.0","76098","","","","","","triplet","1633.2000000001863","","","","0","stimuli/stim015_inanimate_boats_3.png","stimuli/bird_lowercase.png","stimuli/stim010_animate_face_2.png","15"
"html-button-response-mod","20","40901","0.0-20.0","76098","","","","","","triplet","2228.7000000001863","","","","1","stimuli/stim010_animate_face_2.png","stimuli/stim023_inanimate_tools_3.png","stimuli/stim006_animate_bird_2.png","16"
"html-button-response-mod","21","42817","0.0-21.0","76098","","","","","","triplet","1401.6000000005588","","","","0","stimuli/stim014_inanimate_boats_2.png","stimuli/stim012_animate_face_4.png","stimuli/stim011_animate_face_3.png","17"
"html-button-response-mod","22","44794","0.0-22.0","76098","","","","","","triplet","1466.2000000001863","","","","0","stimuli/tree_uppercase.png","stimuli/stim021_inanimate_tools_1.png","stimuli/stim022_inanimate_tools_2.png","18"
"html-button-response-mod","23","46253","0.0-23.0","76098","","","","","","triplet","948.6000000005588","","","","2","stimuli/face_lowercase.png","stimuli/face_uppercase.png","stimuli/stim011_animate_face_3.png","19"
"html-button-response-mod","24","48454","0.0-24.0","76098","","","","","","triplet","1697","","","","2","stimuli/stim017_inanimate_tree_1.png","stimuli/stim008_animate_bird_4.png","stimuli/stim009_animate_face_1.png","20"
"html-button-response-mod","25","50927","0.0-25.0","76098","","","","","","triplet","1962.199999999255","","","","2","stimuli/stim004_animate_fish_4.png","stimuli/stim008_animate_bird_4.png","stimuli/stim013_inanimate_boats_1.png","21"
"html-button-response-mod","26","53056","0.0-26.0","76098","","","","","","triplet","1625.5999999996275","","","","2","stimuli/tools_lowercase.png","stimuli/boats_lowercase.png","stimuli/fish_uppercase.png","22"
"html-button-response-mod","27","54541","0.0-27.0","76098","","","","","","triplet","979.7000000001863","","","","0","stimuli/face_lowercase.png","stimuli/stim001_animate_fish_1.png","stimuli/stim017_inanimate_tree_1.png","23"
"html-button-response-mod","28","56743","0.0-28.0","76098","","","","","","triplet","1684.2999999998137","","","","0","stimuli/tools_lowercase.png","stimuli/stim003_animate_fish_3.png","stimuli/stim012_animate_face_4.png","24"
"html-button-response-mod","29","58972","0.0-29.0","76098","","","","","","triplet","1712.0999999996275","","","","2","stimuli/stim005_animate_bird_1.png","stimuli/stim006_animate_bird_2.png","stimuli/stim003_animate_fish_3.png","25"
"html-button-response-mod","30","60473","0.0-30.0","76098","","","","","","triplet","993.9000000003725","","","","0","stimuli/stim017_inanimate_tree_1.png","stimuli/face_uppercase.png","stimuli/boats_lowercase.png","26"
"html-button-response-mod","31","61636","0.0-31.0","76098","","","","","","triplet","650.7999999998137","","","","0","stimuli/tree_lowercase.png","stimuli/stim010_animate_face_2.png","stimuli/stim003_animate_fish_3.png","27"
"html-button-response-mod","32","62924","0.0-32.0","76098","","","","","","triplet","771.5","","","","1","stimuli/stim014_inanimate_boats_2.png","stimuli/bird_uppercase.png","stimuli/stim020_inanimate_tree_4.png","28"
"html-button-response-mod","33","64323","0.0-33.0","76098","","","","","","triplet","892.2000000001863","","","","0","stimuli/stim024_inanimate_tools_4.png","stimuli/bird_lowercase.png","stimuli/boats_lowercase.png","29"
"html-button-response-mod","34","65552","0.0-34.0","76098","","","","","","triplet","718.7999999998137","","","","0","stimuli/tree_lowercase.png","stimuli/stim015_inanimate_boats_3.png","stimuli/stim004_animate_fish_4.png","30"
"html-button-response-mod","35","66605","0.0-35.0","76098","","","","","","triplet","547.5","","","","0","stimuli/boats_uppercase.png","stimuli/stim016_inanimate_boats_4.png","stimuli/stim006_animate_bird_2.png","31"
"html-button-response-mod","36","68872","0.0-36.0","76098","","","","","","triplet","1753.5","","","","1","stimuli/stim006_animate_bird_2.png","stimuli/stim014_inanimate_boats_2.png","stimuli/stim011_animate_face_3.png","32"
"html-button-response-mod","37","70211","0.0-37.0","76098","","","","","","triplet","836.2999999998137","","","","1","stimuli/stim009_animate_face_1.png","stimuli/stim016_inanimate_boats_4.png","stimuli/stim011_animate_face_3.png","33"
"html-button-response-mod","38","71405","0.0-38.0","76098","","","","","","triplet","690.4000000003725","","","","2","stimuli/tools_uppercase.png","stimuli/boats_uppercase.png","stimuli/stim021_inanimate_tools_1.png","34"
"html-button-response-mod","39","72552","0.0-39.0","76098","","","","","","triplet","636.2999999998137","","","","1","stimuli/bird_uppercase.png","stimuli/stim019_inanimate_tree_3.png","stimuli/stim008_animate_bird_4.png","35"
"html-button-response-mod","40","73796","0.0-40.0","76098","","","","","","triplet","729.7999999998137","","","","2","stimuli/tree_lowercase.png","stimuli/face_lowercase.png","stimuli/stim001_animate_fish_1.png","36"
"html-button-response-mod","41","74996","0.0-41.0","76098","","","","","","triplet","697.4000000003725","","","","0","stimuli/stim002_animate_fish_2.png","stimuli/bird_lowercase.png","stimuli/fish_lowercase.png","37"
"html-button-response-mod","42","76263","0.0-42.0","76098","","","","","","triplet","755","","","","2","stimuli/stim019_inanimate_tree_3.png","stimuli/stim020_inanimate_tree_4.png","stimuli/stim005_animate_bird_1.png","38"
"html-button-response-mod","43","77485","0.0-43.0","76098","","","","","","triplet","718.4000000003725","","","","0","stimuli/boats_uppercase.png","stimuli/stim017_inanimate_tree_1.png","stimuli/stim016_inanimate_boats_4.png","39"
"html-button-response-mod","44","78802","0.0-44.0","76098","","","","","","triplet","813.2000000001863","","","","0","stimuli/tools_lowercase.png","stimuli/tree_uppercase.png","stimuli/boats_uppercase.png","40"
"html-button-response-mod","45","80473","0.0-45.0","76098","","","","","","triplet","1168.4000000003725","","","","2","stimuli/face_lowercase.png","stimuli/stim003_animate_fish_3.png","stimuli/stim018_inanimate_tree_2.png","41"
"html-button-response-mod","46","81762","0.0-46.0","76098","","","","","","triplet","785.5","","","","1","stimuli/stim020_inanimate_tree_4.png","stimuli/fish_lowercase.png","stimuli/stim021_inanimate_tools_1.png","42"
"html-button-response-mod","47","83116","0.0-47.0","76098","","","","","","triplet","839.5","","","","2","stimuli/stim004_animate_fish_4.png","stimuli/stim003_animate_fish_3.png","stimuli/stim009_animate_face_1.png","43"
"html-button-response-mod","48","84315","0.0-48.0","76098","","","","","","triplet","696.2000000001863","","","","2","stimuli/face_uppercase.png","stimuli/bird_uppercase.png","stimuli/stim018_inanimate_tree_2.png","44"
"html-button-response-mod","49","85618","0.0-49.0","76098","","","","","","triplet","799","","","","2","stimuli/stim013_inanimate_boats_1.png","stimuli/stim024_inanimate_tools_4.png","stimuli/stim023_inanimate_tools_3.png","45"
"html-button-response-mod","50","86989","0.0-50.0","76098","","","","","","triplet","867.5","","","","1","stimuli/stim012_animate_face_4.png","stimuli/bird_uppercase.png","stimuli/stim001_animate_fish_1.png","46"
"html-button-response-mod","51","89268","0.0-51.0","76098","","","","","","triplet","1776.2999999998137","","","","2","stimuli/stim004_animate_fish_4.png","stimuli/stim018_inanimate_tree_2.png","stimuli/stim024_inanimate_tools_4.png","47"
"html-button-response-mod","52","90829","0.0-52.0","76098","","","","","","triplet","1058.5","","","","2","stimuli/stim012_animate_face_4.png","stimuli/stim023_inanimate_tools_3.png","stimuli/stim018_inanimate_tree_2.png","48"
"html-button-response-mod","53","92309","0.0-53.0","76098","","","","","","triplet","977.2999999998137","","","","1","stimuli/stim002_animate_fish_2.png","stimuli/tools_lowercase.png","stimuli/stim017_inanimate_tree_1.png","49"
"html-button-response","54","94282","0.0-54.0","76098","","","","","","break","1469.300000000745","<p>BREAK</p><p>Take a break for as long as you need</p><p>Click the button to continue</p>","0","","","","","",""
"html-button-response-mod","55","95304","0.0-55.0","76098","","","","","","triplet","1020.1000000005588","","","","2","stimuli/stim006_animate_bird_2.png","stimuli/stim012_animate_face_4.png","stimuli/stim017_inanimate_tree_1.png","50"
"html-button-response-mod","56","96652","0.0-56.0","76098","","","","","","triplet","844.7999999998137","","","","1","stimuli/face_lowercase.png","stimuli/stim022_inanimate_tools_2.png","stimuli/boats_uppercase.png","51"
"html-button-response-mod","57","98345","0.0-57.0","76098","","","","","","triplet","1190.5","","","","0","stimuli/stim024_inanimate_tools_4.png","stimuli/stim008_animate_bird_4.png","stimuli/stim011_animate_face_3.png","52"
"html-button-response-mod","58","99940","0.0-58.0","76098","","","","","","triplet","1092.1000000005588","","","","1","stimuli/stim004_animate_fish_4.png","stimuli/face_uppercase.png","stimuli/stim010_animate_face_2.png","53"
"html-button-response-mod","59","101250","0.0-59.0","76098","","","","","","triplet","800.8000000007451","","","","2","stimuli/stim008_animate_bird_4.png","stimuli/stim014_inanimate_boats_2.png","stimuli/face_uppercase.png","54"
"html-button-response-mod","60","102781","0.0-60.0","76098","","","","","","triplet","1027.9000000003725","","","","2","stimuli/stim005_animate_bird_1.png","stimuli/stim008_animate_bird_4.png","stimuli/stim017_inanimate_tree_1.png","55"
"html-button-response-mod","61","104960","0.0-61.0","76098","","","","","","triplet","1668","","","","2","stimuli/stim019_inanimate_tree_3.png","stimuli/tools_uppercase.png","stimuli/stim024_inanimate_tools_4.png","56"
"html-button-response-mod","62","107083","0.0-62.0","76098","","","","","","triplet","1618.2000000001863","","","","1","stimuli/stim022_inanimate_tools_2.png","stimuli/stim016_inanimate_boats_4.png","stimuli/stim023_inanimate_tools_3.png","57"
"html-button-response-mod","63","109879","0.0-63.0","76098","","","","","","triplet","2291.699999999255","","","","0","stimuli/stim020_inanimate_tree_4.png","stimuli/stim022_inanimate_tools_2.png","stimuli/stim012_animate_face_4.png","58"
"html-button-response-mod","64","111365","0.0-64.0","76098","","","","","","triplet","976.5","","","","0","stimuli/fish_lowercase.png","stimuli/stim005_animate_bird_1.png","stimuli/stim003_animate_fish_3.png","59"
"html-button-response-mod","65","112718","0.0-65.0","76098","","","","","","triplet","836.5","","","","2","stimuli/stim020_inanimate_tree_4.png","stimuli/stim019_inanimate_tree_3.png","stimuli/stim016_inanimate_boats_4.png","60"
"html-button-response-mod","66","114059","0.0-66.0","76098","","","","","","triplet","837.1000000005588","","","","2","stimuli/stim017_inanimate_tree_1.png","stimuli/stim010_animate_face_2.png","stimuli/fish_lowercase.png","61"
"html-button-response-mod","67","115960","0.0-67.0","76098","","","","","","triplet","1385.7000000001863","","","","1","stimuli/stim007_animate_bird_3.png","stimuli/fish_lowercase.png","stimuli/stim015_inanimate_boats_3.png","62"
"html-button-response-mod","68","117194","0.0-68.0","76098","","","","","","triplet","722.5","","","","2","stimuli/stim006_animate_bird_2.png","stimuli/stim005_animate_bird_1.png","stimuli/tools_uppercase.png","63"
"html-button-response-mod","69","118467","0.0-69.0","76098","","","","","","triplet","769.2999999998137","","","","1","stimuli/stim011_animate_face_3.png","stimuli/bird_lowercase.png","stimuli/stim007_animate_bird_3.png","64"
"html-button-response-mod","70","119644","0.0-70.0","76098","","","","","","triplet","673.7999999998137","","","","0","stimuli/boats_lowercase.png","stimuli/stim006_animate_bird_2.png","stimuli/stim012_animate_face_4.png","65"
"html-button-response-mod","71","120924","0.0-71.0","76098","","","","","","triplet","777.2999999998137","","","","2","stimuli/face_uppercase.png","stimuli/face_lowercase.png","stimuli/stim012_animate_face_4.png","66"
"html-button-response-mod","72","122383","0.0-72.0","76098","","","","","","triplet","955.5","","","","0","stimuli/tools_lowercase.png","stimuli/stim001_animate_fish_1.png","stimuli/stim006_animate_bird_2.png","67"
"html-button-response-mod","73","124834","0.0-73.0","76098","","","","","","triplet","1942.9000000003725","","","","0","stimuli/stim023_inanimate_tools_3.png","stimuli/stim008_animate_bird_4.png","stimuli/stim004_animate_fish_4.png","68"
"html-button-response-mod","74","126202","0.0-74.0","76098","","","","","","triplet","851.4000000003725","","","","1","stimuli/stim018_inanimate_tree_2.png","stimuli/tree_lowercase.png","stimuli/stim020_inanimate_tree_4.png","69"
"html-button-response-mod","75","127543","0.0-75.0","76098","","","","","","triplet","838.3999999994412","","","","1","stimuli/stim022_inanimate_tools_2.png","stimuli/face_uppercase.png","stimuli/stim024_inanimate_tools_4.png","70"
"html-button-response-mod","76","128609","0.0-76.0","76098","","","","","","triplet","562.1999999992549","","","","0","stimuli/bird_uppercase.png","stimuli/stim022_inanimate_tools_2.png","stimuli/stim017_inanimate_tree_1.png","71"
"html-button-response-mod","77","129772","0.0-77.0","76098","","","","","","triplet","653.2999999998137","","","","0","stimuli/tree_lowercase.png","stimuli/stim018_inanimate_tree_2.png","stimuli/stim002_animate_fish_2.png","72"
"html-button-response-mod","78","131575","0.0-78.0","76098","","","","","","triplet","1300.7999999998137","","","","2","stimuli/fish_uppercase.png","stimuli/face_uppercase.png","stimuli/boats_lowercase.png","73"
"html-button-response-mod","79","134298","0.0-79.0","76098","","","","","","triplet","2220.199999999255","","","","2","stimuli/stim006_animate_bird_2.png","stimuli/stim015_inanimate_boats_3.png","stimuli/stim012_animate_face_4.png","74"
"html-button-response-mod","80","135162","0.0-80.0","76098","","","","","","triplet","362.1000000005588","","","","0","stimuli/stim010_animate_face_2.png","stimuli/stim020_inanimate_tree_4.png","stimuli/fish_lowercase.png","75"
"html-button-response-mod","81","137163","0.0-81.0","76098","","","","","","triplet","1497.5999999996275","","","","1","stimuli/bird_uppercase.png","stimuli/boats_lowercase.png","stimuli/boats_uppercase.png","76"
"html-button-response-mod","82","139215","0.0-82.0","76098","","","","","","triplet","1548.5","","","","0","stimuli/stim004_animate_fish_4.png","stimuli/stim010_animate_face_2.png","stimuli/stim018_inanimate_tree_2.png","77"
"html-button-response-mod","83","141173","0.0-83.0","76098","","","","","","triplet","1447.2000000001863","","","","0","stimuli/bird_uppercase.png","stimuli/stim008_animate_bird_4.png","stimuli/stim010_animate_face_2.png","78"
"html-button-response-mod","84","142889","0.0-84.0","76098","","","","","","triplet","1200.5","","","","2","stimuli/stim016_inanimate_boats_4.png","stimuli/stim009_animate_face_1.png","stimuli/boats_lowercase.png","79"
"html-button-response-mod","85","144161","0.0-85.0","76098","","","","","","triplet","769.7999999998137","","","","0","stimuli/stim022_inanimate_tools_2.png","stimuli/boats_lowercase.png","stimuli/face_lowercase.png","80"
"html-button-response-mod","86","145376","0.0-86.0","76098","","","","","","triplet","702.7000000001863","","","","0","stimuli/face_lowercase.png","stimuli/stim003_animate_fish_3.png","stimuli/stim002_animate_fish_2.png","81"
"html-button-response-mod","87","146855","0.0-87.0","76098","","","","","","triplet","976.5999999996275","","","","1","stimuli/stim017_inanimate_tree_1.png","stimuli/tools_uppercase.png","stimuli/stim008_animate_bird_4.png","82"
"html-button-response-mod","88","148099","0.0-88.0","76098","","","","","","triplet","741.0999999996275","","","","2","stimuli/stim012_animate_face_4.png","stimuli/stim006_animate_bird_2.png","stimuli/face_lowercase.png","83"
"html-button-response-mod","89","149402","0.0-89.0","76098","","","","","","triplet","799.9000000003725","","","","1","stimuli/stim003_animate_fish_3.png","stimuli/tree_uppercase.png","stimuli/stim009_animate_face_1.png","84"
"html-button-response-mod","90","150513","0.0-90.0","76098","","","","","","triplet","601.5999999996275","","","","0","stimuli/bird_lowercase.png","stimuli/stim010_animate_face_2.png","stimuli/stim023_inanimate_tools_3.png","85"
"html-button-response-mod","91","151669","0.0-91.0","76098","","","","","","triplet","643.4000000003725","","","","2","stimuli/stim014_inanimate_boats_2.png","stimuli/stim010_animate_face_2.png","stimuli/boats_uppercase.png","86"
"html-button-response-mod","92","152833","0.0-92.0","76098","","","","","","triplet","661","","","","0","stimuli/tools_lowercase.png","stimuli/stim008_animate_bird_4.png","stimuli/stim003_animate_fish_3.png","87"
"html-button-response-mod","93","154202","0.0-93.0","76098","","","","","","triplet","862.2000000001863","","","","1","stimuli/stim018_inanimate_tree_2.png","stimuli/stim014_inanimate_boats_2.png","stimuli/stim019_inanimate_tree_3.png","88"
"html-button-response-mod","94","155880","0.0-94.0","76098","","","","","","triplet","1173.2000000001863","","","","0","stimuli/stim009_animate_face_1.png","stimuli/stim017_inanimate_tree_1.png","stimuli/stim006_animate_bird_2.png","89"
"html-button-response-mod","95","157778","0.0-95.0","76098","","","","","","triplet","1392.0999999996275","","","","2","stimuli/stim017_inanimate_tree_1.png","stimuli/stim003_animate_fish_3.png","stimuli/tree_uppercase.png","90"
"html-button-response-mod","96","169421","0.0-96.0","76098","","","","","","triplet","11139.399999999441","","","","0","stimuli/stim010_animate_face_2.png","stimuli/tree_uppercase.png","stimuli/fish_lowercase.png","91"
"html-button-response-mod","97","170661","0.0-97.0","76098","","","","","","triplet","731.2999999998137","","","","2","stimuli/face_lowercase.png","stimuli/boats_lowercase.png","stimuli/stim015_inanimate_boats_3.png","92"
"html-button-response-mod","98","171717","0.0-98.0","76098","","","","","","triplet","545.2000000001863","","","","0","stimuli/stim017_inanimate_tree_1.png","stimuli/stim008_animate_bird_4.png","stimuli/stim020_inanimate_tree_4.png","93"
"html-button-response-mod","99","172907","0.0-99.0","76098","","","","","","triplet","673.9000000003725","","","","0","stimuli/tools_uppercase.png","stimuli/stim021_inanimate_tools_1.png","stimuli/boats_lowercase.png","94"
"html-button-response-mod","100","174285","0.0-100.0","76098","","","","","","triplet","874.7999999998137","","","","2","stimuli/boats_uppercase.png","stimuli/tools_uppercase.png","stimuli/boats_lowercase.png","95"
"html-button-response-mod","101","175704","0.0-101.0","76098","","","","","","triplet","912","","","","0","stimuli/bird_lowercase.png","stimuli/stim018_inanimate_tree_2.png","stimuli/stim023_inanimate_tools_3.png","96"
"html-button-response-mod","102","176904","0.0-102.0","76098","","","","","","triplet","696.7000000001863","","","","0","stimuli/stim020_inanimate_tree_4.png","stimuli/boats_lowercase.png","stimuli/bird_lowercase.png","97"
"html-button-response-mod","103","178193","0.0-103.0","76098","","","","","","triplet","772.0999999996275","","","","1","stimuli/bird_uppercase.png","stimuli/stim024_inanimate_tools_4.png","stimuli/face_lowercase.png","98"
"html-button-response-mod","104","180055","0.0-104.0","76098","","","","","","triplet","1359.5","","","","2","stimuli/stim012_animate_face_4.png","stimuli/stim003_animate_fish_3.png","stimuli/face_lowercase.png","99"
"html-button-response","105","181976","0.0-105.0","76098","","","","","","break","1412","<p>BREAK</p><p>Take a break for as long as you need</p><p>Click the button to continue</p>","0","","","","","",""
"html-button-response-mod","106","182757","0.0-106.0","76098","","","","","","triplet","778","","","","0","stimuli/stim004_animate_fish_4.png","stimuli/tools_uppercase.png","stimuli/tree_uppercase.png","100"
"html-button-response-mod","107","183816","0.0-107.0","76098","","","","","","triplet","547.7000000001863","","","","0","stimuli/stim022_inanimate_tools_2.png","stimuli/tree_uppercase.png","stimuli/tools_lowercase.png","101"
"html-button-response-mod","108","185355","0.0-108.0","76098","","","","","","triplet","1028.7999999998137","","","","1","stimuli/stim019_inanimate_tree_3.png","stimuli/boats_lowercase.png","stimuli/stim006_animate_bird_2.png","102"
"html-button-response-mod","109","186709","0.0-109.0","76098","","","","","","triplet","850.4000000003725","","","","1","stimuli/stim016_inanimate_boats_4.png","stimuli/stim019_inanimate_tree_3.png","stimuli/stim013_inanimate_boats_1.png","103"
"html-button-response-mod","110","190873","0.0-110.0","76098","","","","","","triplet","3656.100000000559","","","","2","stimuli/stim008_animate_bird_4.png","stimuli/stim009_animate_face_1.png","stimuli/boats_uppercase.png","104"
"html-button-response-mod","111","192246","0.0-111.0","76098","","","","","","triplet","866.2999999998137","","","","1","stimuli/tree_lowercase.png","stimuli/stim008_animate_bird_4.png","stimuli/fish_uppercase.png","105"
"html-button-response-mod","112","193689","0.0-112.0","76098","","","","","","triplet","925.9000000003725","","","","1","stimuli/stim023_inanimate_tools_3.png","stimuli/face_uppercase.png","stimuli/stim018_inanimate_tree_2.png","106"
"html-button-response-mod","113","201291","0.0-113.0","76098","","","","","","triplet","7085.0999999996275","","","","2","stimuli/stim012_animate_face_4.png","stimuli/stim024_inanimate_tools_4.png","stimuli/face_lowercase.png","107"
"html-button-response-mod","114","202580","0.0-114.0","76098","","","","","","triplet","782.7000000001863","","","","0","stimuli/tools_uppercase.png","stimuli/stim023_inanimate_tools_3.png","stimuli/stim006_animate_bird_2.png","108"
"html-button-response-mod","115","206921","0.0-115.0","76098","","","","","","triplet","3833.2000000001863","","","","0","stimuli/stim017_inanimate_tree_1.png","stimuli/stim004_animate_fish_4.png","stimuli/stim021_inanimate_tools_1.png","109"
"html-button-response-mod","116","208135","0.0-116.0","76098","","","","","","triplet","710.2999999998137","","","","0","stimuli/boats_lowercase.png","stimuli/stim016_inanimate_boats_4.png","stimuli/stim017_inanimate_tree_1.png","110"
"html-button-response-mod","117","209459","0.0-117.0","76098","","","","","","triplet","813.5999999996275","","","","2","stimuli/tools_lowercase.png","stimuli/bird_lowercase.png","stimuli/stim022_inanimate_tools_2.png","111"
"html-button-response-mod","118","210971","0.0-118.0","76098","","","","","","triplet","1008.7999999998137","","","","0","stimuli/stim023_inanimate_tools_3.png","stimuli/bird_lowercase.png","stimuli/fish_lowercase.png","112"
"html-button-response-mod","119","212234","0.0-119.0","76098","","","","","","triplet","757.3999999994412","","","","0","stimuli/stim002_animate_fish_2.png","stimuli/tree_lowercase.png","stimuli/stim015_inanimate_boats_3.png","113"
"html-button-response-mod","120","213802","0.0-120.0","76098","","","","","","triplet","1064.5","","","","0","stimuli/bird_uppercase.png","stimuli/stim003_animate_fish_3.png","stimuli/stim019_inanimate_tree_3.png","114"
"html-button-response-mod","121","215126","0.0-121.0","76098","","","","","","triplet","809.4000000003725","","","","1","stimuli/stim014_inanimate_boats_2.png","stimuli/tools_lowercase.png","stimuli/stim009_animate_face_1.png","115"
"html-button-response-mod","122","216371","0.0-122.0","76098","","","","","","triplet","730.2999999998137","","","","1","stimuli/stim024_inanimate_tools_4.png","stimuli/stim020_inanimate_tree_4.png","stimuli/fish_uppercase.png","116"
"html-button-response-mod","123","218433","0.0-123.0","76098","","","","","","triplet","1558.9000000003725","","","","0","stimuli/bird_uppercase.png","stimuli/stim019_inanimate_tree_3.png","stimuli/stim010_animate_face_2.png","117"
"html-button-response-mod","124","219601","0.0-124.0","76098","","","","","","triplet","658.5","","","","0","stimuli/stim017_inanimate_tree_1.png","stimuli/bird_lowercase.png","stimuli/tools_uppercase.png","118"
"html-button-response-mod","125","221317","0.0-125.0","76098","","","","","","triplet","1209","","","","2","stimuli/stim008_animate_bird_4.png","stimuli/stim002_animate_fish_2.png","stimuli/stim020_inanimate_tree_4.png","119"
"html-button-response-mod","126","222708","0.0-126.0","76098","","","","","","triplet","887.9000000003725","","","","1","stimuli/stim007_animate_bird_3.png","stimuli/stim020_inanimate_tree_4.png","stimuli/stim008_animate_bird_4.png","120"
"html-button-response-mod","127","224142","0.0-127.0","76098","","","","","","triplet","925.9000000003725","","","","1","stimuli/stim005_animate_bird_1.png","stimuli/face_lowercase.png","stimuli/stim020_inanimate_tree_4.png","121"
"html-button-response-mod","128","225433","0.0-128.0","76098","","","","","","triplet","787.2999999998137","","","","1","stimuli/stim019_inanimate_tree_3.png","stimuli/bird_uppercase.png","stimuli/stim007_animate_bird_3.png","122"
"html-button-response-mod","129","227146","0.0-129.0","76098","","","","","","triplet","1199.5","","","","0","stimuli/stim020_inanimate_tree_4.png","stimuli/stim014_inanimate_boats_2.png","stimuli/stim003_animate_fish_3.png","123"
"html-button-response-mod","130","228546","0.0-130.0","76098","","","","","","triplet","884.8999999994412","","","","1","stimuli/stim017_inanimate_tree_1.png","stimuli/face_uppercase.png","stimuli/stim012_animate_face_4.png","124"
"html-button-response-mod","131","229714","0.0-131.0","76098","","","","","","triplet","665","","","","1","stimuli/stim018_inanimate_tree_2.png","stimuli/bird_uppercase.png","stimuli/stim005_animate_bird_1.png","125"
"html-button-response-mod","132","230891","0.0-132.0","76098","","","","","","triplet","673.4000000003725","","","","1","stimuli/stim024_inanimate_tools_4.png","stimuli/tools_lowercase.png","stimuli/stim003_animate_fish_3.png","126"
"html-button-response-mod","133","232298","0.0-133.0","76098","","","","","","triplet","898.7999999998137","","","","1","stimuli/fish_uppercase.png","stimuli/stim013_inanimate_boats_1.png","stimuli/boats_lowercase.png","127"
"html-button-response-mod","134","233676","0.0-134.0","76098","","","","","","triplet","873","","","","2","stimuli/stim022_inanimate_tools_2.png","stimuli/stim012_animate_face_4.png","stimuli/boats_lowercase.png","128"
"html-button-response-mod","135","235301","0.0-135.0","76098","","","","","","triplet","1122.5","","","","2","stimuli/stim001_animate_fish_1.png","stimuli/stim004_animate_fish_4.png","stimuli/stim007_animate_bird_3.png","129"
"html-button-response-mod","136","237919","0.0-136.0","76098","","","","","","triplet","2108.4000000003725","","","","0","stimuli/tools_uppercase.png","stimuli/stim017_inanimate_tree_1.png","stimuli/stim022_inanimate_tools_2.png","130"
"html-button-response-mod","137","239972","0.0-137.0","76098","","","","","","triplet","1542.9000000003725","","","","0","stimuli/stim021_inanimate_tools_1.png","stimuli/stim016_inanimate_boats_4.png","stimuli/stim003_animate_fish_3.png","131"
"html-button-response-mod","138","241299","0.0-138.0","76098","","","","","","triplet","816.3000000007451","","","","2","stimuli/boats_lowercase.png","stimuli/tools_uppercase.png","stimuli/stim017_inanimate_tree_1.png","132"
"html-button-response-mod","139","242446","0.0-139.0","76098","","","","","","triplet","645.1000000005588","","","","1","stimuli/stim019_inanimate_tree_3.png","stimuli/bird_lowercase.png","stimuli/stim008_animate_bird_4.png","133"
"html-button-response-mod","140","243585","0.0-140.0","76098","","","","","","triplet","636.0999999996275","","","","2","stimuli/stim008_animate_bird_4.png","stimuli/stim011_animate_face_3.png","stimuli/stim019_inanimate_tree_3.png","134"
"html-button-response-mod","141","244575","0.0-141.0","76098","","","","","","triplet","486.70000000018626","","","","2","stimuli/bird_uppercase.png","stimuli/tree_lowercase.png","stimuli/tools_lowercase.png","135"
"html-button-response-mod","142","245580","0.0-142.0","76098","","","","","","triplet","492.1000000005588","","","","2","stimuli/stim019_inanimate_tree_3.png","stimuli/boats_lowercase.png","stimuli/fish_lowercase.png","136"
"html-button-response-mod","143","246632","0.0-143.0","76098","","","","","","triplet","547.7999999998137","","","","0","stimuli/stim008_animate_bird_4.png","stimuli/stim007_animate_bird_3.png","stimuli/face_lowercase.png","137"
"html-button-response-mod","144","247809","0.0-144.0","76098","","","","","","triplet","673.7000000001863","","","","2","stimuli/stim016_inanimate_boats_4.png","stimuli/stim011_animate_face_3.png","stimuli/face_lowercase.png","138"
"html-button-response-mod","145","249299","0.0-145.0","76098","","","","","","triplet","978.5","","","","0","stimuli/boats_lowercase.png","stimuli/fish_uppercase.png","stimuli/tree_uppercase.png","139"
"html-button-response-mod","146","250849","0.0-146.0","76098","","","","","","triplet","1047.2000000001863","","","","1","stimuli/stim021_inanimate_tools_1.png","stimuli/tree_lowercase.png","stimuli/stim014_inanimate_boats_2.png","140"
"html-button-response-mod","147","252203","0.0-147.0","76098","","","","","","triplet","850","","","","1","stimuli/stim011_animate_face_3.png","stimuli/boats_lowercase.png","stimuli/stim021_inanimate_tools_1.png","141"
"html-button-response-mod","148","253674","0.0-148.0","76098","","","","","","triplet","961.5999999996275","","","","0","stimuli/fish_lowercase.png","stimuli/stim007_animate_bird_3.png","stimuli/stim011_animate_face_3.png","142"
"html-button-response-mod","149","254911","0.0-149.0","76098","","","","","","triplet","732.7999999998137","","","","0","stimuli/stim006_animate_bird_2.png","stimuli/boats_lowercase.png","stimuli/bird_lowercase.png","143"
"html-button-response-mod","150","256125","0.0-150.0","76098","","","","","","triplet","702.7999999998137","","","","2","stimuli/stim020_inanimate_tree_4.png","stimuli/stim017_inanimate_tree_1.png","stimuli/stim021_inanimate_tools_1.png","144"
"html-button-response-mod","151","257335","0.0-151.0","76098","","","","","","triplet","700.4000000003725","","","","0","stimuli/stim024_inanimate_tools_4.png","stimuli/stim015_inanimate_boats_3.png","stimuli/tools_uppercase.png","145"
"html-button-response-mod","152","258568","0.0-152.0","76098","","","","","","triplet","721.6999999992549","","","","1","stimuli/face_uppercase.png","stimuli/fish_lowercase.png","stimuli/boats_uppercase.png","146"
"html-button-response-mod","153","260430","0.0-153.0","76098","","","","","","triplet","1358.5999999996275","","","","2","stimuli/stim004_animate_fish_4.png","stimuli/stim003_animate_fish_3.png","stimuli/stim019_inanimate_tree_3.png","147"
"html-button-response-mod","154","262123","0.0-154.0","76098","","","","","","triplet","1190.1000000005588","","","","0","stimuli/stim016_inanimate_boats_4.png","stimuli/stim001_animate_fish_1.png","stimuli/stim005_animate_bird_1.png","148"
"html-button-response-mod","155","263424","0.0-155.0","76098","","","","","","triplet","782.5","","","","1","stimuli/stim021_inanimate_tools_1.png","stimuli/boats_lowercase.png","stimuli/stim003_animate_fish_3.png","149"
"html-button-response","156","962629","0.0-156.0","76098","","","","","","break","698702.7000000002","<p>BREAK</p><p>Take a break for as long as you need</p><p>Click the button to continue</p>","0","","","","","",""
"html-button-response-mod","157","968544","0.0-157.0","76098","","","","","","triplet","5914","","","","0","stimuli/stim020_inanimate_tree_4.png","stimuli/stim005_animate_bird_1.png","stimuli/stim022_inanimate_tools_2.png","150"
"html-button-response-mod","158","969709","0.0-158.0","76098","","","","","","triplet","660.7999999998137","","","","0","stimuli/stim018_inanimate_tree_2.png","stimuli/stim017_inanimate_tree_1.png","stimuli/stim022_inanimate_tools_2.png","151"
"html-button-response-mod","159","970901","0.0-159.0","76098","","","","","","triplet","689.3999999994412","","","","2","stimuli/stim015_inanimate_boats_3.png","stimuli/stim021_inanimate_tools_1.png","stimuli/bird_uppercase.png","152"
"html-button-response-mod","160","972021","0.0-160.0","76098","","","","","","triplet","617.7999999998137","","","","2","stimuli/stim003_animate_fish_3.png","stimuli/stim013_inanimate_boats_1.png","stimuli/tree_lowercase.png","153"
"html-button-response-mod","161","975622","0.0-161.0","76098","","","","","","triplet","3097.7000000001863","","","","0","stimuli/tree_uppercase.png","stimuli/tree_lowercase.png","stimuli/face_lowercase.png","154"
"html-button-response-mod","162","988305","0.0-162.0","76098","","","","","","triplet","12164.700000000186","","","","2","stimuli/stim001_animate_fish_1.png","stimuli/stim009_animate_face_1.png","stimuli/tree_uppercase.png","155"
"html-button-response-mod","163","992319","0.0-163.0","76098","","","","","","triplet","3510.7000000001863","","","","0","stimuli/stim020_inanimate_tree_4.png","stimuli/stim023_inanimate_tools_3.png","stimuli/stim012_animate_face_4.png","156"
"html-button-response-mod","164","995305","0.0-164.0","76098","","","","","","triplet","2469.899999999441","","","","2","stimuli/stim004_animate_fish_4.png","stimuli/stim012_animate_face_4.png","stimuli/stim018_inanimate_tree_2.png","157"
"html-button-response-mod","165","999885","0.0-165.0","76098","","","","","","triplet","4077.4000000003725","","","","0","stimuli/bird_uppercase.png","stimuli/stim023_inanimate_tools_3.png","stimuli/stim019_inanimate_tree_3.png","158"
"html-button-response-mod","166","1002081","0.0-166.0","76098","","","","","","triplet","1691.5","","","","0","stimuli/stim002_animate_fish_2.png","stimuli/stim024_inanimate_tools_4.png","stimuli/stim016_inanimate_boats_4.png","159"
"html-button-response-mod","167","1003309","0.0-167.0","76098","","","","","","triplet","716.7000000001863","","","","1","stimuli/tools_uppercase.png","stimuli/stim020_inanimate_tree_4.png","stimuli/fish_uppercase.png","160"
"html-button-response-mod","168","1004550","0.0-168.0","76098","","","","","","triplet","733.7000000001863","","","","0","stimuli/tools_lowercase.png","stimuli/stim008_animate_bird_4.png","stimuli/stim012_animate_face_4.png","161"
"html-button-response-mod","169","1005809","0.0-169.0","76098","","","","","","triplet","755.6000000005588","","","","2","stimuli/bird_uppercase.png","stimuli/fish_lowercase.png","stimuli/stim022_inanimate_tools_2.png","162"
"html-button-response-mod","170","1007709","0.0-170.0","76098","","","","","","triplet","1396.5","","","","0","stimuli/stim008_animate_bird_4.png","stimuli/stim001_animate_fish_1.png","stimuli/stim003_animate_fish_3.png","163"
"html-button-response-mod","171","1019860","0.0-171.0","76098","","","","","","triplet","11639.099999999627","","","","2","stimuli/stim002_animate_fish_2.png","stimuli/stim011_animate_face_3.png","stimuli/stim020_inanimate_tree_4.png","164"
"html-button-response-mod","172","1021324","0.0-172.0","76098","","","","","","triplet","960.2000000001863","","","","1","stimuli/stim005_animate_bird_1.png","stimuli/tools_lowercase.png","stimuli/stim001_animate_fish_1.png","165"
"html-button-response-mod","173","1035180","0.0-173.0","76098","","","","","","triplet","13353.900000000373","","","","1","stimuli/stim018_inanimate_tree_2.png","stimuli/stim010_animate_face_2.png","stimuli/stim003_animate_fish_3.png","166"
"html-button-response-mod","174","1036624","0.0-174.0","76098","","","","","","triplet","941.9000000003725","","","","2","stimuli/stim003_animate_fish_3.png","stimuli/stim002_animate_fish_2.png","stimuli/stim010_animate_face_2.png","167"
"html-button-response-mod","175","1039524","0.0-175.0","76098","","","","","","triplet","2384","","","","2","stimuli/stim024_inanimate_tools_4.png","stimuli/stim009_animate_face_1.png","stimuli/bird_uppercase.png","168"
"html-button-response-mod","176","1046405","0.0-176.0","76098","","","","","","triplet","6368.299999999814","","","","0","stimuli/boats_uppercase.png","stimuli/stim006_animate_bird_2.png","stimuli/stim002_animate_fish_2.png","169"
"html-button-response-mod","177","1047688","0.0-177.0","76098","","","","","","triplet","779.7000000001863","","","","1","stimuli/fish_lowercase.png","stimuli/stim010_animate_face_2.png","stimuli/boats_uppercase.png","170"
"html-button-response-mod","178","1051220","0.0-178.0","76098","","","","","","triplet","3029","","","","2","stimuli/stim011_animate_face_3.png","stimuli/stim017_inanimate_tree_1.png","stimuli/tools_lowercase.png","171"
"html-button-response-mod","179","1055284","0.0-179.0","76098","","","","","","triplet","3561.300000000745","","","","2","stimuli/stim018_inanimate_tree_2.png","stimuli/stim015_inanimate_boats_3.png","stimuli/tree_uppercase.png","172"
"html-button-response-mod","180","1060604","0.0-180.0","76098","","","","","","triplet","4810.5999999996275","","","","0","stimuli/boats_uppercase.png","stimuli/stim006_animate_bird_2.png","stimuli/stim003_animate_fish_3.png","173"
"html-button-response-mod","181","1062524","0.0-181.0","76098","","","","","","triplet","1416.9000000003725","","","","1","stimuli/tools_lowercase.png","stimuli/fish_uppercase.png","stimuli/face_lowercase.png","174"
"html-button-response-mod","182","1063748","0.0-182.0","76098","","","","","","triplet","714.5","","","","1","stimuli/bird_uppercase.png","stimuli/stim013_inanimate_boats_1.png","stimuli/boats_lowercase.png","175"
"html-button-response-mod","183","1065544","0.0-183.0","76098","","","","","","triplet","1291.5999999996275","","","","2","stimuli/stim024_inanimate_tools_4.png","stimuli/stim016_inanimate_boats_4.png","stimuli/stim011_animate_face_3.png","176"
"html-button-response-mod","184","1066800","0.0-184.0","76098","","","","","","triplet","752.6000000005588","","","","1","stimuli/tools_lowercase.png","stimuli/stim017_inanimate_tree_1.png","stimuli/tree_uppercase.png","177"
"html-button-response-mod","185","1068364","0.0-185.0","76098","","","","","","triplet","1060.800000000745","","","","0","stimuli/fish_uppercase.png","stimuli/stim021_inanimate_tools_1.png","stimuli/stim024_inanimate_tools_4.png","178"
"html-button-response-mod","186","1069884","0.0-186.0","76098","","","","","","triplet","1015.5999999996275","","","","1","stimuli/stim018_inanimate_tree_2.png","stimuli/stim010_animate_face_2.png","stimuli/stim017_inanimate_tree_1.png","179"
"html-button-response-mod","187","1074254","0.0-187.0","76098","","","","","","triplet","3867.2000000001863","","","","0","stimuli/stim018_inanimate_tree_2.png","stimuli/stim001_animate_fish_1.png","stimuli/stim006_animate_bird_2.png","180"
"html-button-response-mod","188","1076020","0.0-188.0","76098","","","","","","triplet","1262","","","","2","stimuli/stim001_animate_fish_1.png","stimuli/stim023_inanimate_tools_3.png","stimuli/tools_uppercase.png","181"
"html-button-response-mod","189","1077717","0.0-189.0","76098","","","","","","triplet","1193.800000000745","","","","0","stimuli/face_lowercase.png","stimuli/stim005_animate_bird_1.png","stimuli/stim017_inanimate_tree_1.png","182"
"html-button-response-mod","190","1078972","0.0-190.0","76098","","","","","","triplet","751.6999999992549","","","","1","stimuli/stim001_animate_fish_1.png","stimuli/bird_uppercase.png","stimuli/stim007_animate_bird_3.png","183"
"html-button-response-mod","191","1080376","0.0-191.0","76098","","","","","","triplet","900.2999999998137","","","","2","stimuli/stim015_inanimate_boats_3.png","stimuli/stim017_inanimate_tree_1.png","stimuli/tree_lowercase.png","184"
"html-button-response-mod","192","1081548","0.0-192.0","76098","","","","","","triplet","669.2999999998137","","","","0","stimuli/face_uppercase.png","stimuli/stim002_animate_fish_2.png","stimuli/stim007_animate_bird_3.png","185"
"html-button-response-mod","193","1083852","0.0-193.0","76098","","","","","","triplet","1801.4000000003725","","","","2","stimuli/stim002_animate_fish_2.png","stimuli/stim007_animate_bird_3.png","stimuli/stim016_inanimate_boats_4.png","186"
"html-button-response-mod","194","1085092","0.0-194.0","76098","","","","","","triplet","736.9000000003725","","","","1","stimuli/stim010_animate_face_2.png","stimuli/tree_lowercase.png","stimuli/stim013_inanimate_boats_1.png","187"
"html-button-response-mod","195","1086364","0.0-195.0","76098","","","","","","triplet","769.2999999998137","","","","0","stimuli/face_uppercase.png","stimuli/stim001_animate_fish_1.png","stimuli/stim014_inanimate_boats_2.png","188"
"html-button-response-mod","196","1087540","0.0-196.0","76098","","","","","","triplet","673.2000000001863","","","","2","stimuli/stim010_animate_face_2.png","stimuli/stim017_inanimate_tree_1.png","stimuli/tools_uppercase.png","189"
"html-button-response-mod","197","1088884","0.0-197.0","76098","","","","","","triplet","840.7999999998137","","","","0","stimuli/stim021_inanimate_tools_1.png","stimuli/boats_uppercase.png","stimuli/bird_uppercase.png","190"
"html-button-response-mod","198","1090580","0.0-198.0","76098","","","","","","triplet","1189.2000000001863","","","","0","stimuli/boats_uppercase.png","stimuli/stim001_animate_fish_1.png","stimuli/stim019_inanimate_tree_3.png","191"
"html-button-response-mod","199","1093076","0.0-199.0","76098","","","","","","triplet","1993.7000000001863","","","","2","stimuli/stim002_animate_fish_2.png","stimuli/stim013_inanimate_boats_1.png","stimuli/face_uppercase.png","192"
"html-button-response-mod","200","1094316","0.0-200.0","76098","","","","","","triplet","725.1000000005588","","","","2","stimuli/tools_uppercase.png","stimuli/face_lowercase.png","stimuli/stim006_animate_bird_2.png","193"
"html-button-response-mod","201","1095492","0.0-201.0","76098","","","","","","triplet","672.4000000003725","","","","0","stimuli/stim004_animate_fish_4.png","stimuli/face_lowercase.png","stimuli/fish_uppercase.png","194"
"html-button-response-mod","202","1098096","0.0-202.0","76098","","","","","","triplet","2102","","","","1","stimuli/stim006_animate_bird_2.png","stimuli/stim023_inanimate_tools_3.png","stimuli/stim007_animate_bird_3.png","195"
"html-button-response-mod","203","1099428","0.0-203.0","76098","","","","","","triplet","828.7999999998137","","","","2","stimuli/stim008_animate_bird_4.png","stimuli/stim007_animate_bird_3.png","stimuli/stim022_inanimate_tools_2.png","196"
"html-button-response-mod","204","1101084","0.0-204.0","76098","","","","","","triplet","1140.7999999998137","","","","0","stimuli/stim020_inanimate_tree_4.png","stimuli/tools_uppercase.png","stimuli/fish_lowercase.png","197"
"html-button-response-mod","205","1103244","0.0-205.0","76098","","","","","","triplet","1656.5","","","","0","stimuli/stim014_inanimate_boats_2.png","stimuli/stim006_animate_bird_2.png","stimuli/stim020_inanimate_tree_4.png","198"
"html-button-response-mod","206","1105426","0.0-206.0","76098","","","","","","triplet","1679.5","","","","0","stimuli/tree_lowercase.png","stimuli/stim024_inanimate_tools_4.png","stimuli/stim009_animate_face_1.png","199"
"html-button-response","207","1107214","0.0-207.0","76098","","","","","","break","1282.300000000745","<p>BREAK</p><p>Take a break for as long as you need</p><p>Click the button to continue</p>","0","","","","","",""
"html-button-response-mod","208","1107916","0.0-208.0","76098","","","","","","triplet","701.5999999996275","","","","0","stimuli/stim009_animate_face_1.png","stimuli/bird_uppercase.png","stimuli/tools_uppercase.png","200"
"html-button-response-mod","209","1109308","0.0-209.0","76098","","","","","","triplet","888.7999999998137","","","","0","stimuli/stim015_inanimate_boats_3.png","stimuli/bird_uppercase.png","stimuli/fish_uppercase.png","201"
"html-button-response-mod","210","1110952","0.0-210.0","76098","","","","","","triplet","1140.5","","","","1","stimuli/stim016_inanimate_boats_4.png","stimuli/boats_uppercase.png","stimuli/stim007_animate_bird_3.png","202"
"html-button-response-mod","211","1113396","0.0-211.0","76098","","","","","","triplet","1939.4000000003725","","","","0","stimuli/stim010_animate_face_2.png","stimuli/stim020_inanimate_tree_4.png","stimuli/stim024_inanimate_tools_4.png","203"
"html-button-response-mod","212","1114617","0.0-212.0","76098","","","","","","triplet","708.3000000007451","","","","0","stimuli/face_uppercase.png","stimuli/stim019_inanimate_tree_3.png","stimuli/stim021_inanimate_tools_1.png","204"
"html-button-response-mod","213","1115724","0.0-213.0","76098","","","","","","triplet","603.7999999998137","","","","0","stimuli/stim022_inanimate_tools_2.png","stimuli/bird_uppercase.png","stimuli/boats_uppercase.png","205"
"html-button-response-mod","214","1117096","0.0-214.0","76098","","","","","","triplet","859.7999999998137","","","","0","stimuli/stim009_animate_face_1.png","stimuli/stim016_inanimate_boats_4.png","stimuli/stim013_inanimate_boats_1.png","206"
"html-button-response-mod","215","1118860","0.0-215.0","76098","","","","","","triplet","1260.5999999996275","","","","2","stimuli/stim018_inanimate_tree_2.png","stimuli/stim014_inanimate_boats_2.png","stimuli/face_uppercase.png","207"
"html-button-response-mod","216","1120252","0.0-216.0","76098","","","","","","triplet","889.7000000001863","","","","0","stimuli/stim005_animate_bird_1.png","stimuli/stim018_inanimate_tree_2.png","stimuli/boats_lowercase.png","208"
"html-button-response-mod","217","1121420","0.0-217.0","76098","","","","","","triplet","665.1000000005588","","","","0","stimuli/stim010_animate_face_2.png","stimuli/fish_lowercase.png","stimuli/fish_uppercase.png","209"
"html-button-response-mod","218","1122788","0.0-218.0","76098","","","","","","triplet","861.8999999994412","","","","2","stimuli/tree_uppercase.png","stimuli/fish_lowercase.png","stimuli/stim024_inanimate_tools_4.png","210"
"html-button-response-mod","219","1124564","0.0-219.0","76098","","","","","","triplet","1258.9000000003725","","","","0","stimuli/stim018_inanimate_tree_2.png","stimuli/fish_uppercase.png","stimuli/face_lowercase.png","211"
"html-button-response-mod","220","1126124","0.0-220.0","76098","","","","","","triplet","1048.7000000001863","","","","1","stimuli/stim020_inanimate_tree_4.png","stimuli/fish_uppercase.png","stimuli/stim014_inanimate_boats_2.png","212"
"html-button-response-mod","221","1128212","0.0-221.0","76098","","","","","","triplet","1585.7000000001863","","","","1","stimuli/stim014_inanimate_boats_2.png","stimuli/tools_lowercase.png","stimuli/stim006_animate_bird_2.png","213"
"html-button-response-mod","222","1130532","0.0-222.0","76098","","","","","","triplet","1817.2999999998137","","","","2","stimuli/stim012_animate_face_4.png","stimuli/stim010_animate_face_2.png","stimuli/stim021_inanimate_tools_1.png","214"
"html-button-response-mod","223","1131948","0.0-223.0","76098","","","","","","triplet","913.2999999998137","","","","1","stimuli/tree_lowercase.png","stimuli/boats_lowercase.png","stimuli/fish_uppercase.png","215"
"html-button-response-mod","224","1135445","0.0-224.0","76098","","","","","","triplet","2994.100000000559","","","","0","stimuli/stim020_inanimate_tree_4.png","stimuli/stim011_animate_face_3.png","stimuli/stim008_animate_bird_4.png","216"
"html-button-response-mod","225","1136916","0.0-225.0","76098","","","","","","triplet","968.7000000001863","","","","2","stimuli/stim016_inanimate_boats_4.png","stimuli/stim020_inanimate_tree_4.png","stimuli/fish_lowercase.png","217"
"html-button-response-mod","226","1139212","0.0-226.0","76098","","","","","","triplet","1791.2999999998137","","","","2","stimuli/face_lowercase.png","stimuli/fish_uppercase.png","stimuli/stim009_animate_face_1.png","218"
"html-button-response-mod","227","1140580","0.0-227.0","76098","","","","","","triplet","859.2000000001863","","","","2","stimuli/fish_uppercase.png","stimuli/tools_uppercase.png","stimuli/tree_lowercase.png","219"
"html-button-response-mod","228","1142684","0.0-228.0","76098","","","","","","triplet","1587.9000000003725","","","","2","stimuli/stim006_animate_bird_2.png","stimuli/stim008_animate_bird_4.png","stimuli/face_lowercase.png","220"
"html-button-response-mod","229","1144273","0.0-229.0","76098","","","","","","triplet","1085","","","","2","stimuli/stim007_animate_bird_3.png","stimuli/stim011_animate_face_3.png","stimuli/face_uppercase.png","221"
"html-button-response-mod","230","1145556","0.0-230.0","76098","","","","","","triplet","780.2999999998137","","","","1","stimuli/stim017_inanimate_tree_1.png","stimuli/tools_lowercase.png","stimuli/stim024_inanimate_tools_4.png","222"
"html-button-response-mod","231","1147764","0.0-231.0","76098","","","","","","triplet","1704.7999999998137","","","","0","stimuli/stim014_inanimate_boats_2.png","stimuli/stim005_animate_bird_1.png","stimuli/stim002_animate_fish_2.png","223"
"html-button-response-mod","232","1149068","0.0-232.0","76098","","","","","","triplet","801.5999999996275","","","","2","stimuli/stim005_animate_bird_1.png","stimuli/stim016_inanimate_boats_4.png","stimuli/tree_lowercase.png","224"
"html-button-response-mod","233","1150613","0.0-233.0","76098","","","","","","triplet","1041.5999999996275","","","","0","stimuli/stim022_inanimate_tools_2.png","stimuli/boats_lowercase.png","stimuli/bird_lowercase.png","225"
"html-button-response-mod","234","1152756","0.0-234.0","76098","","","","","","triplet","1641.2000000001863","","","","1","stimuli/stim006_animate_bird_2.png","stimuli/boats_lowercase.png","stimuli/stim017_inanimate_tree_1.png","226"
"html-button-response-mod","235","1155061","0.0-235.0","76098","","","","","","triplet","1802.2999999998137","","","","0","stimuli/tree_lowercase.png","stimuli/stim001_animate_fish_1.png","stimuli/stim007_animate_bird_3.png","227"
"html-button-response-mod","236","1156593","0.0-236.0","76098","","","","","","triplet","1028","","","","1","stimuli/stim020_inanimate_tree_4.png","stimuli/bird_uppercase.png","stimuli/stim024_inanimate_tools_4.png","228"
"html-button-response-mod","237","1158481","0.0-237.0","76098","","","","","","triplet","1374.7999999998137","","","","0","stimuli/stim019_inanimate_tree_3.png","stimuli/stim022_inanimate_tools_2.png","stimuli/stim007_animate_bird_3.png","229"
"html-button-response-mod","238","1161105","0.0-238.0","76098","","","","","","triplet","2120.899999999441","","","","0","stimuli/stim017_inanimate_tree_1.png","stimuli/stim005_animate_bird_1.png","stimuli/stim004_animate_fish_4.png","230"
"html-button-response-mod","239","1162877","0.0-239.0","76098","","","","","","triplet","1269.7000000001863","","","","2","stimuli/stim023_inanimate_tools_3.png","stimuli/stim010_animate_face_2.png","stimuli/boats_lowercase.png","231"
"html-button-response-mod","240","1164429","0.0-240.0","76098","","","","","","triplet","1049.5","","","","1","stimuli/stim013_inanimate_boats_1.png","stimuli/boats_lowercase.png","stimuli/stim010_animate_face_2.png","232"
"html-button-response-mod","241","1166293","0.0-241.0","76098","","","","","","triplet","1348.5","","","","0","stimuli/stim005_animate_bird_1.png","stimuli/bird_lowercase.png","stimuli/boats_uppercase.png","233"
"html-button-response-mod","242","1167841","0.0-242.0","76098","","","","","","triplet","1045.4000000003725","","","","2","stimuli/bird_lowercase.png","stimuli/fish_uppercase.png","stimuli/stim019_inanimate_tree_3.png","234"
"html-button-response-mod","243","1169093","0.0-243.0","76098","","","","","","triplet","749.7000000001863","","","","2","stimuli/tree_lowercase.png","stimuli/fish_uppercase.png","stimuli/stim003_animate_fish_3.png","235"
"html-button-response-mod","244","1170373","0.0-244.0","76098","","","","","","triplet","777.5999999996275","","","","2","stimuli/stim006_animate_bird_2.png","stimuli/stim005_animate_bird_1.png","stimuli/tree_uppercase.png","236"
"html-button-response-mod","245","1171421","0.0-245.0","76098","","","","","","triplet","545.2000000001863","","","","2","stimuli/stim019_inanimate_tree_3.png","stimuli/stim015_inanimate_boats_3.png","stimuli/bird_lowercase.png","237"
"html-button-response-mod","246","1173849","0.0-246.0","76098","","","","","","triplet","1925","","","","2","stimuli/stim005_animate_bird_1.png","stimuli/stim007_animate_bird_3.png","stimuli/tools_lowercase.png","238"
"html-button-response-mod","247","1175557","0.0-247.0","76098","","","","","","triplet","1204.2999999998137","","","","0","stimuli/stim014_inanimate_boats_2.png","stimuli/stim018_inanimate_tree_2.png","stimuli/stim020_inanimate_tree_4.png","239"
"html-button-response-mod","248","1177193","0.0-248.0","76098","","","","","","triplet","1133.2999999998137","","","","1","stimuli/stim021_inanimate_tools_1.png","stimuli/stim018_inanimate_tree_2.png","stimuli/stim010_animate_face_2.png","240"
"html-button-response-mod","249","1178721","0.0-249.0","76098","","","","","","triplet","1024.7999999998137","","","","1","stimuli/stim018_inanimate_tree_2.png","stimuli/boats_lowercase.png","stimuli/stim019_inanimate_tree_3.png","241"
"html-button-response-mod","250","1180901","0.0-250.0","76098","","","","","","triplet","1678","","","","1","stimuli/stim001_animate_fish_1.png","stimuli/stim015_inanimate_boats_3.png","stimuli/stim008_animate_bird_4.png","242"
"html-button-response-mod","251","1183729","0.0-251.0","76098","","","","","","triplet","2324.600000000559","","","","2","stimuli/stim005_animate_bird_1.png","stimuli/stim003_animate_fish_3.png","stimuli/stim010_animate_face_2.png","243"
"html-button-response-mod","252","1185637","0.0-252.0","76098","","","","","","triplet","1404.7999999998137","","","","1","stimuli/stim002_animate_fish_2.png","stimuli/stim015_inanimate_boats_3.png","stimuli/stim001_animate_fish_1.png","244"
"html-button-response-mod","253","1187405","0.0-253.0","76098","","","","","","triplet","1258.7000000001863","","","","0","stimuli/bird_uppercase.png","stimuli/stim008_animate_bird_4.png","stimuli/stim020_inanimate_tree_4.png","245"
"html-button-response-mod","254","1188681","0.0-254.0","76098","","","","","","triplet","772.3000000007451","","","","1","stimuli/stim013_inanimate_boats_1.png","stimuli/tree_uppercase.png","stimuli/stim002_animate_fish_2.png","246"
"html-button-response-mod","255","1190969","0.0-255.0","76098","","","","","","triplet","1785","","","","2","stimuli/stim008_animate_bird_4.png","stimuli/stim002_animate_fish_2.png","stimuli/boats_uppercase.png","247"
"html-button-response-mod","256","1192761","0.0-256.0","76098","","","","","","triplet","1280.7000000001863","","","","1","stimuli/stim014_inanimate_boats_2.png","stimuli/stim023_inanimate_tools_3.png","stimuli/stim007_animate_bird_3.png","248"
"html-button-response-mod","257","1195345","0.0-257.0","76098","","","","","","triplet","2071","","","","2","stimuli/stim001_animate_fish_1.png","stimuli/stim024_inanimate_tools_4.png","stimuli/tools_uppercase.png","249"
"html-button-response","258","1196649","0.0-258.0","76098","","","","","","break","800.7999999998137","<p>BREAK</p><p>Take a break for as long as you need</p><p>Click the button to continue</p>","0","","","","","",""
"html-button-response-mod","259","1198077","0.0-259.0","76098","","","","","","triplet","1426.9000000003725","","","","1","stimuli/stim005_animate_bird_1.png","stimuli/stim017_inanimate_tree_1.png","stimuli/stim007_animate_bird_3.png","250"
"html-button-response-mod","260","1199801","0.0-260.0","76098","","","","","","triplet","1210.2999999998137","","","","2","stimuli/stim014_inanimate_boats_2.png","stimuli/stim009_animate_face_1.png","stimuli/stim017_inanimate_tree_1.png","251"
"html-button-response-mod","261","1201109","0.0-261.0","76098","","","","","","triplet","805.3999999994412","","","","1","stimuli/stim008_animate_bird_4.png","stimuli/stim009_animate_face_1.png","stimuli/stim010_animate_face_2.png","252"
"html-button-response-mod","262","1202285","0.0-262.0","76098","","","","","","triplet","673.7000000001863","","","","1","stimuli/stim015_inanimate_boats_3.png","stimuli/tree_uppercase.png","stimuli/stim002_animate_fish_2.png","253"
"html-button-response-mod","263","1203673","0.0-263.0","76098","","","","","","triplet","872.0999999996275","","","","0","stimuli/stim014_inanimate_boats_2.png","stimuli/stim007_animate_bird_3.png","stimuli/stim008_animate_bird_4.png","254"
"html-button-response-mod","264","1205213","0.0-264.0","76098","","","","","","triplet","1037.5999999996275","","","","2","stimuli/stim024_inanimate_tools_4.png","stimuli/stim014_inanimate_boats_2.png","stimuli/face_uppercase.png","255"
"html-button-response-mod","265","1207504","0.0-265.0","76098","","","","","","triplet","1784.7000000001863","","","","0","stimuli/boats_uppercase.png","stimuli/stim008_animate_bird_4.png","stimuli/stim019_inanimate_tree_3.png","256"
"html-button-response-mod","266","1209309","0.0-266.0","76098","","","","","","triplet","1301.9000000003725","","","","1","stimuli/stim006_animate_bird_2.png","stimuli/bird_lowercase.png","stimuli/stim010_animate_face_2.png","257"
"html-button-response-mod","267","1210508","0.0-267.0","76098","","","","","","triplet","683.8999999994412","","","","0","stimuli/stim003_animate_fish_3.png","stimuli/tree_lowercase.png","stimuli/tools_uppercase.png","258"
"html-button-response-mod","268","1211685","0.0-268.0","76098","","","","","","triplet","667.5","","","","2","stimuli/face_uppercase.png","stimuli/fish_uppercase.png","stimuli/stim011_animate_face_3.png","259"
"html-button-response-mod","269","1214381","0.0-269.0","76098","","","","","","triplet","2188.7999999998137","","","","2","stimuli/stim003_animate_fish_3.png","stimuli/stim024_inanimate_tools_4.png","stimuli/stim012_animate_face_4.png","260"
"html-button-response-mod","270","1216576","0.0-270.0","76098","","","","","","triplet","1692","","","","2","stimuli/stim001_animate_fish_1.png","stimuli/stim019_inanimate_tree_3.png","stimuli/boats_lowercase.png","261"
"html-button-response-mod","271","1218229","0.0-271.0","76098","","","","","","triplet","1149.7000000001863","","","","1","stimuli/fish_uppercase.png","stimuli/bird_lowercase.png","stimuli/tools_uppercase.png","262"
"html-button-response-mod","272","1220700","0.0-272.0","76098","","","","","","triplet","1966.3999999994412","","","","2","stimuli/boats_uppercase.png","stimuli/tree_uppercase.png","stimuli/tools_uppercase.png","263"
"html-button-response-mod","273","1222132","0.0-273.0","76098","","","","","","triplet","924.7999999998137","","","","1","stimuli/stim002_animate_fish_2.png","stimuli/tools_uppercase.png","stimuli/stim013_inanimate_boats_1.png","264"
"html-button-response-mod","274","1223253","0.0-274.0","76098","","","","","","triplet","618","","","","2","stimuli/stim009_animate_face_1.png","stimuli/stim005_animate_bird_1.png","stimuli/fish_uppercase.png","265"
"html-button-response-mod","275","1224609","0.0-275.0","76098","","","","","","triplet","852.7000000001863","","","","2","stimuli/stim019_inanimate_tree_3.png","stimuli/stim002_animate_fish_2.png","stimuli/stim024_inanimate_tools_4.png","266"
"html-button-response-mod","276","1225793","0.0-276.0","76098","","","","","","triplet","680.7999999998137","","","","1","stimuli/stim006_animate_bird_2.png","stimuli/tree_lowercase.png","stimuli/stim021_inanimate_tools_1.png","267"
"html-button-response-mod","277","1226956","0.0-277.0","76098","","","","","","triplet","660.6000000005588","","","","2","stimuli/tools_uppercase.png","stimuli/tools_lowercase.png","stimuli/stim022_inanimate_tools_2.png","268"
"html-button-response-mod","278","1228208","0.0-278.0","76098","","","","","","triplet","748.9000000003725","","","","1","stimuli/boats_uppercase.png","stimuli/stim021_inanimate_tools_1.png","stimuli/face_lowercase.png","269"
"html-button-response-mod","279","1229681","0.0-279.0","76098","","","","","","triplet","954.7000000001863","","","","2","stimuli/stim012_animate_face_4.png","stimuli/stim015_inanimate_boats_3.png","stimuli/face_uppercase.png","270"
"html-button-response-mod","280","1230932","0.0-280.0","76098","","","","","","triplet","739.4000000003725","","","","0","stimuli/stim019_inanimate_tree_3.png","stimuli/boats_uppercase.png","stimuli/tree_uppercase.png","271"
"html-button-response-mod","281","1232221","0.0-281.0","76098","","","","","","triplet","786.0999999996275","","","","1","stimuli/stim018_inanimate_tree_2.png","stimuli/boats_lowercase.png","stimuli/stim013_inanimate_boats_1.png","272"
"html-button-response-mod","282","1234461","0.0-282.0","76098","","","","","","triplet","1721.2999999998137","","","","1","stimuli/stim018_inanimate_tree_2.png","stimuli/fish_lowercase.png","stimuli/stim019_inanimate_tree_3.png","273"
"html-button-response-mod","283","1235981","0.0-283.0","76098","","","","","","triplet","1014.5","","","","0","stimuli/face_uppercase.png","stimuli/stim011_animate_face_3.png","stimuli/stim010_animate_face_2.png","274"
"html-button-response-mod","284","1237384","0.0-284.0","76098","","","","","","triplet","900.8999999994412","","","","1","stimuli/stim020_inanimate_tree_4.png","stimuli/fish_lowercase.png","stimuli/stim017_inanimate_tree_1.png","275"
"html-button-response-mod","285","1238968","0.0-285.0","76098","","","","","","triplet","1079.3999999994412","","","","0","stimuli/stim007_animate_bird_3.png","stimuli/stim017_inanimate_tree_1.png","stimuli/stim018_inanimate_tree_2.png","276"
"html-button-response-mod","286","1240193","0.0-286.0","76098","","","","","","triplet","721.7000000001863","","","","0","stimuli/bird_uppercase.png","stimuli/stim009_animate_face_1.png","stimuli/stim002_animate_fish_2.png","277"
"html-button-response-mod","287","1241556","0.0-287.0","76098","","","","","","triplet","860.3000000007451","","","","0","stimuli/stim006_animate_bird_2.png","stimuli/fish_lowercase.png","stimuli/boats_lowercase.png","278"
"html-button-response-mod","288","1243749","0.0-288.0","76098","","","","","","triplet","1688.9000000003725","","","","0","stimuli/stim008_animate_bird_4.png","stimuli/stim002_animate_fish_2.png","stimuli/stim001_animate_fish_1.png","279"
"html-button-response-mod","289","1244961","0.0-289.0","76098","","","","","","triplet","694.4000000003725","","","","0","stimuli/stim003_animate_fish_3.png","stimuli/boats_lowercase.png","stimuli/tree_uppercase.png","280"
"html-button-response-mod","290","1246640","0.0-290.0","76098","","","","","","triplet","1175.5","","","","2","stimuli/stim017_inanimate_tree_1.png","stimuli/stim005_animate_bird_1.png","stimuli/tools_uppercase.png","281"
"html-button-response-mod","291","1248025","0.0-291.0","76098","","","","","","triplet","868.1000000005588","","","","2","stimuli/tools_lowercase.png","stimuli/tree_lowercase.png","stimuli/stim011_animate_face_3.png","282"
"html-button-response-mod","292","1249405","0.0-292.0","76098","","","","","","triplet","870.3999999994412","","","","1","stimuli/boats_lowercase.png","stimuli/stim017_inanimate_tree_1.png","stimuli/boats_uppercase.png","283"
"html-button-response-mod","293","1251464","0.0-293.0","76098","","","","","","triplet","1556.8999999994412","","","","2","stimuli/stim015_inanimate_boats_3.png","stimuli/stim001_animate_fish_1.png","stimuli/stim021_inanimate_tools_1.png","284"
"html-button-response-mod","294","1252640","0.0-294.0","76098","","","","","","triplet","673.9000000003725","","","","0","stimuli/stim007_animate_bird_3.png","stimuli/bird_lowercase.png","stimuli/stim013_inanimate_boats_1.png","285"
"html-button-response-mod","295","1253658","0.0-295.0","76098","","","","","","triplet","515.2000000001863","","","","0","stimuli/bird_lowercase.png","stimuli/stim009_animate_face_1.png","stimuli/stim002_animate_fish_2.png","286"
"html-button-response-mod","296","1257645","0.0-296.0","76098","","","","","","triplet","3483.0999999996275","","","","0","stimuli/stim001_animate_fish_1.png","stimuli/stim008_animate_bird_4.png","stimuli/stim007_animate_bird_3.png","287"
"html-button-response-mod","297","1258964","0.0-297.0","76098","","","","","","triplet","816.6000000005588","","","","2","stimuli/boats_uppercase.png","stimuli/boats_lowercase.png","stimuli/stim006_animate_bird_2.png","288"
"html-button-response-mod","298","1260512","0.0-298.0","76098","","","","","","triplet","1044.2000000001863","","","","0","stimuli/stim008_animate_bird_4.png","stimuli/boats_lowercase.png","stimuli/tools_uppercase.png","289"
"html-button-response-mod","299","1261801","0.0-299.0","76098","","","","","","triplet","786","","","","1","stimuli/stim018_inanimate_tree_2.png","stimuli/tree_uppercase.png","stimuli/stim017_inanimate_tree_1.png","290"
"html-button-response-mod","300","1263241","0.0-300.0","76098","","","","","","triplet","936.7000000001863","","","","0","stimuli/stim013_inanimate_boats_1.png","stimuli/face_uppercase.png","stimuli/tools_uppercase.png","291"
"html-button-response-mod","301","1265218","0.0-301.0","76098","","","","","","triplet","1435.5","","","","2","stimuli/fish_uppercase.png","stimuli/face_uppercase.png","stimuli/bird_lowercase.png","292"
"html-button-response-mod","302","1266801","0.0-302.0","76098","","","","","","triplet","1035.2999999998137","","","","1","stimuli/bird_uppercase.png","stimuli/tree_lowercase.png","stimuli/boats_uppercase.png","293"
"html-button-response-mod","303","1294767","0.0-303.0","76098","","","","","","triplet","27452.599999999627","","","","1","stimuli/stim010_animate_face_2.png","stimuli/tools_lowercase.png","stimuli/stim002_animate_fish_2.png","294"
"html-button-response-mod","304","1296600","0.0-304.0","76098","","","","","","triplet","1326.4000000003725","","","","1","stimuli/stim004_animate_fish_4.png","stimuli/stim016_inanimate_boats_4.png","stimuli/stim002_animate_fish_2.png","295"
"html-button-response-mod","305","1297849","0.0-305.0","76098","","","","","","triplet","730.8999999994412","","","","1","stimuli/face_lowercase.png","stimuli/stim011_animate_face_3.png","stimuli/tools_uppercase.png","296"
"html-button-response-mod","306","1299657","0.0-306.0","76098","","","","","","triplet","1301.5","","","","0","stimuli/stim009_animate_face_1.png","stimuli/stim015_inanimate_boats_3.png","stimuli/stim019_inanimate_tree_3.png","297"
"html-button-response-mod","307","1301037","0.0-307.0","76098","","","","","","triplet","875.9000000003725","","","","0","stimuli/tree_lowercase.png","stimuli/stim002_animate_fish_2.png","stimuli/stim005_animate_bird_1.png","298"
"html-button-response-mod","308","1302461","0.0-308.0","76098","","","","","","triplet","919.2000000001863","","","","0","stimuli/tree_uppercase.png","stimuli/stim019_inanimate_tree_3.png","stimuli/stim007_animate_bird_3.png","299"
"html-button-response","309","1304256","0.0-309.0","76098","","","","","","break","1293.5","<p>BREAK</p><p>Take a break for as long as you need</p><p>Click the button to continue</p>","0","","","","","",""
"html-button-response-mod","310","1305072","0.0-310.0","76098","","","","","","triplet","814.8000000007451","","","","1","stimuli/boats_lowercase.png","stimuli/stim020_inanimate_tree_4.png","stimuli/bird_uppercase.png","300"
"html-button-response-mod","311","1306317","0.0-311.0","76098","","","","","","triplet","740.5999999996275","","","","1","stimuli/fish_uppercase.png","stimuli/stim013_inanimate_boats_1.png","stimuli/tree_uppercase.png","301"
"html-button-response-mod","312","1307553","0.0-312.0","76098","","","","","","triplet","725.7999999998137","","","","1","stimuli/stim016_inanimate_boats_4.png","stimuli/stim019_inanimate_tree_3.png","stimuli/stim004_animate_fish_4.png","302"
"html-button-response-mod","313","1309081","0.0-313.0","76098","","","","","","triplet","1025","","","","2","stimuli/stim013_inanimate_boats_1.png","stimuli/stim022_inanimate_tools_2.png","stimuli/bird_lowercase.png","303"
"html-button-response-mod","314","1330468","0.0-314.0","76098","","","","","","triplet","20870.900000000373","","","","1","stimuli/stim007_animate_bird_3.png","stimuli/stim013_inanimate_boats_1.png","stimuli/stim020_inanimate_tree_4.png","304"
"html-button-response-mod","315","1331916","0.0-315.0","76098","","","","","","triplet","933.2999999998137","","","","2","stimuli/stim008_animate_bird_4.png","stimuli/stim010_animate_face_2.png","stimuli/tree_uppercase.png","305"
"html-button-response-mod","316","1334356","0.0-316.0","76098","","","","","","triplet","1931","","","","0","stimuli/stim001_animate_fish_1.png","stimuli/stim005_animate_bird_1.png","stimuli/stim007_animate_bird_3.png","306"
"html-button-response-mod","317","1337208","0.0-317.0","76098","","","","","","triplet","2337.2000000001863","","","","1","stimuli/stim013_inanimate_boats_1.png","stimuli/stim017_inanimate_tree_1.png","stimuli/stim001_animate_fish_1.png","307"
"html-button-response-mod","318","1338432","0.0-318.0","76098","","","","","","triplet","719.5999999996275","","","","0","stimuli/bird_lowercase.png","stimuli/stim020_inanimate_tree_4.png","stimuli/stim012_animate_face_4.png","308"
"html-button-response-mod","319","1339733","0.0-319.0","76098","","","","","","triplet","782.2999999998137","","","","0","stimuli/tools_uppercase.png","stimuli/stim010_animate_face_2.png","stimuli/stim011_animate_face_3.png","309"
"html-button-response-mod","320","1340996","0.0-320.0","76098","","","","","","triplet","760.5","","","","2","stimuli/tools_lowercase.png","stimuli/face_uppercase.png","stimuli/stim007_animate_bird_3.png","310"
"html-button-response-mod","321","1342448","0.0-321.0","76098","","","","","","triplet","949.2000000001863","","","","1","stimuli/stim005_animate_bird_1.png","stimuli/stim023_inanimate_tools_3.png","stimuli/stim008_animate_bird_4.png","311"
"html-button-response-mod","322","1343768","0.0-322.0","76098","","","","","","triplet","817.3999999994412","","","","0","stimuli/stim020_inanimate_tree_4.png","stimuli/face_lowercase.png","stimuli/boats_uppercase.png","312"
"html-button-response-mod","323","1345316","0.0-323.0","76098","","","","","","triplet","1033.5999999996275","","","","1","stimuli/stim012_animate_face_4.png","stimuli/boats_uppercase.png","stimuli/stim019_inanimate_tree_3.png","313"
"html-button-response-mod","324","1346504","0.0-324.0","76098","","","","","","triplet","683","","","","2","stimuli/face_uppercase.png","stimuli/boats_lowercase.png","stimuli/stim013_inanimate_boats_1.png","314"
"html-button-response-mod","325","1347896","0.0-325.0","76098","","","","","","triplet","883.0999999996275","","","","2","stimuli/stim013_inanimate_boats_1.png","stimuli/stim022_inanimate_tools_2.png","stimuli/tools_lowercase.png","315"
"html-button-response-mod","326","1350260","0.0-326.0","76098","","","","","","triplet","1861.5999999996275","","","","0","stimuli/bird_lowercase.png","stimuli/stim012_animate_face_4.png","stimuli/stim016_inanimate_boats_4.png","316"
"html-button-response-mod","327","1351472","0.0-327.0","76098","","","","","","triplet","709.2000000001863","","","","2","stimuli/stim009_animate_face_1.png","stimuli/stim023_inanimate_tools_3.png","stimuli/fish_uppercase.png","317"
"html-button-response-mod","328","1353337","0.0-328.0","76098","","","","","","triplet","1348.2999999998137","","","","0","stimuli/stim008_animate_bird_4.png","stimuli/face_lowercase.png","stimuli/face_uppercase.png","318"
"html-button-response-mod","329","1354608","0.0-329.0","76098","","","","","","triplet","767.8999999994412","","","","2","stimuli/tree_uppercase.png","stimuli/bird_lowercase.png","stimuli/stim019_inanimate_tree_3.png","319"
"html-button-response-mod","330","1355713","0.0-330.0","76098","","","","","","triplet","598","","","","0","stimuli/stim008_animate_bird_4.png","stimuli/boats_uppercase.png","stimuli/bird_uppercase.png","320"
"html-button-response-mod","331","1356928","0.0-331.0","76098","","","","","","triplet","712.5999999996275","","","","0","stimuli/stim012_animate_face_4.png","stimuli/fish_uppercase.png","stimuli/tools_uppercase.png","321"
"html-button-response-mod","332","1358308","0.0-332.0","76098","","","","","","triplet","877","","","","1","stimuli/tree_uppercase.png","stimuli/stim017_inanimate_tree_1.png","stimuli/bird_lowercase.png","322"
"html-button-response-mod","333","1359424","0.0-333.0","76098","","","","","","triplet","613.2999999998137","","","","2","stimuli/face_lowercase.png","stimuli/bird_uppercase.png","stimuli/stim018_inanimate_tree_2.png","323"
"html-button-response-mod","334","1360984","0.0-334.0","76098","","","","","","triplet","1056.2999999998137","","","","2","stimuli/stim020_inanimate_tree_4.png","stimuli/stim001_animate_fish_1.png","stimuli/face_uppercase.png","324"
"html-button-response-mod","335","1362124","0.0-335.0","76098","","","","","","triplet","637.7999999998137","","","","2","stimuli/stim023_inanimate_tools_3.png","stimuli/stim021_inanimate_tools_1.png","stimuli/face_uppercase.png","325"
"html-button-response-mod","336","1363272","0.0-336.0","76098","","","","","","triplet","634.2999999998137","","","","2","stimuli/tree_lowercase.png","stimuli/tools_uppercase.png","stimuli/stim023_inanimate_tools_3.png","326"
"html-button-response-mod","337","1364788","0.0-337.0","76098","","","","","","triplet","1013.7000000001863","","","","2","stimuli/stim007_animate_bird_3.png","stimuli/stim003_animate_fish_3.png","stimuli/boats_uppercase.png","327"
"html-button-response-mod","338","1365968","0.0-338.0","76098","","","","","","triplet","676.5","","","","0","stimuli/boats_uppercase.png","stimuli/stim002_animate_fish_2.png","stimuli/stim001_animate_fish_1.png","328"
"html-button-response-mod","339","1367100","0.0-339.0","76098","","","","","","triplet","628.5","","","","0","stimuli/tree_uppercase.png","stimuli/stim021_inanimate_tools_1.png","stimuli/stim003_animate_fish_3.png","329"
"html-button-response-mod","340","1368768","0.0-340.0","76098","","","","","","triplet","1164.8999999994412","","","","2","stimuli/stim022_inanimate_tools_2.png","stimuli/stim001_animate_fish_1.png","stimuli/stim018_inanimate_tree_2.png","330"
"html-button-response-mod","341","1370128","0.0-341.0","76098","","","","","","triplet","857.3999999994412","","","","0","stimuli/bird_uppercase.png","stimuli/stim020_inanimate_tree_4.png","stimuli/stim009_animate_face_1.png","331"
"html-button-response-mod","342","1371400","0.0-342.0","76098","","","","","","triplet","769.4000000003725","","","","2","stimuli/fish_uppercase.png","stimuli/fish_lowercase.png","stimuli/stim003_animate_fish_3.png","332"
"html-button-response-mod","343","1372812","0.0-343.0","76098","","","","","","triplet","908.0999999996275","","","","0","stimuli/stim008_animate_bird_4.png","stimuli/bird_lowercase.png","stimuli/tools_lowercase.png","333"
"html-button-response-mod","344","1374488","0.0-344.0","76098","","","","","","triplet","1172.4000000003725","","","","2","stimuli/stim010_animate_face_2.png","stimuli/stim012_animate_face_4.png","stimuli/stim022_inanimate_tools_2.png","334"
"html-button-response-mod","345","1375728","0.0-345.0","76098","","","","","","triplet","736.2000000001863","","","","2","stimuli/stim009_animate_face_1.png","stimuli/stim016_inanimate_boats_4.png","stimuli/tools_uppercase.png","335"
"html-button-response-mod","346","1377068","0.0-346.0","76098","","","","","","triplet","837.5999999996275","","","","0","stimuli/face_lowercase.png","stimuli/stim016_inanimate_boats_4.png","stimuli/stim001_animate_fish_1.png","336"
"html-button-response-mod","347","1378800","0.0-347.0","76098","","","","","","triplet","1228.7999999998137","","","","0","stimuli/face_uppercase.png","stimuli/stim021_inanimate_tools_1.png","stimuli/stim018_inanimate_tree_2.png","337"
"html-button-response-mod","348","1381192","0.0-348.0","76098","","","","","","triplet","1888.7000000001863","","","","0","stimuli/stim018_inanimate_tree_2.png","stimuli/stim014_inanimate_boats_2.png","stimuli/stim008_animate_bird_4.png","338"
"html-button-response-mod","349","1382576","0.0-349.0","76098","","","","","","triplet","880.5","","","","2","stimuli/stim005_animate_bird_1.png","stimuli/stim019_inanimate_tree_3.png","stimuli/stim024_inanimate_tools_4.png","339"
"html-button-response-mod","350","1383880","0.0-350.0","76098","","","","","","triplet","800.2999999998137","","","","2","stimuli/stim015_inanimate_boats_3.png","stimuli/stim009_animate_face_1.png","stimuli/face_lowercase.png","340"
"html-button-response-mod","351","1388544","0.0-351.0","76098","","","","","","triplet","4160.4000000003725","","","","1","stimuli/face_uppercase.png","stimuli/tools_uppercase.png","stimuli/tree_uppercase.png","341"
"html-button-response-mod","352","1389965","0.0-352.0","76098","","","","","","triplet","908.0999999996275","","","","1","stimuli/stim011_animate_face_3.png","stimuli/face_lowercase.png","stimuli/stim021_inanimate_tools_1.png","342"
"html-button-response-mod","353","1392017","0.0-353.0","76098","","","","","","triplet","1549","","","","1","stimuli/stim005_animate_bird_1.png","stimuli/face_uppercase.png","stimuli/stim023_inanimate_tools_3.png","343"
"html-button-response-mod","354","1395108","0.0-354.0","76098","","","","","","triplet","2588.300000000745","","","","0","stimuli/stim012_animate_face_4.png","stimuli/stim003_animate_fish_3.png","stimuli/stim008_animate_bird_4.png","344"
"html-button-response-mod","355","1396328","0.0-355.0","76098","","","","","","triplet","716.8999999994412","","","","2","stimuli/stim013_inanimate_boats_1.png","stimuli/stim021_inanimate_tools_1.png","stimuli/stim019_inanimate_tree_3.png","345"
"html-button-response-mod","356","1397700","0.0-356.0","76098","","","","","","triplet","868.1999999992549","","","","0","stimuli/bird_lowercase.png","stimuli/face_uppercase.png","stimuli/stim021_inanimate_tools_1.png","346"
"html-button-response-mod","357","1398936","0.0-357.0","76098","","","","","","triplet","731.7999999998137","","","","2","stimuli/boats_lowercase.png","stimuli/stim003_animate_fish_3.png","stimuli/stim022_inanimate_tools_2.png","347"
"html-button-response-mod","358","1401360","0.0-358.0","76098","","","","","","triplet","1912.8999999994412","","","","0","stimuli/stim008_animate_bird_4.png","stimuli/stim004_animate_fish_4.png","stimuli/stim003_animate_fish_3.png","348"
"html-button-response-mod","359","1403792","0.0-359.0","76098","","","","","","triplet","1923.5999999996275","","","","0","stimuli/stim007_animate_bird_3.png","stimuli/stim013_inanimate_boats_1.png","stimuli/stim017_inanimate_tree_1.png","349"
"html-button-response","360","1405864","0.0-360.0","76098","","","","","","break","1570.5","<p>BREAK</p><p>Take a break for as long as you need</p><p>Click the button to continue</p>","0","","","","","",""
"html-button-response-mod","361","1407304","0.0-361.0","76098","","","","","","triplet","1438.8999999994412","","","","1","stimuli/stim013_inanimate_boats_1.png","stimuli/face_lowercase.png","stimuli/stim003_animate_fish_3.png","350"
"html-button-response-mod","362","1408656","0.0-362.0","76098","","","","","","triplet","841.2999999998137","","","","1","stimuli/face_uppercase.png","stimuli/stim017_inanimate_tree_1.png","stimuli/bird_uppercase.png","351"
"html-button-response-mod","363","1411572","0.0-363.0","76098","","","","","","triplet","2404.7999999998137","","","","1","stimuli/stim010_animate_face_2.png","stimuli/face_uppercase.png","stimuli/stim013_inanimate_boats_1.png","352"
"html-button-response-mod","364","1412865","0.0-364.0","76098","","","","","","triplet","781.2999999998137","","","","0","stimuli/fish_lowercase.png","stimuli/face_uppercase.png","stimuli/fish_uppercase.png","353"
"html-button-response-mod","365","1417640","0.0-365.0","76098","","","","","","triplet","4272.0999999996275","","","","0","stimuli/tree_lowercase.png","stimuli/bird_lowercase.png","stimuli/face_lowercase.png","354"
"html-button-response-mod","366","1418944","0.0-366.0","76098","","","","","","triplet","799.8999999994412","","","","1","stimuli/stim005_animate_bird_1.png","stimuli/fish_lowercase.png","stimuli/stim021_inanimate_tools_1.png","355"
"html-button-response-mod","367","1420472","0.0-367.0","76098","","","","","","triplet","1025","","","","2","stimuli/stim003_animate_fish_3.png","stimuli/stim024_inanimate_tools_4.png","stimuli/tools_uppercase.png","356"
"html-button-response-mod","368","1422168","0.0-368.0","76098","","","","","","triplet","1192.4000000003725","","","","1","stimuli/bird_lowercase.png","stimuli/stim018_inanimate_tree_2.png","stimuli/stim012_animate_face_4.png","357"
"html-button-response-mod","369","1423616","0.0-369.0","76098","","","","","","triplet","943.5","","","","2","stimuli/stim012_animate_face_4.png","stimuli/stim005_animate_bird_1.png","stimuli/tools_uppercase.png","358"
"html-button-response-mod","370","1425064","0.0-370.0","76098","","","","","","triplet","930.9000000003725","","","","1","stimuli/stim018_inanimate_tree_2.png","stimuli/bird_uppercase.png","stimuli/stim014_inanimate_boats_2.png","359"
"html-button-response-mod","371","1427000","0.0-371.0","76098","","","","","","triplet","1432.6000000005588","","","","0","stimuli/tree_uppercase.png","stimuli/stim004_animate_fish_4.png","stimuli/stim015_inanimate_boats_3.png","360"
"html-button-response-mod","372","1428444","0.0-372.0","76098","","","","","","triplet","939.5999999996275","","","","0","stimuli/boats_lowercase.png","stimuli/stim014_inanimate_boats_2.png","stimuli/stim020_inanimate_tree_4.png","361"
"html-button-response-mod","373","1430628","0.0-373.0","76098","","","","","","triplet","1681","","","","1","stimuli/face_uppercase.png","stimuli/stim015_inanimate_boats_3.png","stimuli/tools_uppercase.png","362"
"html-button-response-mod","374","1432520","0.0-374.0","76098","","","","","","triplet","1374.8999999994412","","","","2","stimuli/stim004_animate_fish_4.png","stimuli/stim022_inanimate_tools_2.png","stimuli/face_lowercase.png","363"
"html-button-response-mod","375","1434432","0.0-375.0","76098","","","","","","triplet","1402.2999999998137","","","","2","stimuli/stim001_animate_fish_1.png","stimuli/stim008_animate_bird_4.png","stimuli/stim010_animate_face_2.png","364"
"html-button-response-mod","376","1436080","0.0-376.0","76098","","","","","","triplet","1145.0999999996275","","","","1","stimuli/stim023_inanimate_tools_3.png","stimuli/fish_uppercase.png","stimuli/stim016_inanimate_boats_4.png","365"
"html-button-response-mod","377","1439290","0.0-377.0","76098","","","","","","triplet","2693","","","","1","stimuli/stim018_inanimate_tree_2.png","stimuli/stim016_inanimate_boats_4.png","stimuli/stim007_animate_bird_3.png","366"
"html-button-response-mod","378","1441464","0.0-378.0","76098","","","","","","triplet","1671.199999999255","","","","0","stimuli/stim023_inanimate_tools_3.png","stimuli/stim017_inanimate_tree_1.png","stimuli/tree_uppercase.png","367"
"html-button-response-mod","379","1442992","0.0-379.0","76098","","","","","","triplet","1024.3999999994412","","","","1","stimuli/tools_lowercase.png","stimuli/stim011_animate_face_3.png","stimuli/stim010_animate_face_2.png","368"
"html-button-response-mod","380","1444364","0.0-380.0","76098","","","","","","triplet","863.5","","","","2","stimuli/face_lowercase.png","stimuli/tools_uppercase.png","stimuli/stim018_inanimate_tree_2.png","369"
"html-button-response-mod","381","1445557","0.0-381.0","76098","","","","","","triplet","689","","","","2","stimuli/fish_uppercase.png","stimuli/tree_uppercase.png","stimuli/stim023_inanimate_tools_3.png","370"
"html-button-response-mod","382","1446886","0.0-382.0","76098","","","","","","triplet","826.0999999996275","","","","1","stimuli/face_lowercase.png","stimuli/stim003_animate_fish_3.png","stimuli/tools_uppercase.png","371"
"html-button-response-mod","383","1450593","0.0-383.0","76098","","","","","","triplet","3203.0999999996275","","","","2","stimuli/stim024_inanimate_tools_4.png","stimuli/stim016_inanimate_boats_4.png","stimuli/stim001_animate_fish_1.png","372"
"html-button-response-mod","384","1452561","0.0-384.0","76098","","","","","","triplet","1465.6000000005588","","","","1","stimuli/fish_lowercase.png","stimuli/stim024_inanimate_tools_4.png","stimuli/stim001_animate_fish_1.png","373"
"html-button-response-mod","385","1454289","0.0-385.0","76098","","","","","","triplet","1224.7999999998137","","","","2","stimuli/tools_lowercase.png","stimuli/stim023_inanimate_tools_3.png","stimuli/face_lowercase.png","374"
"html-button-response-mod","386","1455920","0.0-386.0","76098","","","","","","triplet","1129.4000000003725","","","","0","stimuli/face_uppercase.png","stimuli/stim014_inanimate_boats_2.png","stimuli/boats_uppercase.png","375"
"html-button-response-mod","387","1457584","0.0-387.0","76098","","","","","","triplet","1161.2999999998137","","","","1","stimuli/stim014_inanimate_boats_2.png","stimuli/stim003_animate_fish_3.png","stimuli/stim016_inanimate_boats_4.png","376"
"html-button-response-mod","388","1459561","0.0-388.0","76098","","","","","","triplet","1474","","","","0","stimuli/bird_lowercase.png","stimuli/stim015_inanimate_boats_3.png","stimuli/stim012_animate_face_4.png","377"
"html-button-response-mod","389","1460665","0.0-389.0","76098","","","","","","triplet","601.5","","","","0","stimuli/tools_lowercase.png","stimuli/stim013_inanimate_boats_1.png","stimuli/stim016_inanimate_boats_4.png","378"
"html-button-response-mod","390","1461828","0.0-390.0","76098","","","","","","triplet","660.5","","","","0","stimuli/stim003_animate_fish_3.png","stimuli/tree_lowercase.png","stimuli/face_lowercase.png","379"
"html-button-response-mod","391","1463293","0.0-391.0","76098","","","","","","triplet","956.7000000001863","","","","1","stimuli/stim010_animate_face_2.png","stimuli/boats_uppercase.png","stimuli/stim020_inanimate_tree_4.png","380"
"html-button-response-mod","392","1464957","0.0-392.0","76098","","","","","","triplet","1161","","","","0","stimuli/face_uppercase.png","stimuli/stim015_inanimate_boats_3.png","stimuli/stim008_animate_bird_4.png","381"
"html-button-response-mod","393","1466576","0.0-393.0","76098","","","","","","triplet","1107","","","","1","stimuli/tree_uppercase.png","stimuli/stim024_inanimate_tools_4.png","stimuli/bird_uppercase.png","382"
"html-button-response-mod","394","1468529","0.0-394.0","76098","","","","","","triplet","1435.3999999994412","","","","0","stimuli/stim002_animate_fish_2.png","stimuli/tree_lowercase.png","stimuli/face_lowercase.png","383"
"html-button-response-mod","395","1471744","0.0-395.0","76098","","","","","","triplet","2711.7999999998137","","","","2","stimuli/stim007_animate_bird_3.png","stimuli/stim012_animate_face_4.png","stimuli/fish_lowercase.png","384"
"html-button-response-mod","396","1475745","0.0-396.0","76098","","","","","","triplet","3497.0999999996275","","","","1","stimuli/stim006_animate_bird_2.png","stimuli/fish_uppercase.png","stimuli/stim016_inanimate_boats_4.png","385"
"html-button-response-mod","397","1477377","0.0-397.0","76098","","","","","","triplet","1126.2000000001863","","","","2","stimuli/boats_uppercase.png","stimuli/bird_uppercase.png","stimuli/face_uppercase.png","386"
"html-button-response-mod","398","1479169","0.0-398.0","76098","","","","","","triplet","1282.0999999996275","","","","2","stimuli/stim003_animate_fish_3.png","stimuli/fish_lowercase.png","stimuli/tools_uppercase.png","387"
"html-button-response-mod","399","1480745","0.0-399.0","76098","","","","","","triplet","1067.8999999994412","","","","2","stimuli/tools_lowercase.png","stimuli/boats_uppercase.png","stimuli/stim003_animate_fish_3.png","388"
"html-button-response-mod","400","1482389","0.0-400.0","76098","","","","","","triplet","1137","","","","2","stimuli/fish_lowercase.png","stimuli/fish_uppercase.png","stimuli/stim007_animate_bird_3.png","389"
"html-button-response-mod","401","1484585","0.0-401.0","76098","","","","","","triplet","1693.4000000003725","","","","1","stimuli/stim003_animate_fish_3.png","stimuli/boats_uppercase.png","stimuli/stim019_inanimate_tree_3.png","390"
"html-button-response-mod","402","1486249","0.0-402.0","76098","","","","","","triplet","1149","","","","1","stimuli/stim011_animate_face_3.png","stimuli/stim023_inanimate_tools_3.png","stimuli/face_lowercase.png","391"
"html-button-response-mod","403","1487781","0.0-403.0","76098","","","","","","triplet","1020.3999999994412","","","","2","stimuli/stim003_animate_fish_3.png","stimuli/stim017_inanimate_tree_1.png","stimuli/stim013_inanimate_boats_1.png","392"
"html-button-response-mod","404","1489153","0.0-404.0","76098","","","","","","triplet","862.7999999998137","","","","1","stimuli/stim009_animate_face_1.png","stimuli/tree_lowercase.png","stimuli/stim021_inanimate_tools_1.png","393"
"html-button-response-mod","405","1490869","0.0-405.0","76098","","","","","","triplet","1204.2000000001863","","","","2","stimuli/stim013_inanimate_boats_1.png","stimuli/stim020_inanimate_tree_4.png","stimuli/stim008_animate_bird_4.png","394"
"html-button-response-mod","406","1492297","0.0-406.0","76098","","","","","","triplet","913.0999999996275","","","","1","stimuli/stim001_animate_fish_1.png","stimuli/tree_lowercase.png","stimuli/stim015_inanimate_boats_3.png","395"
"html-button-response-mod","407","1493861","0.0-407.0","76098","","","","","","triplet","1053.9000000003725","","","","0","stimuli/stim003_animate_fish_3.png","stimuli/tree_lowercase.png","stimuli/boats_lowercase.png","396"
"html-button-response-mod","408","1495489","0.0-408.0","76098","","","","","","triplet","1124.2000000001863","","","","2","stimuli/stim017_inanimate_tree_1.png","stimuli/stim020_inanimate_tree_4.png","stimuli/stim024_inanimate_tools_4.png","397"
"html-button-response-mod","409","1496701","0.0-409.0","76098","","","","","","triplet","708.6999999992549","","","","1","stimuli/tree_lowercase.png","stimuli/stim022_inanimate_tools_2.png","stimuli/face_uppercase.png","398"
"html-button-response-mod","410","1499185","0.0-410.0","76098","","","","","","triplet","1980.2999999998137","","","","1","stimuli/fish_lowercase.png","stimuli/stim005_animate_bird_1.png","stimuli/face_lowercase.png","399"
"html-button-response","411","1502649","0.0-411.0","76098","","","","","","break","2961.399999999441","<p>BREAK</p><p>Take a break for as long as you need</p><p>Click the button to continue</p>","0","","","","","",""
"survey-text","412","1519215","0.0-412.0","76098","","","","","","data_patterns","16560.5","","{""Q0"":""Text vs images""}","","","","","",""
"survey-text","413","1521924","0.0-413.0","76098","","","","","","age_question","2705.199999999255","","{""Age"":""25""}","","","","","",""
"html-button-response","414","1523268","0.0-414.0","76098","","","","","","gender_question","1341","How would you like your gender to be recorded?","0","","","","","",""
"html-button-response","415","1524580","0.0-415.0","76098","","","","","","debrief","1309.7000000001863","<p> Thank you for participating in this experiment! </p><p> We are investigating the dimensions along which you perceive the world </p><p>The images were all sorted according to whether they are animate or not, and </p><p> whether they are text or images. We are comparing this to some neuroimaging data to see </p> how your conscious classification relates to how your brain classifies the objects automatically. </p>","0","1528709.5","","","","",""
