"trial_type","trial_index","time_elapsed","internal_node_id","subject","success","timeout","failed_images","failed_audio","failed_video","test_part","rt","stimulus","response","end_time","button_pressed","stim0","stim1","stim2","trialnr"
"pavlovia","0","28","0.0-0.0","76490","","","","","","","","","","","","","","",""
"preload","1","13639","0.0-1.0","76490","true","false","[]","[]","[]","preload","","","","","","","","",""
"html-button-response","2","97110","0.0-2.0","76490","","","","","","","83465.90000009537","<p>Welcome to the experiment. To begin, please read the following and press the button at the bottom of the screen.</p><p></p><p><strong>Project Name: A study on cognitive processes involved in visual perception</p></strong><p></p><p><strong>PARTICIPANT INFORMATION STATEMENT</strong></p><p></p><strong>(1) What is the study about?</strong><br>You are invited to participate in a study that investigates the cognitive processes involved in perceiving and recognizing visual stimuli.If you decide to participate, you will be asked to complete a task in which you will view pictures, letters, numbers, or words presented on a computer screen.<br><strong>(2) Who can participate?</strong><br>Anyone aged 18 years or over with access to a computer (not a phone/tablet)<br><strong>(3) Where is the study located?</strong><br>The study will be conducted in your browser<br><strong>(4) Who is carrying out the study?</strong><br>The study is being conducted by Sophia Shatek from the Computational Cognitive Neuroscience laboratory at the University of Sydney.<br><strong>(5) What does the study involve?</strong><br>In this study, you will be asked to perform tasks where you will see different stimuli appear on the computer screen.You will respond by pressing a key or using a computer mouse.<br><strong>(6) How much time will the study take?</strong><br>The study takes about 30 minutes<br><strong>(7)	Can I withdraw from the study?</strong><br>Being in this study is completely voluntary - you are not under any obligation to consent. You can withdraw at any time without having to give a reason and without penalty.<br><strong>(8) Will anyone else know the results?</strong><br>All aspects of the study, including results, will be strictly confidential and only the researchers will have access to information on participants.The results and data from the study may be submitted for publication or shared with other research labs, but individual participants will not be identifiable.<br><strong>(9) Will the study benefit me?</strong><br>You will be awarded 0.5 credits for your participation.<br><strong>(10) Can I tell other people about the study?</strong><br>Yes, please tell them to contact Dr Thomas Carlson by email at thomas.carlson@sydney.edu.au.<br><strong>(11) What if I require further information about the study or my involvement in it?</strong><br>When you have read this information, the investigator will discuss it with you further and answer any questions you may have.If you would like to know more at any stage, please feel free to contact Dr Thomas Carlson directly by email at thomas.carlson@sydney.edu.au.If you would like to be informed about the outcomes of the study, contact Dr Thomas Carlson directly by email at thomas.carlson@sydney.edu.au.<br><strong>(12) What if I have a complaint or any concerns?</strong><br>Any person with concerns or complaints about the conduct of a research study can contact The Manager,Human Ethics Administration, University of Sydney on +61 2 8627 8176 (Telephone); +61 2 8627 8177 (Facsimile) or ro.humanethics@sydney.edu.au (Email).</p><p></p><strong>By participating in this experiment, you consent to participate in this study and acknowledge that:</strong><br>1. The procedures required for the project and the times involved have been explained to me, and any questions I have about the project have been answered to my satisfaction.<br>2.	I have read the Above Information Statement and have been given the opportunity to discuss the information and my involvement in the project with the researcher/s.<br>3. I understand that allowing my data to be used in research reports is completely voluntary - I am not under any obligation to consent.<br>4. I understand that my involvement is strictly confidential. I understand that any research data gathered from the results of the study may be publishedhowever no information about me will be used in any way that is identifiable.</p><p></p>","0","","","","","",""
"html-button-response","3","103000","0.0-3.0","76490","","","","","","opening_instructions","5884.600000143051","<p>In this experiment, you will see three images appear on the screen.</p><p>You need to click the 'odd one out', or the image </p><p>that LOOKS MOST DIFFERENT to the other two. </p><p>Just go with your intuition, don't spend too long thinking about each one.</p>","0","109859.29999995232","","","","",""
"html-button-response-mod","4","105858","0.0-4.0","76490","","","","","","triplet","2854.2000000476837","","","","1","stimuli/stim005_animate_bird_1.png","stimuli/tree_uppercase.png","stimuli/fish_uppercase.png","0"
"html-button-response-mod","5","107804","0.0-5.0","76490","","","","","","triplet","1440","","","","0","stimuli/stim004_animate_fish_4.png","stimuli/stim024_inanimate_tools_4.png","stimuli/stim021_inanimate_tools_1.png","1"
"html-button-response-mod","6","109288","0.0-6.0","76490","","","","","","triplet","978.8999998569489","","","","1","stimuli/stim007_animate_bird_3.png","stimuli/tree_lowercase.png","stimuli/stim001_animate_fish_1.png","2"
"html-button-response-mod","7","111347","0.0-7.0","76490","","","","","","triplet","1556","","","","2","stimuli/stim023_inanimate_tools_3.png","stimuli/stim021_inanimate_tools_1.png","stimuli/stim019_inanimate_tree_3.png","3"
"html-button-response-mod","8","113428","0.0-8.0","76490","","","","","","triplet","1578.5","","","","2","stimuli/tree_uppercase.png","stimuli/fish_uppercase.png","stimuli/stim012_animate_face_4.png","4"
"html-button-response-mod","9","115983","0.0-9.0","76490","","","","","","triplet","2046.1999998092651","","","","2","stimuli/stim022_inanimate_tools_2.png","stimuli/stim016_inanimate_boats_4.png","stimuli/stim003_animate_fish_3.png","5"
"html-button-response-mod","10","118144","0.0-10.0","76490","","","","","","triplet","1646.7000000476837","","","","2","stimuli/stim021_inanimate_tools_1.png","stimuli/stim023_inanimate_tools_3.png","stimuli/stim007_animate_bird_3.png","6"
"html-button-response-mod","11","120145","0.0-11.0","76490","","","","","","triplet","1494.3000001907349","","","","1","stimuli/fish_lowercase.png","stimuli/stim009_animate_face_1.png","stimuli/stim002_animate_fish_2.png","7"
"html-button-response-mod","12","123958","0.0-12.0","76490","","","","","","triplet","3298.5","","","","1","stimuli/boats_uppercase.png","stimuli/stim005_animate_bird_1.png","stimuli/tree_uppercase.png","8"
"html-button-response-mod","13","128604","0.0-13.0","76490","","","","","","triplet","4137.599999904633","","","","2","stimuli/face_uppercase.png","stimuli/tools_lowercase.png","stimuli/stim008_animate_bird_4.png","9"
"html-button-response-mod","14","131000","0.0-14.0","76490","","","","","","triplet","1880.7000000476837","","","","2","stimuli/stim020_inanimate_tree_4.png","stimuli/stim002_animate_fish_2.png","stimuli/face_uppercase.png","10"
"html-button-response-mod","15","133418","0.0-15.0","76490","","","","","","triplet","1911.7999999523163","","","","1","stimuli/tools_lowercase.png","stimuli/face_uppercase.png","stimuli/stim014_inanimate_boats_2.png","11"
"html-button-response-mod","16","135309","0.0-16.0","76490","","","","","","triplet","1383.2999999523163","","","","2","stimuli/boats_lowercase.png","stimuli/stim015_inanimate_boats_3.png","stimuli/stim001_animate_fish_1.png","12"
"html-button-response-mod","17","138459","0.0-17.0","76490","","","","","","triplet","2645.5999999046326","","","","0","stimuli/face_lowercase.png","stimuli/boats_uppercase.png","stimuli/tools_uppercase.png","13"
"html-button-response-mod","18","141743","0.0-18.0","76490","","","","","","triplet","2772.5999999046326","","","","0","stimuli/stim010_animate_face_2.png","stimuli/tools_lowercase.png","stimuli/stim023_inanimate_tools_3.png","14"
"html-button-response-mod","19","143297","0.0-19.0","76490","","","","","","triplet","1041","","","","1","stimuli/stim018_inanimate_tree_2.png","stimuli/stim011_animate_face_3.png","stimuli/stim020_inanimate_tree_4.png","15"
"html-button-response-mod","20","144893","0.0-20.0","76490","","","","","","triplet","1093.9000000953674","","","","1","stimuli/tree_lowercase.png","stimuli/stim024_inanimate_tools_4.png","stimuli/stim017_inanimate_tree_1.png","16"
"html-button-response-mod","21","147560","0.0-21.0","76490","","","","","","triplet","2152.2999999523163","","","","2","stimuli/stim019_inanimate_tree_3.png","stimuli/stim024_inanimate_tools_4.png","stimuli/stim009_animate_face_1.png","17"
"html-button-response-mod","22","152791","0.0-22.0","76490","","","","","","triplet","4722.200000047684","","","","2","stimuli/bird_lowercase.png","stimuli/stim023_inanimate_tools_3.png","stimuli/stim009_animate_face_1.png","18"
"html-button-response-mod","23","155254","0.0-23.0","76490","","","","","","triplet","1954","","","","2","stimuli/stim022_inanimate_tools_2.png","stimuli/stim014_inanimate_boats_2.png","stimuli/stim012_animate_face_4.png","19"
"html-button-response-mod","24","158010","0.0-24.0","76490","","","","","","triplet","2240.5","","","","2","stimuli/stim010_animate_face_2.png","stimuli/face_lowercase.png","stimuli/stim023_inanimate_tools_3.png","20"
"html-button-response-mod","25","160815","0.0-25.0","76490","","","","","","triplet","2300.600000143051","","","","0","stimuli/stim017_inanimate_tree_1.png","stimuli/stim007_animate_bird_3.png","stimuli/stim001_animate_fish_1.png","21"
"html-button-response-mod","26","162735","0.0-26.0","76490","","","","","","triplet","1415.7000000476837","","","","2","stimuli/stim017_inanimate_tree_1.png","stimuli/stim004_animate_fish_4.png","stimuli/boats_lowercase.png","22"
"html-button-response-mod","27","165031","0.0-27.0","76490","","","","","","triplet","1793.5","","","","2","stimuli/stim023_inanimate_tools_3.png","stimuli/stim021_inanimate_tools_1.png","stimuli/stim008_animate_bird_4.png","23"
"html-button-response-mod","28","167269","0.0-28.0","76490","","","","","","triplet","1725.2999999523163","","","","2","stimuli/stim018_inanimate_tree_2.png","stimuli/bird_uppercase.png","stimuli/stim011_animate_face_3.png","24"
"html-button-response-mod","29","170779","0.0-29.0","76490","","","","","","triplet","2994.199999809265","","","","2","stimuli/stim018_inanimate_tree_2.png","stimuli/stim002_animate_fish_2.png","stimuli/stim012_animate_face_4.png","25"
"html-button-response-mod","30","174682","0.0-30.0","76490","","","","","","triplet","3395.2000000476837","","","","0","stimuli/stim015_inanimate_boats_3.png","stimuli/stim023_inanimate_tools_3.png","stimuli/tree_lowercase.png","26"
"html-button-response-mod","31","177214","0.0-31.0","76490","","","","","","triplet","2028.0999999046326","","","","0","stimuli/stim010_animate_face_2.png","stimuli/stim016_inanimate_boats_4.png","stimuli/stim021_inanimate_tools_1.png","27"
"html-button-response-mod","32","178867","0.0-32.0","76490","","","","","","triplet","1138.8999998569489","","","","0","stimuli/stim023_inanimate_tools_3.png","stimuli/stim009_animate_face_1.png","stimuli/stim010_animate_face_2.png","28"
"html-button-response-mod","33","180858","0.0-33.0","76490","","","","","","triplet","1474.8999998569489","","","","2","stimuli/stim007_animate_bird_3.png","stimuli/stim010_animate_face_2.png","stimuli/stim018_inanimate_tree_2.png","29"
"html-button-response-mod","34","182376","0.0-34.0","76490","","","","","","triplet","1009.0999999046326","","","","2","stimuli/stim007_animate_bird_3.png","stimuli/stim008_animate_bird_4.png","stimuli/stim024_inanimate_tools_4.png","30"
"html-button-response-mod","35","184795","0.0-35.0","76490","","","","","","triplet","1908.3999998569489","","","","1","stimuli/stim017_inanimate_tree_1.png","stimuli/stim001_animate_fish_1.png","stimuli/stim024_inanimate_tools_4.png","31"
"html-button-response-mod","36","186236","0.0-36.0","76490","","","","","","triplet","932","","","","2","stimuli/stim019_inanimate_tree_3.png","stimuli/stim020_inanimate_tree_4.png","stimuli/stim013_inanimate_boats_1.png","32"
"html-button-response-mod","37","187566","0.0-37.0","76490","","","","","","triplet","825.7000000476837","","","","2","stimuli/stim009_animate_face_1.png","stimuli/stim011_animate_face_3.png","stimuli/bird_uppercase.png","33"
"html-button-response-mod","38","189745","0.0-38.0","76490","","","","","","triplet","1666","","","","1","stimuli/tools_lowercase.png","stimuli/stim002_animate_fish_2.png","stimuli/tree_uppercase.png","34"
"html-button-response-mod","39","192491","0.0-39.0","76490","","","","","","triplet","2227.5","","","","1","stimuli/stim011_animate_face_3.png","stimuli/bird_uppercase.png","stimuli/stim019_inanimate_tree_3.png","35"
"html-button-response-mod","40","194762","0.0-40.0","76490","","","","","","triplet","1769.0999999046326","","","","1","stimuli/boats_lowercase.png","stimuli/bird_uppercase.png","stimuli/face_lowercase.png","36"
"html-button-response-mod","41","197473","0.0-41.0","76490","","","","","","triplet","2193.2999999523163","","","","0","stimuli/stim024_inanimate_tools_4.png","stimuli/stim017_inanimate_tree_1.png","stimuli/stim002_animate_fish_2.png","37"
"html-button-response-mod","42","199003","0.0-42.0","76490","","","","","","triplet","1014.2999999523163","","","","0","stimuli/boats_uppercase.png","stimuli/stim003_animate_fish_3.png","stimuli/stim017_inanimate_tree_1.png","38"
"html-button-response-mod","43","200376","0.0-43.0","76490","","","","","","triplet","854.2999999523163","","","","2","stimuli/stim006_animate_bird_2.png","stimuli/stim005_animate_bird_1.png","stimuli/stim009_animate_face_1.png","39"
"html-button-response-mod","44","203188","0.0-44.0","76490","","","","","","triplet","2300.2999999523163","","","","0","stimuli/stim012_animate_face_4.png","stimuli/stim004_animate_fish_4.png","stimuli/tree_lowercase.png","40"
"html-button-response-mod","45","205742","0.0-45.0","76490","","","","","","triplet","2051.5999999046326","","","","2","stimuli/stim016_inanimate_boats_4.png","stimuli/stim009_animate_face_1.png","stimuli/tree_uppercase.png","41"
"html-button-response-mod","46","207475","0.0-46.0","76490","","","","","","triplet","1219.6000001430511","","","","2","stimuli/boats_lowercase.png","stimuli/stim007_animate_bird_3.png","stimuli/tree_uppercase.png","42"
"html-button-response-mod","47","208938","0.0-47.0","76490","","","","","","triplet","949.2000000476837","","","","1","stimuli/bird_lowercase.png","stimuli/stim023_inanimate_tools_3.png","stimuli/face_lowercase.png","43"
"html-button-response-mod","48","210894","0.0-48.0","76490","","","","","","triplet","1449.5","","","","2","stimuli/fish_lowercase.png","stimuli/tree_lowercase.png","stimuli/tools_lowercase.png","44"
"html-button-response-mod","49","213066","0.0-49.0","76490","","","","","","triplet","1663.2999999523163","","","","0","stimuli/stim007_animate_bird_3.png","stimuli/fish_uppercase.png","stimuli/stim003_animate_fish_3.png","45"
"html-button-response-mod","50","216610","0.0-50.0","76490","","","","","","triplet","3033","","","","2","stimuli/stim017_inanimate_tree_1.png","stimuli/fish_lowercase.png","stimuli/stim011_animate_face_3.png","46"
"html-button-response-mod","51","219512","0.0-51.0","76490","","","","","","triplet","2397.9000000953674","","","","2","stimuli/stim009_animate_face_1.png","stimuli/stim010_animate_face_2.png","stimuli/face_uppercase.png","47"
"html-button-response-mod","52","221604","0.0-52.0","76490","","","","","","triplet","1579.1999998092651","","","","1","stimuli/stim008_animate_bird_4.png","stimuli/stim024_inanimate_tools_4.png","stimuli/bird_uppercase.png","48"
"html-button-response-mod","53","223720","0.0-53.0","76490","","","","","","triplet","1603.5","","","","1","stimuli/tree_uppercase.png","stimuli/boats_lowercase.png","stimuli/stim021_inanimate_tools_1.png","49"
"html-button-response","54","619635","0.0-54.0","76490","","","","","","break","395408.7999999523","<p>BREAK</p><p>Take a break for as long as you need</p><p>Click the button to continue</p>","0","","","","","",""
"html-button-response-mod","55","621085","0.0-55.0","76490","","","","","","triplet","1447","","","","0","stimuli/boats_uppercase.png","stimuli/stim004_animate_fish_4.png","stimuli/stim018_inanimate_tree_2.png","50"
"html-button-response-mod","56","622683","0.0-56.0","76490","","","","","","triplet","1093.7999999523163","","","","0","stimuli/stim012_animate_face_4.png","stimuli/stim016_inanimate_boats_4.png","stimuli/stim015_inanimate_boats_3.png","51"
"html-button-response-mod","57","624146","0.0-57.0","76490","","","","","","triplet","959.2999999523163","","","","0","stimuli/stim013_inanimate_boats_1.png","stimuli/tree_uppercase.png","stimuli/boats_lowercase.png","52"
"html-button-response-mod","58","625530","0.0-58.0","76490","","","","","","triplet","873.2999999523163","","","","2","stimuli/stim009_animate_face_1.png","stimuli/stim010_animate_face_2.png","stimuli/stim013_inanimate_boats_1.png","53"
"html-button-response-mod","59","627318","0.0-59.0","76490","","","","","","triplet","1270.3999998569489","","","","1","stimuli/stim016_inanimate_boats_4.png","stimuli/stim019_inanimate_tree_3.png","stimuli/tools_lowercase.png","54"
"html-button-response-mod","60","628982","0.0-60.0","76490","","","","","","triplet","1147.4000000953674","","","","1","stimuli/stim014_inanimate_boats_2.png","stimuli/stim004_animate_fish_4.png","stimuli/bird_uppercase.png","55"
"html-button-response-mod","61","630581","0.0-61.0","76490","","","","","","triplet","1093.7999999523163","","","","0","stimuli/tree_uppercase.png","stimuli/stim004_animate_fish_4.png","stimuli/stim014_inanimate_boats_2.png","56"
"html-button-response-mod","62","632019","0.0-62.0","76490","","","","","","triplet","925.2999999523163","","","","1","stimuli/tree_uppercase.png","stimuli/stim011_animate_face_3.png","stimuli/boats_uppercase.png","57"
"html-button-response-mod","63","633797","0.0-63.0","76490","","","","","","triplet","1265.1999998092651","","","","0","stimuli/boats_lowercase.png","stimuli/tree_uppercase.png","stimuli/fish_uppercase.png","58"
"html-button-response-mod","64","636892","0.0-64.0","76490","","","","","","triplet","2577.9000000953674","","","","0","stimuli/stim006_animate_bird_2.png","stimuli/tree_uppercase.png","stimuli/stim013_inanimate_boats_1.png","59"
"html-button-response-mod","65","637903","0.0-65.0","76490","","","","","","triplet","504.5","","","","0","stimuli/stim021_inanimate_tools_1.png","stimuli/stim002_animate_fish_2.png","stimuli/stim005_animate_bird_1.png","60"
"html-button-response-mod","66","639253","0.0-66.0","76490","","","","","","triplet","834","","","","2","stimuli/stim003_animate_fish_3.png","stimuli/stim002_animate_fish_2.png","stimuli/stim024_inanimate_tools_4.png","61"
"html-button-response-mod","67","640525","0.0-67.0","76490","","","","","","triplet","768.2999999523163","","","","2","stimuli/stim018_inanimate_tree_2.png","stimuli/stim020_inanimate_tree_4.png","stimuli/tools_uppercase.png","62"
"html-button-response-mod","68","642875","0.0-68.0","76490","","","","","","triplet","1835","","","","0","stimuli/stim009_animate_face_1.png","stimuli/tree_lowercase.png","stimuli/boats_uppercase.png","63"
"html-button-response-mod","69","644450","0.0-69.0","76490","","","","","","triplet","1068.2999999523163","","","","0","stimuli/stim021_inanimate_tools_1.png","stimuli/stim009_animate_face_1.png","stimuli/stim012_animate_face_4.png","64"
"html-button-response-mod","70","646341","0.0-70.0","76490","","","","","","triplet","1373","","","","0","stimuli/tools_lowercase.png","stimuli/face_uppercase.png","stimuli/stim010_animate_face_2.png","65"
"html-button-response-mod","71","648826","0.0-71.0","76490","","","","","","triplet","1968.0999999046326","","","","0","stimuli/stim011_animate_face_3.png","stimuli/tree_lowercase.png","stimuli/stim002_animate_fish_2.png","66"
"html-button-response-mod","72","650672","0.0-72.0","76490","","","","","","triplet","1342.8000001907349","","","","0","stimuli/face_lowercase.png","stimuli/stim013_inanimate_boats_1.png","stimuli/stim006_animate_bird_2.png","67"
"html-button-response-mod","73","652314","0.0-73.0","76490","","","","","","triplet","1131.1000001430511","","","","2","stimuli/stim001_animate_fish_1.png","stimuli/stim018_inanimate_tree_2.png","stimuli/face_lowercase.png","68"
"html-button-response-mod","74","653585","0.0-74.0","76490","","","","","","triplet","759.9000000953674","","","","2","stimuli/stim020_inanimate_tree_4.png","stimuli/stim019_inanimate_tree_3.png","stimuli/stim022_inanimate_tools_2.png","69"
"html-button-response-mod","75","656228","0.0-75.0","76490","","","","","","triplet","2136.399999856949","","","","2","stimuli/stim019_inanimate_tree_3.png","stimuli/stim015_inanimate_boats_3.png","stimuli/bird_lowercase.png","70"
"html-button-response-mod","76","658534","0.0-76.0","76490","","","","","","triplet","1796.1000001430511","","","","2","stimuli/stim006_animate_bird_2.png","stimuli/stim020_inanimate_tree_4.png","stimuli/stim015_inanimate_boats_3.png","71"
"html-button-response-mod","77","661078","0.0-77.0","76490","","","","","","triplet","2028.6000001430511","","","","2","stimuli/stim004_animate_fish_4.png","stimuli/stim011_animate_face_3.png","stimuli/tools_lowercase.png","72"
"html-button-response-mod","78","663271","0.0-78.0","76490","","","","","","triplet","1684.9000000953674","","","","2","stimuli/stim024_inanimate_tools_4.png","stimuli/stim021_inanimate_tools_1.png","stimuli/tools_uppercase.png","73"
"html-button-response-mod","79","665487","0.0-79.0","76490","","","","","","triplet","1712.7999999523163","","","","2","stimuli/stim008_animate_bird_4.png","stimuli/stim007_animate_bird_3.png","stimuli/stim002_animate_fish_2.png","74"
"html-button-response-mod","80","667760","0.0-80.0","76490","","","","","","triplet","1767.5","","","","0","stimuli/boats_uppercase.png","stimuli/stim021_inanimate_tools_1.png","stimuli/stim008_animate_bird_4.png","75"
"html-button-response-mod","81","670235","0.0-81.0","76490","","","","","","triplet","1963.2000000476837","","","","2","stimuli/tree_uppercase.png","stimuli/boats_lowercase.png","stimuli/stim011_animate_face_3.png","76"
"html-button-response-mod","82","674004","0.0-82.0","76490","","","","","","triplet","3255.899999856949","","","","0","stimuli/stim010_animate_face_2.png","stimuli/stim007_animate_bird_3.png","stimuli/stim008_animate_bird_4.png","77"
"html-button-response-mod","83","675937","0.0-83.0","76490","","","","","","triplet","1428","","","","2","stimuli/tools_uppercase.png","stimuli/stim022_inanimate_tools_2.png","stimuli/stim004_animate_fish_4.png","78"
"html-button-response-mod","84","678795","0.0-84.0","76490","","","","","","triplet","2353.7999999523163","","","","1","stimuli/fish_lowercase.png","stimuli/face_uppercase.png","stimuli/bird_lowercase.png","79"
"html-button-response-mod","85","681371","0.0-85.0","76490","","","","","","triplet","2069.7999999523163","","","","2","stimuli/stim008_animate_bird_4.png","stimuli/stim005_animate_bird_1.png","stimuli/stim022_inanimate_tools_2.png","80"
"html-button-response-mod","86","688042","0.0-86.0","76490","","","","","","triplet","6168.700000047684","","","","2","stimuli/stim003_animate_fish_3.png","stimuli/stim006_animate_bird_2.png","stimuli/stim024_inanimate_tools_4.png","81"
"html-button-response-mod","87","751856","0.0-87.0","76490","","","","","","triplet","63302.90000009537","","","","2","stimuli/stim016_inanimate_boats_4.png","stimuli/stim007_animate_bird_3.png","stimuli/stim011_animate_face_3.png","82"
"html-button-response-mod","88","755714","0.0-88.0","76490","","","","","","triplet","3351.7999999523163","","","","0","stimuli/face_uppercase.png","stimuli/stim001_animate_fish_1.png","stimuli/bird_lowercase.png","83"
"html-button-response-mod","89","758616","0.0-89.0","76490","","","","","","triplet","2398.9000000953674","","","","2","stimuli/stim021_inanimate_tools_1.png","stimuli/stim002_animate_fish_2.png","stimuli/tree_lowercase.png","84"
"html-button-response-mod","90","769573","0.0-90.0","76490","","","","","","triplet","10444.900000095367","","","","0","stimuli/stim016_inanimate_boats_4.png","stimuli/stim011_animate_face_3.png","stimuli/stim008_animate_bird_4.png","85"
"html-button-response-mod","91","771700","0.0-91.0","76490","","","","","","triplet","1619.7999999523163","","","","2","stimuli/stim017_inanimate_tree_1.png","stimuli/tree_uppercase.png","stimuli/fish_uppercase.png","86"
"html-button-response-mod","92","774546","0.0-92.0","76490","","","","","","triplet","2327.2000000476837","","","","0","stimuli/stim019_inanimate_tree_3.png","stimuli/tools_lowercase.png","stimuli/boats_lowercase.png","87"
"html-button-response-mod","93","792994","0.0-93.0","76490","","","","","","triplet","17926.400000095367","","","","2","stimuli/stim024_inanimate_tools_4.png","stimuli/stim015_inanimate_boats_3.png","stimuli/stim018_inanimate_tree_2.png","88"
"html-button-response-mod","94","794311","0.0-94.0","76490","","","","","","triplet","802.8999998569489","","","","2","stimuli/stim019_inanimate_tree_3.png","stimuli/stim018_inanimate_tree_2.png","stimuli/tools_lowercase.png","89"
"html-button-response-mod","95","795963","0.0-95.0","76490","","","","","","triplet","1122.1000001430511","","","","2","stimuli/face_lowercase.png","stimuli/bird_lowercase.png","stimuli/stim001_animate_fish_1.png","90"
"html-button-response-mod","96","797212","0.0-96.0","76490","","","","","","triplet","745.3999998569489","","","","1","stimuli/stim017_inanimate_tree_1.png","stimuli/stim013_inanimate_boats_1.png","stimuli/stim020_inanimate_tree_4.png","91"
"html-button-response-mod","97","799261","0.0-97.0","76490","","","","","","triplet","1544.2999999523163","","","","0","stimuli/fish_lowercase.png","stimuli/fish_uppercase.png","stimuli/bird_uppercase.png","92"
"html-button-response-mod","98","803108","0.0-98.0","76490","","","","","","triplet","3344.199999809265","","","","2","stimuli/boats_lowercase.png","stimuli/tools_lowercase.png","stimuli/stim015_inanimate_boats_3.png","93"
"html-button-response-mod","99","804963","0.0-99.0","76490","","","","","","triplet","1348.5","","","","1","stimuli/stim003_animate_fish_3.png","stimuli/stim017_inanimate_tree_1.png","stimuli/stim008_animate_bird_4.png","94"
"html-button-response-mod","100","807764","0.0-100.0","76490","","","","","","triplet","2288.4000000953674","","","","2","stimuli/stim017_inanimate_tree_1.png","stimuli/stim001_animate_fish_1.png","stimuli/stim011_animate_face_3.png","95"
"html-button-response-mod","101","809530","0.0-101.0","76490","","","","","","triplet","1253.3000001907349","","","","2","stimuli/stim004_animate_fish_4.png","stimuli/stim018_inanimate_tree_2.png","stimuli/tools_uppercase.png","96"
"html-button-response-mod","102","810756","0.0-102.0","76490","","","","","","triplet","705.7000000476837","","","","2","stimuli/stim004_animate_fish_4.png","stimuli/stim002_animate_fish_2.png","stimuli/fish_lowercase.png","97"
"html-button-response-mod","103","812546","0.0-103.0","76490","","","","","","triplet","1276.0999999046326","","","","1","stimuli/fish_lowercase.png","stimuli/stim015_inanimate_boats_3.png","stimuli/bird_lowercase.png","98"
"html-button-response-mod","104","813863","0.0-104.0","76490","","","","","","triplet","807.8999998569489","","","","2","stimuli/boats_lowercase.png","stimuli/bird_lowercase.png","stimuli/stim010_animate_face_2.png","99"
"html-button-response","105","1285599","0.0-105.0","76490","","","","","","break","471222","<p>BREAK</p><p>Take a break for as long as you need</p><p>Click the button to continue</p>","0","","","","","",""
"html-button-response-mod","106","1286713","0.0-106.0","76490","","","","","","triplet","1111.5999999046326","","","","2","stimuli/stim016_inanimate_boats_4.png","stimuli/stim015_inanimate_boats_3.png","stimuli/stim008_animate_bird_4.png","100"
"html-button-response-mod","107","1288063","0.0-107.0","76490","","","","","","triplet","847.3000001907349","","","","0","stimuli/face_lowercase.png","stimuli/stim016_inanimate_boats_4.png","stimuli/stim020_inanimate_tree_4.png","101"
"html-button-response-mod","108","1289717","0.0-108.0","76490","","","","","","triplet","1151.2000000476837","","","","0","stimuli/fish_lowercase.png","stimuli/stim014_inanimate_boats_2.png","stimuli/stim007_animate_bird_3.png","102"
"html-button-response-mod","109","1290945","0.0-109.0","76490","","","","","","triplet","721.7999999523163","","","","1","stimuli/stim013_inanimate_boats_1.png","stimuli/face_lowercase.png","stimuli/stim007_animate_bird_3.png","103"
"html-button-response-mod","110","1292000","0.0-110.0","76490","","","","","","triplet","527.1999998092651","","","","1","stimuli/stim016_inanimate_boats_4.png","stimuli/face_lowercase.png","stimuli/stim010_animate_face_2.png","104"
"html-button-response-mod","111","1294317","0.0-111.0","76490","","","","","","triplet","1810.1000001430511","","","","0","stimuli/boats_lowercase.png","stimuli/stim007_animate_bird_3.png","stimuli/stim011_animate_face_3.png","105"
"html-button-response-mod","112","1296792","0.0-112.0","76490","","","","","","triplet","1959.6000001430511","","","","0","stimuli/tools_lowercase.png","stimuli/fish_lowercase.png","stimuli/stim006_animate_bird_2.png","106"
"html-button-response-mod","113","1298627","0.0-113.0","76490","","","","","","triplet","1331.8999998569489","","","","2","stimuli/stim007_animate_bird_3.png","stimuli/stim001_animate_fish_1.png","stimuli/stim013_inanimate_boats_1.png","107"
"html-button-response-mod","114","1300046","0.0-114.0","76490","","","","","","triplet","899.2999999523163","","","","1","stimuli/stim008_animate_bird_4.png","stimuli/stim019_inanimate_tree_3.png","stimuli/stim013_inanimate_boats_1.png","108"
"html-button-response-mod","115","1301304","0.0-115.0","76490","","","","","","triplet","753.8999998569489","","","","1","stimuli/stim024_inanimate_tools_4.png","stimuli/stim019_inanimate_tree_3.png","stimuli/stim010_animate_face_2.png","109"
"html-button-response-mod","116","1302204","0.0-116.0","76490","","","","","","triplet","393.2999999523163","","","","1","stimuli/bird_lowercase.png","stimuli/stim019_inanimate_tree_3.png","stimuli/stim023_inanimate_tools_3.png","110"
"html-button-response-mod","117","1302845","0.0-117.0","76490","","","","","","triplet","137.29999995231628","","","","0","stimuli/fish_uppercase.png","stimuli/stim020_inanimate_tree_4.png","stimuli/stim008_animate_bird_4.png","111"
"html-button-response-mod","118","1304915","0.0-118.0","76490","","","","","","triplet","1563.0999999046326","","","","2","stimuli/stim021_inanimate_tools_1.png","stimuli/stim008_animate_bird_4.png","stimuli/tree_uppercase.png","112"
"html-button-response-mod","119","1306028","0.0-119.0","76490","","","","","","triplet","610.9000000953674","","","","0","stimuli/face_lowercase.png","stimuli/stim018_inanimate_tree_2.png","stimuli/stim005_animate_bird_1.png","113"
"html-button-response-mod","120","1307333","0.0-120.0","76490","","","","","","triplet","802.1999998092651","","","","2","stimuli/stim005_animate_bird_1.png","stimuli/stim011_animate_face_3.png","stimuli/tree_uppercase.png","114"
"html-button-response-mod","121","1308638","0.0-121.0","76490","","","","","","triplet","789.5999999046326","","","","1","stimuli/stim019_inanimate_tree_3.png","stimuli/boats_uppercase.png","stimuli/stim018_inanimate_tree_2.png","115"
"html-button-response-mod","122","1310798","0.0-122.0","76490","","","","","","triplet","1657.0999999046326","","","","2","stimuli/stim011_animate_face_3.png","stimuli/stim018_inanimate_tree_2.png","stimuli/fish_uppercase.png","116"
"html-button-response-mod","123","1312238","0.0-123.0","76490","","","","","","triplet","932.4000000953674","","","","2","stimuli/boats_lowercase.png","stimuli/face_lowercase.png","stimuli/stim017_inanimate_tree_1.png","117"
"html-button-response-mod","124","1313925","0.0-124.0","76490","","","","","","triplet","1180.1000001430511","","","","1","stimuli/stim007_animate_bird_3.png","stimuli/boats_uppercase.png","stimuli/stim011_animate_face_3.png","118"
"html-button-response-mod","125","1316412","0.0-125.0","76490","","","","","","triplet","1976.0999999046326","","","","1","stimuli/fish_lowercase.png","stimuli/bird_uppercase.png","stimuli/tools_uppercase.png","119"
"html-button-response-mod","126","1317987","0.0-126.0","76490","","","","","","triplet","1069.7000000476837","","","","0","stimuli/stim009_animate_face_1.png","stimuli/stim019_inanimate_tree_3.png","stimuli/fish_lowercase.png","120"
"html-button-response-mod","127","1320202","0.0-127.0","76490","","","","","","triplet","1698.5","","","","1","stimuli/fish_uppercase.png","stimuli/stim024_inanimate_tools_4.png","stimuli/face_lowercase.png","121"
"html-button-response-mod","128","1322487","0.0-128.0","76490","","","","","","triplet","1781.2000000476837","","","","2","stimuli/stim015_inanimate_boats_3.png","stimuli/stim005_animate_bird_1.png","stimuli/stim018_inanimate_tree_2.png","122"
"html-button-response-mod","129","1323431","0.0-129.0","76490","","","","","","triplet","427.5","","","","0","stimuli/stim007_animate_bird_3.png","stimuli/stim009_animate_face_1.png","stimuli/tools_lowercase.png","123"
"html-button-response-mod","130","1324117","0.0-130.0","76490","","","","","","triplet","179.80000019073486","","","","2","stimuli/stim016_inanimate_boats_4.png","stimuli/stim023_inanimate_tools_3.png","stimuli/stim018_inanimate_tree_2.png","124"
"html-button-response-mod","131","1324984","0.0-131.0","76490","","","","","","triplet","363.69999980926514","","","","1","stimuli/stim015_inanimate_boats_3.png","stimuli/boats_uppercase.png","stimuli/fish_lowercase.png","125"
"html-button-response-mod","132","1325748","0.0-132.0","76490","","","","","","triplet","260.80000019073486","","","","2","stimuli/stim021_inanimate_tools_1.png","stimuli/stim020_inanimate_tree_4.png","stimuli/stim019_inanimate_tree_3.png","126"
"html-button-response-mod","133","1327853","0.0-133.0","76490","","","","","","triplet","1600.6000001430511","","","","1","stimuli/fish_uppercase.png","stimuli/stim024_inanimate_tools_4.png","stimuli/stim004_animate_fish_4.png","127"
"html-button-response-mod","134","1329496","0.0-134.0","76490","","","","","","triplet","1130.6000001430511","","","","2","stimuli/bird_lowercase.png","stimuli/stim015_inanimate_boats_3.png","stimuli/stim018_inanimate_tree_2.png","128"
"html-button-response-mod","135","1331182","0.0-135.0","76490","","","","","","triplet","1182.6000001430511","","","","2","stimuli/tools_lowercase.png","stimuli/stim021_inanimate_tools_1.png","stimuli/boats_lowercase.png","129"
"html-button-response-mod","136","1334242","0.0-136.0","76490","","","","","","triplet","2545.7000000476837","","","","1","stimuli/stim019_inanimate_tree_3.png","stimuli/stim024_inanimate_tools_4.png","stimuli/stim007_animate_bird_3.png","130"
"html-button-response-mod","137","1335378","0.0-137.0","76490","","","","","","triplet","634.2000000476837","","","","1","stimuli/stim005_animate_bird_1.png","stimuli/bird_uppercase.png","stimuli/stim023_inanimate_tools_3.png","131"
"html-button-response-mod","138","1337223","0.0-138.0","76490","","","","","","triplet","1339.7999999523163","","","","0","stimuli/stim022_inanimate_tools_2.png","stimuli/face_lowercase.png","stimuli/face_uppercase.png","132"
"html-button-response-mod","139","1339675","0.0-139.0","76490","","","","","","triplet","1947.6000001430511","","","","0","stimuli/stim003_animate_fish_3.png","stimuli/boats_uppercase.png","stimuli/stim014_inanimate_boats_2.png","133"
"html-button-response-mod","140","1341217","0.0-140.0","76490","","","","","","triplet","1037.6000001430511","","","","1","stimuli/stim019_inanimate_tree_3.png","stimuli/tree_lowercase.png","stimuli/stim020_inanimate_tree_4.png","134"
"html-button-response-mod","141","1342770","0.0-141.0","76490","","","","","","triplet","1051.1000001430511","","","","1","stimuli/stim008_animate_bird_4.png","stimuli/stim024_inanimate_tools_4.png","stimuli/stim018_inanimate_tree_2.png","135"
"html-button-response-mod","142","1344130","0.0-142.0","76490","","","","","","triplet","854.0999999046326","","","","2","stimuli/stim022_inanimate_tools_2.png","stimuli/face_uppercase.png","stimuli/fish_lowercase.png","136"
"html-button-response-mod","143","1345660","0.0-143.0","76490","","","","","","triplet","1026.6000001430511","","","","2","stimuli/stim021_inanimate_tools_1.png","stimuli/tools_lowercase.png","stimuli/stim006_animate_bird_2.png","137"
"html-button-response-mod","144","1347303","0.0-144.0","76490","","","","","","triplet","1135.5","","","","0","stimuli/stim019_inanimate_tree_3.png","stimuli/stim014_inanimate_boats_2.png","stimuli/stim001_animate_fish_1.png","138"
"html-button-response-mod","145","1350576","0.0-145.0","76490","","","","","","triplet","2760.7999999523163","","","","1","stimuli/face_lowercase.png","stimuli/tools_uppercase.png","stimuli/stim004_animate_fish_4.png","139"
"html-button-response-mod","146","1352131","0.0-146.0","76490","","","","","","triplet","1051.5","","","","2","stimuli/stim015_inanimate_boats_3.png","stimuli/stim004_animate_fish_4.png","stimuli/tree_uppercase.png","140"
"html-button-response-mod","147","1353444","0.0-147.0","76490","","","","","","triplet","810.8000001907349","","","","1","stimuli/tools_lowercase.png","stimuli/stim023_inanimate_tools_3.png","stimuli/fish_uppercase.png","141"
"html-button-response-mod","148","1354930","0.0-148.0","76490","","","","","","triplet","969.2000000476837","","","","1","stimuli/tools_lowercase.png","stimuli/stim004_animate_fish_4.png","stimuli/stim021_inanimate_tools_1.png","142"
"html-button-response-mod","149","1356696","0.0-149.0","76490","","","","","","triplet","1263","","","","0","stimuli/stim018_inanimate_tree_2.png","stimuli/stim002_animate_fish_2.png","stimuli/bird_lowercase.png","143"
"html-button-response-mod","150","1358801","0.0-150.0","76490","","","","","","triplet","1597.2000000476837","","","","2","stimuli/stim017_inanimate_tree_1.png","stimuli/stim008_animate_bird_4.png","stimuli/stim021_inanimate_tools_1.png","144"
"html-button-response-mod","151","1360588","0.0-151.0","76490","","","","","","triplet","1271.7999999523163","","","","2","stimuli/stim004_animate_fish_4.png","stimuli/stim020_inanimate_tree_4.png","stimuli/boats_lowercase.png","145"
"html-button-response-mod","152","1362062","0.0-152.0","76490","","","","","","triplet","970.8999998569489","","","","0","stimuli/stim019_inanimate_tree_3.png","stimuli/face_lowercase.png","stimuli/tree_lowercase.png","146"
"html-button-response-mod","153","1364618","0.0-153.0","76490","","","","","","triplet","2038.2999999523163","","","","1","stimuli/stim023_inanimate_tools_3.png","stimuli/stim010_animate_face_2.png","stimuli/boats_uppercase.png","147"
"html-button-response-mod","154","1366089","0.0-154.0","76490","","","","","","triplet","958.6999998092651","","","","1","stimuli/stim016_inanimate_boats_4.png","stimuli/tree_uppercase.png","stimuli/stim004_animate_fish_4.png","148"
"html-button-response-mod","155","1368533","0.0-155.0","76490","","","","","","triplet","1329.7000000476837","","","","1","stimuli/stim002_animate_fish_2.png","stimuli/stim021_inanimate_tools_1.png","stimuli/stim009_animate_face_1.png","149"
"html-button-response","156","2618039","0.0-156.0","76490","","","","","","break","1248987.0999999046","<p>BREAK</p><p>Take a break for as long as you need</p><p>Click the button to continue</p>","0","","","","","",""
"html-button-response-mod","157","2619862","0.0-157.0","76490","","","","","","triplet","1820.2999999523163","","","","0","stimuli/stim017_inanimate_tree_1.png","stimuli/stim010_animate_face_2.png","stimuli/stim006_animate_bird_2.png","150"
"html-button-response-mod","158","2622088","0.0-158.0","76490","","","","","","triplet","1707.1999998092651","","","","0","stimuli/stim012_animate_face_4.png","stimuli/stim008_animate_bird_4.png","stimuli/stim004_animate_fish_4.png","151"
"html-button-response-mod","159","2624046","0.0-159.0","76490","","","","","","triplet","1442.9000000953674","","","","1","stimuli/stim002_animate_fish_2.png","stimuli/stim014_inanimate_boats_2.png","stimuli/stim010_animate_face_2.png","152"
"html-button-response-mod","160","2626330","0.0-160.0","76490","","","","","","triplet","1766.5999999046326","","","","1","stimuli/stim014_inanimate_boats_2.png","stimuli/face_lowercase.png","stimuli/stim020_inanimate_tree_4.png","153"
"html-button-response-mod","161","2628062","0.0-161.0","76490","","","","","","triplet","1229.6999998092651","","","","2","stimuli/face_lowercase.png","stimuli/face_uppercase.png","stimuli/stim021_inanimate_tools_1.png","154"
"html-button-response-mod","162","2629828","0.0-162.0","76490","","","","","","triplet","1261.8000001907349","","","","2","stimuli/stim004_animate_fish_4.png","stimuli/stim007_animate_bird_3.png","stimuli/stim017_inanimate_tree_1.png","155"
"html-button-response-mod","163","2632629","0.0-163.0","76490","","","","","","triplet","2283.7000000476837","","","","1","stimuli/stim014_inanimate_boats_2.png","stimuli/stim018_inanimate_tree_2.png","stimuli/tools_lowercase.png","156"
"html-button-response-mod","164","2635250","0.0-164.0","76490","","","","","","triplet","2118.2999999523163","","","","2","stimuli/stim004_animate_fish_4.png","stimuli/tree_uppercase.png","stimuli/stim010_animate_face_2.png","157"
"html-button-response-mod","165","2637488","0.0-165.0","76490","","","","","","triplet","1725.0999999046326","","","","2","stimuli/stim022_inanimate_tools_2.png","stimuli/stim021_inanimate_tools_1.png","stimuli/boats_uppercase.png","158"
"html-button-response-mod","166","2639266","0.0-166.0","76490","","","","","","triplet","1265.5","","","","2","stimuli/bird_lowercase.png","stimuli/stim008_animate_bird_4.png","stimuli/stim013_inanimate_boats_1.png","159"
"html-button-response-mod","167","2640788","0.0-167.0","76490","","","","","","triplet","1018.7000000476837","","","","1","stimuli/stim005_animate_bird_1.png","stimuli/fish_lowercase.png","stimuli/stim007_animate_bird_3.png","160"
"html-button-response-mod","168","2642968","0.0-168.0","76490","","","","","","triplet","1662.2000000476837","","","","2","stimuli/stim022_inanimate_tools_2.png","stimuli/stim012_animate_face_4.png","stimuli/fish_uppercase.png","161"
"html-button-response-mod","169","2644880","0.0-169.0","76490","","","","","","triplet","1404.5999999046326","","","","1","stimuli/stim019_inanimate_tree_3.png","stimuli/bird_uppercase.png","stimuli/stim024_inanimate_tools_4.png","162"
"html-button-response-mod","170","2647186","0.0-170.0","76490","","","","","","triplet","1801.8999998569489","","","","1","stimuli/fish_uppercase.png","stimuli/tree_uppercase.png","stimuli/bird_lowercase.png","163"
"html-button-response-mod","171","2654161","0.0-171.0","76490","","","","","","triplet","6470.099999904633","","","","1","stimuli/stim004_animate_fish_4.png","stimuli/fish_uppercase.png","stimuli/stim015_inanimate_boats_3.png","164"
"html-button-response-mod","172","2656264","0.0-172.0","76490","","","","","","triplet","1586.5","","","","0","stimuli/stim005_animate_bird_1.png","stimuli/stim012_animate_face_4.png","stimuli/stim009_animate_face_1.png","165"
"html-button-response-mod","173","2660551","0.0-173.0","76490","","","","","","triplet","3772.0999999046326","","","","2","stimuli/face_uppercase.png","stimuli/stim010_animate_face_2.png","stimuli/stim022_inanimate_tools_2.png","166"
"html-button-response-mod","174","2664600","0.0-174.0","76490","","","","","","triplet","3546.7999999523163","","","","0","stimuli/stim009_animate_face_1.png","stimuli/boats_lowercase.png","stimuli/stim015_inanimate_boats_3.png","167"
"html-button-response-mod","175","2669291","0.0-175.0","76490","","","","","","triplet","4182","","","","0","stimuli/face_lowercase.png","stimuli/boats_uppercase.png","stimuli/stim022_inanimate_tools_2.png","168"
"html-button-response-mod","176","2671407","0.0-176.0","76490","","","","","","triplet","1595.2000000476837","","","","1","stimuli/stim011_animate_face_3.png","stimuli/stim017_inanimate_tree_1.png","stimuli/stim005_animate_bird_1.png","169"
"html-button-response-mod","177","2673465","0.0-177.0","76490","","","","","","triplet","1543.3999998569489","","","","2","stimuli/fish_lowercase.png","stimuli/stim003_animate_fish_3.png","stimuli/stim017_inanimate_tree_1.png","170"
"html-button-response-mod","178","2675535","0.0-178.0","76490","","","","","","triplet","1561.6999998092651","","","","1","stimuli/bird_lowercase.png","stimuli/stim019_inanimate_tree_3.png","stimuli/stim007_animate_bird_3.png","171"
"html-button-response-mod","179","2679630","0.0-179.0","76490","","","","","","triplet","3585.5","","","","0","stimuli/stim024_inanimate_tools_4.png","stimuli/stim013_inanimate_boats_1.png","stimuli/stim004_animate_fish_4.png","172"
"html-button-response-mod","180","2681475","0.0-180.0","76490","","","","","","triplet","1337","","","","0","stimuli/tools_lowercase.png","stimuli/face_uppercase.png","stimuli/stim011_animate_face_3.png","173"
"html-button-response-mod","181","2683601","0.0-181.0","76490","","","","","","triplet","1612.7999999523163","","","","2","stimuli/boats_uppercase.png","stimuli/tools_uppercase.png","stimuli/fish_uppercase.png","174"
"html-button-response-mod","182","2685300","0.0-182.0","76490","","","","","","triplet","1194.2000000476837","","","","1","stimuli/stim012_animate_face_4.png","stimuli/tools_lowercase.png","stimuli/stim011_animate_face_3.png","175"
"html-button-response-mod","183","2694222","0.0-183.0","76490","","","","","","triplet","8412.299999952316","","","","2","stimuli/stim016_inanimate_boats_4.png","stimuli/stim020_inanimate_tree_4.png","stimuli/tools_lowercase.png","176"
"html-button-response-mod","184","2696189","0.0-184.0","76490","","","","","","triplet","1457.5","","","","1","stimuli/tools_uppercase.png","stimuli/boats_lowercase.png","stimuli/tools_lowercase.png","177"
"html-button-response-mod","185","2697866","0.0-185.0","76490","","","","","","triplet","1165.5999999046326","","","","0","stimuli/stim013_inanimate_boats_1.png","stimuli/stim003_animate_fish_3.png","stimuli/stim002_animate_fish_2.png","178"
"html-button-response-mod","186","2700149","0.0-186.0","76490","","","","","","triplet","1763.9000000953674","","","","0","stimuli/bird_lowercase.png","stimuli/tools_lowercase.png","stimuli/stim021_inanimate_tools_1.png","179"
"html-button-response-mod","187","2707720","0.0-187.0","76490","","","","","","triplet","7053.5","","","","0","stimuli/fish_uppercase.png","stimuli/boats_lowercase.png","stimuli/stim011_animate_face_3.png","180"
"html-button-response-mod","188","2709576","0.0-188.0","76490","","","","","","triplet","1346","","","","0","stimuli/stim024_inanimate_tools_4.png","stimuli/stim003_animate_fish_3.png","stimuli/stim007_animate_bird_3.png","181"
"html-button-response-mod","189","2712041","0.0-189.0","76490","","","","","","triplet","1942.7000000476837","","","","1","stimuli/stim012_animate_face_4.png","stimuli/stim006_animate_bird_2.png","stimuli/stim010_animate_face_2.png","182"
"html-button-response-mod","190","2726563","0.0-190.0","76490","","","","","","triplet","14013.299999952316","","","","1","stimuli/stim012_animate_face_4.png","stimuli/stim013_inanimate_boats_1.png","stimuli/stim005_animate_bird_1.png","183"
"html-button-response-mod","191","2728082","0.0-191.0","76490","","","","","","triplet","1005.7999999523163","","","","1","stimuli/stim012_animate_face_4.png","stimuli/boats_lowercase.png","stimuli/stim010_animate_face_2.png","184"
"html-button-response-mod","192","2731412","0.0-192.0","76490","","","","","","triplet","2823.600000143051","","","","1","stimuli/boats_uppercase.png","stimuli/stim017_inanimate_tree_1.png","stimuli/stim012_animate_face_4.png","185"
"html-button-response-mod","193","2737554","0.0-193.0","76490","","","","","","triplet","5627.400000095367","","","","0","stimuli/stim004_animate_fish_4.png","stimuli/stim015_inanimate_boats_3.png","stimuli/stim016_inanimate_boats_4.png","186"
"html-button-response-mod","194","2741649","0.0-194.0","76490","","","","","","triplet","3583.800000190735","","","","0","stimuli/stim021_inanimate_tools_1.png","stimuli/stim018_inanimate_tree_2.png","stimuli/stim011_animate_face_3.png","187"
"html-button-response-mod","195","2755373","0.0-195.0","76490","","","","","","triplet","13206.899999856949","","","","2","stimuli/bird_uppercase.png","stimuli/tree_lowercase.png","stimuli/stim014_inanimate_boats_2.png","188"
"html-button-response-mod","196","2757184","0.0-196.0","76490","","","","","","triplet","1307.4000000953674","","","","0","stimuli/stim014_inanimate_boats_2.png","stimuli/face_lowercase.png","stimuli/tools_uppercase.png","189"
"html-button-response-mod","197","2758377","0.0-197.0","76490","","","","","","triplet","673.7999999523163","","","","0","stimuli/face_lowercase.png","stimuli/stim017_inanimate_tree_1.png","stimuli/stim021_inanimate_tools_1.png","190"
"html-button-response-mod","198","2759830","0.0-198.0","76490","","","","","","triplet","935.3999998569489","","","","2","stimuli/stim002_animate_fish_2.png","stimuli/stim006_animate_bird_2.png","stimuli/stim009_animate_face_1.png","191"
"html-button-response-mod","199","2761437","0.0-199.0","76490","","","","","","triplet","1104.4000000953674","","","","0","stimuli/stim013_inanimate_boats_1.png","stimuli/stim005_animate_bird_1.png","stimuli/fish_uppercase.png","192"
"html-button-response-mod","200","2763406","0.0-200.0","76490","","","","","","triplet","1452.5","","","","0","stimuli/stim010_animate_face_2.png","stimuli/tools_lowercase.png","stimuli/stim020_inanimate_tree_4.png","193"
"html-button-response-mod","201","2765116","0.0-201.0","76490","","","","","","triplet","1208.2999999523163","","","","1","stimuli/stim013_inanimate_boats_1.png","stimuli/stim021_inanimate_tools_1.png","stimuli/stim018_inanimate_tree_2.png","194"
"html-button-response-mod","202","2766533","0.0-202.0","76490","","","","","","triplet","906.2000000476837","","","","1","stimuli/boats_lowercase.png","stimuli/stim021_inanimate_tools_1.png","stimuli/tree_lowercase.png","195"
"html-button-response-mod","203","2768322","0.0-203.0","76490","","","","","","triplet","1281.4000000953674","","","","1","stimuli/face_uppercase.png","stimuli/stim008_animate_bird_4.png","stimuli/stim011_animate_face_3.png","196"
"html-button-response-mod","204","2772980","0.0-204.0","76490","","","","","","triplet","4142.100000143051","","","","0","stimuli/stim003_animate_fish_3.png","stimuli/tools_lowercase.png","stimuli/tree_uppercase.png","197"
"html-button-response-mod","205","2790483","0.0-205.0","76490","","","","","","triplet","16987.599999904633","","","","1","stimuli/tree_lowercase.png","stimuli/face_uppercase.png","stimuli/stim020_inanimate_tree_4.png","198"
"html-button-response-mod","206","2792653","0.0-206.0","76490","","","","","","triplet","1662.5","","","","1","stimuli/tree_lowercase.png","stimuli/bird_lowercase.png","stimuli/tools_lowercase.png","199"
"html-button-response","207","2794858","0.0-207.0","76490","","","","","","break","1698","<p>BREAK</p><p>Take a break for as long as you need</p><p>Click the button to continue</p>","0","","","","","",""
"html-button-response-mod","208","2796053","0.0-208.0","76490","","","","","","triplet","1192.5","","","","2","stimuli/stim004_animate_fish_4.png","stimuli/stim001_animate_fish_1.png","stimuli/face_lowercase.png","200"
"html-button-response-mod","209","2797817","0.0-209.0","76490","","","","","","triplet","1260","","","","0","stimuli/stim024_inanimate_tools_4.png","stimuli/tree_uppercase.png","stimuli/face_lowercase.png","201"
"html-button-response-mod","210","2801182","0.0-210.0","76490","","","","","","triplet","2855.199999809265","","","","2","stimuli/tree_uppercase.png","stimuli/stim019_inanimate_tree_3.png","stimuli/stim007_animate_bird_3.png","202"
"html-button-response-mod","211","2805918","0.0-211.0","76490","","","","","","triplet","4227.900000095367","","","","0","stimuli/stim015_inanimate_boats_3.png","stimuli/stim002_animate_fish_2.png","stimuli/face_uppercase.png","203"
"html-button-response-mod","212","2815095","0.0-212.0","76490","","","","","","triplet","8672","","","","1","stimuli/bird_uppercase.png","stimuli/fish_lowercase.png","stimuli/stim007_animate_bird_3.png","204"
"html-button-response-mod","213","2817458","0.0-213.0","76490","","","","","","triplet","1852.1000001430511","","","","2","stimuli/stim008_animate_bird_4.png","stimuli/stim007_animate_bird_3.png","stimuli/stim016_inanimate_boats_4.png","205"
"html-button-response-mod","214","2819955","0.0-214.0","76490","","","","","","triplet","1992","","","","2","stimuli/face_uppercase.png","stimuli/stim009_animate_face_1.png","stimuli/stim005_animate_bird_1.png","206"
"html-button-response-mod","215","2831668","0.0-215.0","76490","","","","","","triplet","11189.099999904633","","","","0","stimuli/boats_uppercase.png","stimuli/stim017_inanimate_tree_1.png","stimuli/stim010_animate_face_2.png","207"
"html-button-response-mod","216","2834659","0.0-216.0","76490","","","","","","triplet","2484.5","","","","1","stimuli/stim018_inanimate_tree_2.png","stimuli/stim010_animate_face_2.png","stimuli/stim020_inanimate_tree_4.png","208"
"html-button-response-mod","217","2836413","0.0-217.0","76490","","","","","","triplet","1252.3000001907349","","","","2","stimuli/stim002_animate_fish_2.png","stimuli/stim005_animate_bird_1.png","stimuli/stim014_inanimate_boats_2.png","209"
"html-button-response-mod","218","2838472","0.0-218.0","76490","","","","","","triplet","1541.7999999523163","","","","2","stimuli/stim011_animate_face_3.png","stimuli/stim005_animate_bird_1.png","stimuli/tree_lowercase.png","210"
"html-button-response-mod","219","2841554","0.0-219.0","76490","","","","","","triplet","2562.7000000476837","","","","1","stimuli/stim017_inanimate_tree_1.png","stimuli/stim012_animate_face_4.png","stimuli/stim001_animate_fish_1.png","211"
"html-button-response-mod","220","2857776","0.0-220.0","76490","","","","","","triplet","15712.700000047684","","","","0","stimuli/stim007_animate_bird_3.png","stimuli/face_uppercase.png","stimuli/boats_lowercase.png","212"
"html-button-response-mod","221","2859374","0.0-221.0","76490","","","","","","triplet","1091.4000000953674","","","","1","stimuli/stim015_inanimate_boats_3.png","stimuli/stim021_inanimate_tools_1.png","stimuli/stim014_inanimate_boats_2.png","213"
"html-button-response-mod","222","2860702","0.0-222.0","76490","","","","","","triplet","824.7999999523163","","","","2","stimuli/fish_uppercase.png","stimuli/tools_lowercase.png","stimuli/stim015_inanimate_boats_3.png","214"
"html-button-response-mod","223","2861849","0.0-223.0","76490","","","","","","triplet","639.0999999046326","","","","1","stimuli/bird_uppercase.png","stimuli/stim011_animate_face_3.png","stimuli/tools_uppercase.png","215"
"html-button-response-mod","224","2863233","0.0-224.0","76490","","","","","","triplet","875.2999999523163","","","","0","stimuli/boats_uppercase.png","stimuli/stim003_animate_fish_3.png","stimuli/stim002_animate_fish_2.png","216"
"html-button-response-mod","225","2864526","0.0-225.0","76490","","","","","","triplet","788.6000001430511","","","","2","stimuli/tree_lowercase.png","stimuli/face_lowercase.png","stimuli/stim006_animate_bird_2.png","217"
"html-button-response-mod","226","2866055","0.0-226.0","76490","","","","","","triplet","1026.2999999523163","","","","0","stimuli/tools_uppercase.png","stimuli/stim013_inanimate_boats_1.png","stimuli/stim014_inanimate_boats_2.png","218"
"html-button-response-mod","227","2867338","0.0-227.0","76490","","","","","","triplet","773.9000000953674","","","","2","stimuli/bird_lowercase.png","stimuli/boats_lowercase.png","stimuli/stim008_animate_bird_4.png","219"
"html-button-response-mod","228","2868609","0.0-228.0","76490","","","","","","triplet","767.5999999046326","","","","0","stimuli/stim021_inanimate_tools_1.png","stimuli/stim018_inanimate_tree_2.png","stimuli/stim019_inanimate_tree_3.png","220"
"html-button-response-mod","229","2869871","0.0-229.0","76490","","","","","","triplet","753.0999999046326","","","","1","stimuli/stim010_animate_face_2.png","stimuli/bird_lowercase.png","stimuli/stim015_inanimate_boats_3.png","221"
"html-button-response-mod","230","2871254","0.0-230.0","76490","","","","","","triplet","865.2999999523163","","","","2","stimuli/stim005_animate_bird_1.png","stimuli/stim004_animate_fish_4.png","stimuli/stim018_inanimate_tree_2.png","222"
"html-button-response-mod","231","2872580","0.0-231.0","76490","","","","","","triplet","808.2000000476837","","","","0","stimuli/stim023_inanimate_tools_3.png","stimuli/tree_lowercase.png","stimuli/bird_uppercase.png","223"
"html-button-response-mod","232","2873896","0.0-232.0","76490","","","","","","triplet","801.7999999523163","","","","2","stimuli/face_uppercase.png","stimuli/bird_uppercase.png","stimuli/stim015_inanimate_boats_3.png","224"
"html-button-response-mod","233","2875067","0.0-233.0","76490","","","","","","triplet","666.4000000953674","","","","0","stimuli/stim023_inanimate_tools_3.png","stimuli/fish_lowercase.png","stimuli/bird_uppercase.png","225"
"html-button-response-mod","234","2876654","0.0-234.0","76490","","","","","","triplet","1083.9000000953674","","","","0","stimuli/tree_uppercase.png","stimuli/stim006_animate_bird_2.png","stimuli/stim018_inanimate_tree_2.png","226"
"html-button-response-mod","235","2879218","0.0-235.0","76490","","","","","","triplet","2049.399999856949","","","","2","stimuli/fish_lowercase.png","stimuli/stim018_inanimate_tree_2.png","stimuli/stim012_animate_face_4.png","227"
"html-button-response-mod","236","2880432","0.0-236.0","76490","","","","","","triplet","706","","","","2","stimuli/stim007_animate_bird_3.png","stimuli/stim019_inanimate_tree_3.png","stimuli/face_uppercase.png","228"
"html-button-response-mod","237","2882762","0.0-237.0","76490","","","","","","triplet","1827.8999998569489","","","","0","stimuli/stim015_inanimate_boats_3.png","stimuli/stim012_animate_face_4.png","stimuli/stim002_animate_fish_2.png","229"
"html-button-response-mod","238","2884314","0.0-238.0","76490","","","","","","triplet","1049.2999999523163","","","","2","stimuli/stim014_inanimate_boats_2.png","stimuli/stim016_inanimate_boats_4.png","stimuli/stim008_animate_bird_4.png","230"
"html-button-response-mod","239","2895890","0.0-239.0","76490","","","","","","triplet","11073.799999952316","","","","0","stimuli/stim010_animate_face_2.png","stimuli/stim016_inanimate_boats_4.png","stimuli/stim007_animate_bird_3.png","231"
"html-button-response-mod","240","2898375","0.0-240.0","76490","","","","","","triplet","1975.5999999046326","","","","1","stimuli/bird_lowercase.png","stimuli/stim007_animate_bird_3.png","stimuli/face_uppercase.png","232"
"html-button-response-mod","241","2900018","0.0-241.0","76490","","","","","","triplet","1128.7999999523163","","","","1","stimuli/stim022_inanimate_tools_2.png","stimuli/stim019_inanimate_tree_3.png","stimuli/stim024_inanimate_tools_4.png","233"
"html-button-response-mod","242","2902045","0.0-242.0","76490","","","","","","triplet","1506.4000000953674","","","","0","stimuli/stim019_inanimate_tree_3.png","stimuli/stim014_inanimate_boats_2.png","stimuli/stim024_inanimate_tools_4.png","234"
"html-button-response-mod","243","2903517","0.0-243.0","76490","","","","","","triplet","956.3999998569489","","","","1","stimuli/stim020_inanimate_tree_4.png","stimuli/stim010_animate_face_2.png","stimuli/stim007_animate_bird_3.png","235"
"html-button-response-mod","244","2905024","0.0-244.0","76490","","","","","","triplet","1000.9000000953674","","","","2","stimuli/bird_uppercase.png","stimuli/tree_lowercase.png","stimuli/stim005_animate_bird_1.png","236"
"html-button-response-mod","245","2906340","0.0-245.0","76490","","","","","","triplet","813.2999999523163","","","","1","stimuli/tree_lowercase.png","stimuli/stim015_inanimate_boats_3.png","stimuli/face_lowercase.png","237"
"html-button-response-mod","246","2907780","0.0-246.0","76490","","","","","","triplet","921.2999999523163","","","","1","stimuli/stim018_inanimate_tree_2.png","stimuli/tree_lowercase.png","stimuli/stim006_animate_bird_2.png","238"
"html-button-response-mod","247","2909051","0.0-247.0","76490","","","","","","triplet","757.8999998569489","","","","1","stimuli/face_lowercase.png","stimuli/stim011_animate_face_3.png","stimuli/stim024_inanimate_tools_4.png","239"
"html-button-response-mod","248","2930672","0.0-248.0","76490","","","","","","triplet","21102.900000095367","","","","0","stimuli/fish_lowercase.png","stimuli/stim014_inanimate_boats_2.png","stimuli/stim012_animate_face_4.png","240"
"html-button-response-mod","249","2932415","0.0-249.0","76490","","","","","","triplet","1228.3000001907349","","","","2","stimuli/stim020_inanimate_tree_4.png","stimuli/stim017_inanimate_tree_1.png","stimuli/stim007_animate_bird_3.png","241"
"html-button-response-mod","250","2938594","0.0-250.0","76490","","","","","","triplet","5666.299999952316","","","","0","stimuli/stim019_inanimate_tree_3.png","stimuli/stim004_animate_fish_4.png","stimuli/stim009_animate_face_1.png","242"
"html-button-response-mod","251","2940943","0.0-251.0","76490","","","","","","triplet","1846.5999999046326","","","","0","stimuli/stim020_inanimate_tree_4.png","stimuli/stim022_inanimate_tools_2.png","stimuli/stim008_animate_bird_4.png","243"
"html-button-response-mod","252","2942226","0.0-252.0","76490","","","","","","triplet","773.2000000476837","","","","1","stimuli/stim024_inanimate_tools_4.png","stimuli/boats_lowercase.png","stimuli/stim012_animate_face_4.png","244"
"html-button-response-mod","253","2943901","0.0-253.0","76490","","","","","","triplet","1168.7999999523163","","","","1","stimuli/boats_uppercase.png","stimuli/fish_lowercase.png","stimuli/fish_uppercase.png","245"
"html-button-response-mod","254","2945499","0.0-254.0","76490","","","","","","triplet","1092","","","","2","stimuli/stim013_inanimate_boats_1.png","stimuli/stim012_animate_face_4.png","stimuli/fish_lowercase.png","246"
"html-button-response-mod","255","2947220","0.0-255.0","76490","","","","","","triplet","1202.8000001907349","","","","0","stimuli/tree_uppercase.png","stimuli/stim022_inanimate_tools_2.png","stimuli/stim007_animate_bird_3.png","247"
"html-button-response-mod","256","2948964","0.0-256.0","76490","","","","","","triplet","1240.2000000476837","","","","0","stimuli/boats_uppercase.png","stimuli/face_lowercase.png","stimuli/fish_lowercase.png","248"
"html-button-response-mod","257","2950742","0.0-257.0","76490","","","","","","triplet","1267.3000001907349","","","","0","stimuli/stim004_animate_fish_4.png","stimuli/stim016_inanimate_boats_4.png","stimuli/stim013_inanimate_boats_1.png","249"
"html-button-response","258","2952238","0.0-258.0","76490","","","","","","break","992","<p>BREAK</p><p>Take a break for as long as you need</p><p>Click the button to continue</p>","0","","","","","",""
"html-button-response-mod","259","2952991","0.0-259.0","76490","","","","","","triplet","751","","","","0","stimuli/tools_lowercase.png","stimuli/stim020_inanimate_tree_4.png","stimuli/stim023_inanimate_tools_3.png","250"
"html-button-response-mod","260","2953802","0.0-260.0","76490","","","","","","triplet","306","","","","0","stimuli/stim004_animate_fish_4.png","stimuli/bird_uppercase.png","stimuli/tree_uppercase.png","251"
"html-button-response-mod","261","2954600","0.0-261.0","76490","","","","","","triplet","280.2000000476837","","","","0","stimuli/bird_lowercase.png","stimuli/stim021_inanimate_tools_1.png","stimuli/stim003_animate_fish_3.png","252"
"html-button-response-mod","262","2955849","0.0-262.0","76490","","","","","","triplet","747","","","","1","stimuli/tools_lowercase.png","stimuli/stim022_inanimate_tools_2.png","stimuli/bird_uppercase.png","253"
"html-button-response-mod","263","2957065","0.0-263.0","76490","","","","","","triplet","712","","","","1","stimuli/stim020_inanimate_tree_4.png","stimuli/tree_uppercase.png","stimuli/stim005_animate_bird_1.png","254"
"html-button-response-mod","264","2958403","0.0-264.0","76490","","","","","","triplet","833.6000001430511","","","","0","stimuli/stim012_animate_face_4.png","stimuli/stim013_inanimate_boats_1.png","stimuli/stim019_inanimate_tree_3.png","255"
"html-button-response-mod","265","2959246","0.0-265.0","76490","","","","","","triplet","324.90000009536743","","","","0","stimuli/stim004_animate_fish_4.png","stimuli/stim020_inanimate_tree_4.png","stimuli/stim013_inanimate_boats_1.png","256"
"html-button-response-mod","266","2959934","0.0-266.0","76490","","","","","","triplet","172.10000014305115","","","","0","stimuli/tools_uppercase.png","stimuli/stim023_inanimate_tools_3.png","stimuli/boats_lowercase.png","257"
"html-button-response-mod","267","2960990","0.0-267.0","76490","","","","","","triplet","548.2000000476837","","","","0","stimuli/face_lowercase.png","stimuli/stim010_animate_face_2.png","stimuli/stim013_inanimate_boats_1.png","258"
"html-button-response-mod","268","2962283","0.0-268.0","76490","","","","","","triplet","772.8999998569489","","","","2","stimuli/stim015_inanimate_boats_3.png","stimuli/stim004_animate_fish_4.png","stimuli/tree_lowercase.png","259"
"html-button-response-mod","269","2963836","0.0-269.0","76490","","","","","","triplet","1049.7999999523163","","","","0","stimuli/stim009_animate_face_1.png","stimuli/stim002_animate_fish_2.png","stimuli/stim007_animate_bird_3.png","260"
"html-button-response-mod","270","2965039","0.0-270.0","76490","","","","","","triplet","699.0999999046326","","","","2","stimuli/stim016_inanimate_boats_4.png","stimuli/stim010_animate_face_2.png","stimuli/tools_lowercase.png","261"
"html-button-response-mod","271","2966131","0.0-271.0","76490","","","","","","triplet","589.0999999046326","","","","1","stimuli/stim013_inanimate_boats_1.png","stimuli/fish_lowercase.png","stimuli/stim022_inanimate_tools_2.png","262"
"html-button-response-mod","272","2967447","0.0-272.0","76490","","","","","","triplet","809.4000000953674","","","","1","stimuli/stim003_animate_fish_3.png","stimuli/stim018_inanimate_tree_2.png","stimuli/stim004_animate_fish_4.png","263"
"html-button-response-mod","273","2968876","0.0-273.0","76490","","","","","","triplet","913.8000001907349","","","","2","stimuli/fish_uppercase.png","stimuli/boats_uppercase.png","stimuli/stim023_inanimate_tools_3.png","264"
"html-button-response-mod","274","2970273","0.0-274.0","76490","","","","","","triplet","889.1000001430511","","","","1","stimuli/bird_uppercase.png","stimuli/stim011_animate_face_3.png","stimuli/stim021_inanimate_tools_1.png","265"
"html-button-response-mod","275","2971182","0.0-275.0","76490","","","","","","triplet","406.40000009536743","","","","0","stimuli/boats_uppercase.png","stimuli/stim024_inanimate_tools_4.png","stimuli/stim003_animate_fish_3.png","266"
"html-button-response-mod","276","2971801","0.0-276.0","76490","","","","","","triplet","108.59999990463257","","","","2","stimuli/stim022_inanimate_tools_2.png","stimuli/fish_uppercase.png","stimuli/face_uppercase.png","267"
"html-button-response-mod","277","2973364","0.0-277.0","76490","","","","","","triplet","1049","","","","1","stimuli/bird_uppercase.png","stimuli/stim023_inanimate_tools_3.png","stimuli/tools_lowercase.png","268"
"html-button-response-mod","278","2975479","0.0-278.0","76490","","","","","","triplet","1612.9000000953674","","","","1","stimuli/stim017_inanimate_tree_1.png","stimuli/stim006_animate_bird_2.png","stimuli/tree_lowercase.png","269"
"html-button-response-mod","279","2976986","0.0-279.0","76490","","","","","","triplet","989.6000001430511","","","","1","stimuli/tree_lowercase.png","stimuli/stim013_inanimate_boats_1.png","stimuli/stim020_inanimate_tree_4.png","270"
"html-button-response-mod","280","2978708","0.0-280.0","76490","","","","","","triplet","1217.9000000953674","","","","1","stimuli/fish_uppercase.png","stimuli/stim024_inanimate_tools_4.png","stimuli/stim006_animate_bird_2.png","271"
"html-button-response-mod","281","3068456","0.0-281.0","76490","","","","","","triplet","89241","","","","0","stimuli/bird_uppercase.png","stimuli/stim005_animate_bird_1.png","stimuli/stim021_inanimate_tools_1.png","272"
"html-button-response-mod","282","3070729","0.0-282.0","76490","","","","","","triplet","1758.8999998569489","","","","0","stimuli/stim022_inanimate_tools_2.png","stimuli/face_uppercase.png","stimuli/stim012_animate_face_4.png","273"
"html-button-response-mod","283","3071989","0.0-283.0","76490","","","","","","triplet","752","","","","1","stimuli/bird_uppercase.png","stimuli/stim002_animate_fish_2.png","stimuli/bird_lowercase.png","274"
"html-button-response-mod","284","3073722","0.0-284.0","76490","","","","","","triplet","1230.2000000476837","","","","1","stimuli/fish_uppercase.png","stimuli/stim005_animate_bird_1.png","stimuli/tools_uppercase.png","275"
"html-button-response-mod","285","3075341","0.0-285.0","76490","","","","","","triplet","1114.6000001430511","","","","2","stimuli/stim011_animate_face_3.png","stimuli/face_lowercase.png","stimuli/stim017_inanimate_tree_1.png","276"
"html-button-response-mod","286","3076961","0.0-286.0","76490","","","","","","triplet","1111.5","","","","0","stimuli/boats_lowercase.png","stimuli/stim021_inanimate_tools_1.png","stimuli/stim023_inanimate_tools_3.png","277"
"html-button-response-mod","287","3078187","0.0-287.0","76490","","","","","","triplet","705.5999999046326","","","","2","stimuli/stim011_animate_face_3.png","stimuli/stim003_animate_fish_3.png","stimuli/fish_uppercase.png","278"
"html-button-response-mod","288","3079391","0.0-288.0","76490","","","","","","triplet","701.2999999523163","","","","1","stimuli/stim017_inanimate_tree_1.png","stimuli/fish_uppercase.png","stimuli/stim007_animate_bird_3.png","279"
"html-button-response-mod","289","3081090","0.0-289.0","76490","","","","","","triplet","1194.8000001907349","","","","1","stimuli/stim020_inanimate_tree_4.png","stimuli/face_lowercase.png","stimuli/tree_lowercase.png","280"
"html-button-response-mod","290","3083419","0.0-290.0","76490","","","","","","triplet","1823.7999999523163","","","","0","stimuli/stim024_inanimate_tools_4.png","stimuli/stim007_animate_bird_3.png","stimuli/face_uppercase.png","281"
"html-button-response-mod","291","3085466","0.0-291.0","76490","","","","","","triplet","1540.8999998569489","","","","1","stimuli/stim014_inanimate_boats_2.png","stimuli/stim021_inanimate_tools_1.png","stimuli/stim004_animate_fish_4.png","282"
"html-button-response-mod","292","3087436","0.0-292.0","76490","","","","","","triplet","1459.4000000953674","","","","1","stimuli/fish_lowercase.png","stimuli/stim008_animate_bird_4.png","stimuli/tools_uppercase.png","283"
"html-button-response-mod","293","3089403","0.0-293.0","76490","","","","","","triplet","1453.7999999523163","","","","2","stimuli/stim008_animate_bird_4.png","stimuli/stim013_inanimate_boats_1.png","stimuli/tree_uppercase.png","284"
"html-button-response-mod","294","3091125","0.0-294.0","76490","","","","","","triplet","1212.5","","","","1","stimuli/stim022_inanimate_tools_2.png","stimuli/stim017_inanimate_tree_1.png","stimuli/stim013_inanimate_boats_1.png","285"
"html-button-response-mod","295","3093206","0.0-295.0","76490","","","","","","triplet","1563.7000000476837","","","","0","stimuli/tools_uppercase.png","stimuli/stim023_inanimate_tools_3.png","stimuli/stim024_inanimate_tools_4.png","286"
"html-button-response-mod","296","3095041","0.0-296.0","76490","","","","","","triplet","1331","","","","2","stimuli/stim012_animate_face_4.png","stimuli/stim009_animate_face_1.png","stimuli/stim022_inanimate_tools_2.png","287"
"html-button-response-mod","297","3097165","0.0-297.0","76490","","","","","","triplet","1620.4000000953674","","","","2","stimuli/bird_lowercase.png","stimuli/bird_uppercase.png","stimuli/stim020_inanimate_tree_4.png","288"
"html-button-response-mod","298","3098932","0.0-298.0","76490","","","","","","triplet","1263.7999999523163","","","","0","stimuli/stim012_animate_face_4.png","stimuli/tree_lowercase.png","stimuli/bird_lowercase.png","289"
"html-button-response-mod","299","3100811","0.0-299.0","76490","","","","","","triplet","1361.2999999523163","","","","0","stimuli/fish_uppercase.png","stimuli/stim009_animate_face_1.png","stimuli/stim005_animate_bird_1.png","290"
"html-button-response-mod","300","3102779","0.0-300.0","76490","","","","","","triplet","1451.9000000953674","","","","0","stimuli/stim012_animate_face_4.png","stimuli/stim008_animate_bird_4.png","stimuli/bird_uppercase.png","291"
"html-button-response-mod","301","3104264","0.0-301.0","76490","","","","","","triplet","981.6000001430511","","","","1","stimuli/stim013_inanimate_boats_1.png","stimuli/tools_uppercase.png","stimuli/stim019_inanimate_tree_3.png","292"
"html-button-response-mod","302","3105760","0.0-302.0","76490","","","","","","triplet","981.7000000476837","","","","2","stimuli/stim001_animate_fish_1.png","stimuli/stim005_animate_bird_1.png","stimuli/stim013_inanimate_boats_1.png","293"
"html-button-response-mod","303","3107414","0.0-303.0","76490","","","","","","triplet","1150.7000000476837","","","","1","stimuli/stim020_inanimate_tree_4.png","stimuli/fish_uppercase.png","stimuli/tree_lowercase.png","294"
"html-button-response-mod","304","3109438","0.0-304.0","76490","","","","","","triplet","1510.5","","","","1","stimuli/stim018_inanimate_tree_2.png","stimuli/stim013_inanimate_boats_1.png","stimuli/stim005_animate_bird_1.png","295"
"html-button-response-mod","305","3111543","0.0-305.0","76490","","","","","","triplet","1597.1999998092651","","","","1","stimuli/stim020_inanimate_tree_4.png","stimuli/stim023_inanimate_tools_3.png","stimuli/stim006_animate_bird_2.png","296"
"html-button-response-mod","306","3113275","0.0-306.0","76490","","","","","","triplet","1220.5999999046326","","","","1","stimuli/stim011_animate_face_3.png","stimuli/stim015_inanimate_boats_3.png","stimuli/stim024_inanimate_tools_4.png","297"
"html-button-response-mod","307","3114681","0.0-307.0","76490","","","","","","triplet","895.2000000476837","","","","0","stimuli/bird_lowercase.png","stimuli/stim006_animate_bird_2.png","stimuli/stim016_inanimate_boats_4.png","298"
"html-button-response-mod","308","3116505","0.0-308.0","76490","","","","","","triplet","1309.2000000476837","","","","2","stimuli/stim006_animate_bird_2.png","stimuli/boats_uppercase.png","stimuli/tree_lowercase.png","299"
"html-button-response","309","3118001","0.0-309.0","76490","","","","","","break","974.2999999523163","<p>BREAK</p><p>Take a break for as long as you need</p><p>Click the button to continue</p>","0","","","","","",""
"html-button-response-mod","310","3118911","0.0-310.0","76490","","","","","","triplet","908.5","","","","0","stimuli/stim016_inanimate_boats_4.png","stimuli/stim002_animate_fish_2.png","stimuli/stim001_animate_fish_1.png","300"
"html-button-response-mod","311","3120913","0.0-311.0","76490","","","","","","triplet","1500.5999999046326","","","","0","stimuli/stim009_animate_face_1.png","stimuli/stim001_animate_fish_1.png","stimuli/stim022_inanimate_tools_2.png","301"
"html-button-response-mod","312","3122141","0.0-312.0","76490","","","","","","triplet","724.5","","","","1","stimuli/stim012_animate_face_4.png","stimuli/tools_lowercase.png","stimuli/stim024_inanimate_tools_4.png","302"
"html-button-response-mod","313","3123738","0.0-313.0","76490","","","","","","triplet","1087.0999999046326","","","","2","stimuli/stim002_animate_fish_2.png","stimuli/stim011_animate_face_3.png","stimuli/stim014_inanimate_boats_2.png","303"
"html-button-response-mod","314","3125323","0.0-314.0","76490","","","","","","triplet","1081.5","","","","2","stimuli/stim020_inanimate_tree_4.png","stimuli/boats_uppercase.png","stimuli/fish_uppercase.png","304"
"html-button-response-mod","315","3126857","0.0-315.0","76490","","","","","","triplet","1011.9000000953674","","","","2","stimuli/tree_uppercase.png","stimuli/face_lowercase.png","stimuli/stim007_animate_bird_3.png","305"
"html-button-response-mod","316","3129316","0.0-316.0","76490","","","","","","triplet","1941.0999999046326","","","","1","stimuli/fish_uppercase.png","stimuli/stim005_animate_bird_1.png","stimuli/boats_lowercase.png","306"
"html-button-response-mod","317","3131229","0.0-317.0","76490","","","","","","triplet","1400","","","","1","stimuli/stim024_inanimate_tools_4.png","stimuli/face_uppercase.png","stimuli/stim008_animate_bird_4.png","307"
"html-button-response-mod","318","3132601","0.0-318.0","76490","","","","","","triplet","853.5999999046326","","","","0","stimuli/stim001_animate_fish_1.png","stimuli/fish_uppercase.png","stimuli/boats_lowercase.png","308"
"html-button-response-mod","319","3134672","0.0-319.0","76490","","","","","","triplet","1560","","","","0","stimuli/boats_uppercase.png","stimuli/face_lowercase.png","stimuli/boats_lowercase.png","309"
"html-button-response-mod","320","3137979","0.0-320.0","76490","","","","","","triplet","2803.7000000476837","","","","2","stimuli/stim015_inanimate_boats_3.png","stimuli/stim007_animate_bird_3.png","stimuli/fish_uppercase.png","310"
"html-button-response-mod","321","3139744","0.0-321.0","76490","","","","","","triplet","1252.0999999046326","","","","2","stimuli/stim016_inanimate_boats_4.png","stimuli/stim010_animate_face_2.png","stimuli/stim017_inanimate_tree_1.png","311"
"html-button-response-mod","322","3141747","0.0-322.0","76490","","","","","","triplet","1494.8999998569489","","","","1","stimuli/stim003_animate_fish_3.png","stimuli/stim023_inanimate_tools_3.png","stimuli/stim017_inanimate_tree_1.png","312"
"html-button-response-mod","323","3143423","0.0-323.0","76490","","","","","","triplet","1173.2000000476837","","","","2","stimuli/tree_lowercase.png","stimuli/stim019_inanimate_tree_3.png","stimuli/stim016_inanimate_boats_4.png","313"
"html-button-response-mod","324","3145470","0.0-324.0","76490","","","","","","triplet","1530","","","","2","stimuli/stim018_inanimate_tree_2.png","stimuli/stim016_inanimate_boats_4.png","stimuli/stim012_animate_face_4.png","314"
"html-button-response-mod","325","3147135","0.0-325.0","76490","","","","","","triplet","1158.7999999523163","","","","2","stimuli/stim006_animate_bird_2.png","stimuli/stim007_animate_bird_3.png","stimuli/stim013_inanimate_boats_1.png","315"
"html-button-response-mod","326","3148937","0.0-326.0","76490","","","","","","triplet","1297.9000000953674","","","","1","stimuli/stim005_animate_bird_1.png","stimuli/stim024_inanimate_tools_4.png","stimuli/stim001_animate_fish_1.png","316"
"html-button-response-mod","327","3150926","0.0-327.0","76490","","","","","","triplet","1483.0999999046326","","","","0","stimuli/fish_lowercase.png","stimuli/stim021_inanimate_tools_1.png","stimuli/stim006_animate_bird_2.png","317"
"html-button-response-mod","328","3170612","0.0-328.0","76490","","","","","","triplet","19170","","","","2","stimuli/stim014_inanimate_boats_2.png","stimuli/stim010_animate_face_2.png","stimuli/bird_uppercase.png","318"
"html-button-response-mod","329","3172436","0.0-329.0","76490","","","","","","triplet","1321","","","","1","stimuli/bird_lowercase.png","stimuli/stim016_inanimate_boats_4.png","stimuli/tree_uppercase.png","319"
"html-button-response-mod","330","3176553","0.0-330.0","76490","","","","","","triplet","3596.7999999523163","","","","2","stimuli/stim007_animate_bird_3.png","stimuli/bird_lowercase.png","stimuli/stim011_animate_face_3.png","320"
"html-button-response-mod","331","3178791","0.0-331.0","76490","","","","","","triplet","1729.2999999523163","","","","2","stimuli/stim004_animate_fish_4.png","stimuli/face_uppercase.png","stimuli/stim016_inanimate_boats_4.png","321"
"html-button-response-mod","332","3180117","0.0-332.0","76490","","","","","","triplet","818.5","","","","2","stimuli/stim003_animate_fish_3.png","stimuli/stim001_animate_fish_1.png","stimuli/tools_lowercase.png","322"
"html-button-response-mod","333","3246291","0.0-333.0","76490","","","","","","triplet","65667.59999990463","","","","2","stimuli/stim006_animate_bird_2.png","stimuli/stim018_inanimate_tree_2.png","stimuli/tools_uppercase.png","323"
"html-button-response-mod","334","3247719","0.0-334.0","76490","","","","","","triplet","916.4000000953674","","","","2","stimuli/stim005_animate_bird_1.png","stimuli/stim007_animate_bird_3.png","stimuli/stim023_inanimate_tools_3.png","324"
"html-button-response-mod","335","3249531","0.0-335.0","76490","","","","","","triplet","1296.2999999523163","","","","2","stimuli/stim024_inanimate_tools_4.png","stimuli/tools_uppercase.png","stimuli/tree_lowercase.png","325"
"html-button-response-mod","336","3251623","0.0-336.0","76490","","","","","","triplet","1575","","","","0","stimuli/stim019_inanimate_tree_3.png","stimuli/fish_uppercase.png","stimuli/boats_uppercase.png","326"
"html-button-response-mod","337","3253153","0.0-337.0","76490","","","","","","triplet","1015.9000000953674","","","","2","stimuli/stim008_animate_bird_4.png","stimuli/stim006_animate_bird_2.png","stimuli/stim016_inanimate_boats_4.png","327"
"html-button-response-mod","338","3255392","0.0-338.0","76490","","","","","","triplet","1735.9000000953674","","","","0","stimuli/stim009_animate_face_1.png","stimuli/stim006_animate_bird_2.png","stimuli/stim021_inanimate_tools_1.png","328"
"html-button-response-mod","339","3256901","0.0-339.0","76490","","","","","","triplet","1005.7999999523163","","","","0","stimuli/stim023_inanimate_tools_3.png","stimuli/tree_lowercase.png","stimuli/stim009_animate_face_1.png","329"
"html-button-response-mod","340","3258272","0.0-340.0","76490","","","","","","triplet","858.9000000953674","","","","0","stimuli/stim018_inanimate_tree_2.png","stimuli/stim022_inanimate_tools_2.png","stimuli/stim014_inanimate_boats_2.png","330"
"html-button-response-mod","341","3259341","0.0-341.0","76490","","","","","","triplet","565.5","","","","0","stimuli/stim010_animate_face_2.png","stimuli/stim008_animate_bird_4.png","stimuli/stim009_animate_face_1.png","331"
"html-button-response-mod","342","3261410","0.0-342.0","76490","","","","","","triplet","1550.1000001430511","","","","0","stimuli/bird_lowercase.png","stimuli/stim011_animate_face_3.png","stimuli/stim004_animate_fish_4.png","332"
"html-button-response-mod","343","3263255","0.0-343.0","76490","","","","","","triplet","1335","","","","2","stimuli/stim015_inanimate_boats_3.png","stimuli/stim020_inanimate_tree_4.png","stimuli/fish_lowercase.png","333"
"html-button-response-mod","344","3265990","0.0-344.0","76490","","","","","","triplet","2224.7999999523163","","","","0","stimuli/stim002_animate_fish_2.png","stimuli/stim016_inanimate_boats_4.png","stimuli/boats_uppercase.png","334"
"html-button-response-mod","345","3270151","0.0-345.0","76490","","","","","","triplet","3655.4000000953674","","","","1","stimuli/stim002_animate_fish_2.png","stimuli/stim016_inanimate_boats_4.png","stimuli/stim012_animate_face_4.png","335"
"html-button-response-mod","346","3293821","0.0-346.0","76490","","","","","","triplet","23166.699999809265","","","","0","stimuli/bird_uppercase.png","stimuli/stim015_inanimate_boats_3.png","stimuli/stim024_inanimate_tools_4.png","336"
"html-button-response-mod","347","3296160","0.0-347.0","76490","","","","","","triplet","1837","","","","1","stimuli/stim002_animate_fish_2.png","stimuli/stim006_animate_bird_2.png","stimuli/fish_uppercase.png","337"
"html-button-response-mod","348","3299580","0.0-348.0","76490","","","","","","triplet","2916.600000143051","","","","2","stimuli/stim016_inanimate_boats_4.png","stimuli/stim013_inanimate_boats_1.png","stimuli/tools_lowercase.png","338"
"html-button-response-mod","349","3302348","0.0-349.0","76490","","","","","","triplet","2257.5","","","","0","stimuli/stim020_inanimate_tree_4.png","stimuli/stim023_inanimate_tools_3.png","stimuli/stim008_animate_bird_4.png","339"
"html-button-response-mod","350","3304946","0.0-350.0","76490","","","","","","triplet","2078.4000000953674","","","","2","stimuli/bird_uppercase.png","stimuli/fish_uppercase.png","stimuli/stim017_inanimate_tree_1.png","340"
"html-button-response-mod","351","3306993","0.0-351.0","76490","","","","","","triplet","1535.2999999523163","","","","2","stimuli/stim018_inanimate_tree_2.png","stimuli/stim016_inanimate_boats_4.png","stimuli/stim005_animate_bird_1.png","341"
"html-button-response-mod","352","3312247","0.0-352.0","76490","","","","","","triplet","4741","","","","2","stimuli/stim024_inanimate_tools_4.png","stimuli/stim023_inanimate_tools_3.png","stimuli/tree_lowercase.png","342"
"html-button-response-mod","353","3314137","0.0-353.0","76490","","","","","","triplet","1383.7999999523163","","","","1","stimuli/tools_uppercase.png","stimuli/stim012_animate_face_4.png","stimuli/tree_lowercase.png","343"
"html-button-response-mod","354","3315602","0.0-354.0","76490","","","","","","triplet","954.0999999046326","","","","0","stimuli/stim015_inanimate_boats_3.png","stimuli/face_lowercase.png","stimuli/tree_uppercase.png","344"
"html-button-response-mod","355","3316904","0.0-355.0","76490","","","","","","triplet","797.2999999523163","","","","1","stimuli/fish_uppercase.png","stimuli/stim004_animate_fish_4.png","stimuli/tools_uppercase.png","345"
"html-button-response-mod","356","3318546","0.0-356.0","76490","","","","","","triplet","1135.3999998569489","","","","2","stimuli/stim011_animate_face_3.png","stimuli/stim023_inanimate_tools_3.png","stimuli/stim018_inanimate_tree_2.png","346"
"html-button-response-mod","357","3320257","0.0-357.0","76490","","","","","","triplet","1203.4000000953674","","","","0","stimuli/stim008_animate_bird_4.png","stimuli/stim010_animate_face_2.png","stimuli/stim011_animate_face_3.png","347"
"html-button-response-mod","358","3321754","0.0-358.0","76490","","","","","","triplet","978.6000001430511","","","","1","stimuli/boats_uppercase.png","stimuli/stim006_animate_bird_2.png","stimuli/fish_lowercase.png","348"
"html-button-response-mod","359","3323115","0.0-359.0","76490","","","","","","triplet","855.2000000476837","","","","1","stimuli/bird_uppercase.png","stimuli/stim006_animate_bird_2.png","stimuli/tree_uppercase.png","349"
"html-button-response","360","3332047","0.0-360.0","76490","","","","","","break","8427","<p>BREAK</p><p>Take a break for as long as you need</p><p>Click the button to continue</p>","0","","","","","",""
"html-button-response-mod","361","3333823","0.0-361.0","76490","","","","","","triplet","1774.3999998569489","","","","2","stimuli/boats_lowercase.png","stimuli/bird_uppercase.png","stimuli/stim011_animate_face_3.png","350"
"html-button-response-mod","362","3337424","0.0-362.0","76490","","","","","","triplet","3086","","","","0","stimuli/boats_lowercase.png","stimuli/stim009_animate_face_1.png","stimuli/stim008_animate_bird_4.png","351"
"html-button-response-mod","363","3344488","0.0-363.0","76490","","","","","","triplet","6561","","","","1","stimuli/stim024_inanimate_tools_4.png","stimuli/stim017_inanimate_tree_1.png","stimuli/tools_lowercase.png","352"
"html-button-response-mod","364","3346254","0.0-364.0","76490","","","","","","triplet","1253.0999999046326","","","","1","stimuli/stim022_inanimate_tools_2.png","stimuli/tree_lowercase.png","stimuli/stim005_animate_bird_1.png","353"
"html-button-response-mod","365","3348304","0.0-365.0","76490","","","","","","triplet","1542.7999999523163","","","","0","stimuli/stim009_animate_face_1.png","stimuli/stim020_inanimate_tree_4.png","stimuli/stim022_inanimate_tools_2.png","354"
"html-button-response-mod","366","3349721","0.0-366.0","76490","","","","","","triplet","913.2999999523163","","","","2","stimuli/stim006_animate_bird_2.png","stimuli/stim005_animate_bird_1.png","stimuli/stim016_inanimate_boats_4.png","355"
"html-button-response-mod","367","3351339","0.0-367.0","76490","","","","","","triplet","1111.5999999046326","","","","1","stimuli/stim004_animate_fish_4.png","stimuli/stim021_inanimate_tools_1.png","stimuli/stim003_animate_fish_3.png","356"
"html-button-response-mod","368","3353297","0.0-368.0","76490","","","","","","triplet","1444.5","","","","1","stimuli/tools_lowercase.png","stimuli/stim003_animate_fish_3.png","stimuli/face_lowercase.png","357"
"html-button-response-mod","369","3359845","0.0-369.0","76490","","","","","","triplet","6039.599999904633","","","","0","stimuli/face_uppercase.png","stimuli/stim007_animate_bird_3.png","stimuli/stim022_inanimate_tools_2.png","358"
"html-button-response-mod","370","3362510","0.0-370.0","76490","","","","","","triplet","2162.300000190735","","","","0","stimuli/tree_lowercase.png","stimuli/stim023_inanimate_tools_3.png","stimuli/stim005_animate_bird_1.png","359"
"html-button-response-mod","371","3401744","0.0-371.0","76490","","","","","","triplet","38719.200000047684","","","","2","stimuli/stim012_animate_face_4.png","stimuli/stim005_animate_bird_1.png","stimuli/stim018_inanimate_tree_2.png","360"
"html-button-response-mod","372","3403105","0.0-372.0","76490","","","","","","triplet","857.2000000476837","","","","1","stimuli/stim003_animate_fish_3.png","stimuli/stim015_inanimate_boats_3.png","stimuli/stim024_inanimate_tools_4.png","361"
"html-button-response-mod","373","3404410","0.0-373.0","76490","","","","","","triplet","784.9000000953674","","","","2","stimuli/stim003_animate_fish_3.png","stimuli/stim001_animate_fish_1.png","stimuli/tree_uppercase.png","362"
"html-button-response-mod","374","3405681","0.0-374.0","76490","","","","","","triplet","753.8000001907349","","","","0","stimuli/face_uppercase.png","stimuli/stim010_animate_face_2.png","stimuli/stim023_inanimate_tools_3.png","363"
"html-button-response-mod","375","3406986","0.0-375.0","76490","","","","","","triplet","795.7999999523163","","","","0","stimuli/tools_lowercase.png","stimuli/stim022_inanimate_tools_2.png","stimuli/stim019_inanimate_tree_3.png","364"
"html-button-response-mod","376","3408292","0.0-376.0","76490","","","","","","triplet","789.9000000953674","","","","1","stimuli/stim006_animate_bird_2.png","stimuli/stim013_inanimate_boats_1.png","stimuli/stim022_inanimate_tools_2.png","365"
"html-button-response-mod","377","3409709","0.0-377.0","76490","","","","","","triplet","912.1000001430511","","","","0","stimuli/stim010_animate_face_2.png","stimuli/stim020_inanimate_tree_4.png","stimuli/stim017_inanimate_tree_1.png","366"
"html-button-response-mod","378","3411812","0.0-378.0","76490","","","","","","triplet","1596.8000001907349","","","","0","stimuli/face_uppercase.png","stimuli/stim023_inanimate_tools_3.png","stimuli/stim013_inanimate_boats_1.png","367"
"html-button-response-mod","379","3413566","0.0-379.0","76490","","","","","","triplet","1244.3000001907349","","","","2","stimuli/stim016_inanimate_boats_4.png","stimuli/stim013_inanimate_boats_1.png","stimuli/stim008_animate_bird_4.png","368"
"html-button-response-mod","380","3416549","0.0-380.0","76490","","","","","","triplet","2466.199999809265","","","","0","stimuli/stim007_animate_bird_3.png","stimuli/stim021_inanimate_tools_1.png","stimuli/stim017_inanimate_tree_1.png","369"
"html-button-response-mod","381","3419270","0.0-381.0","76490","","","","","","triplet","2216","","","","0","stimuli/stim015_inanimate_boats_3.png","stimuli/stim001_animate_fish_1.png","stimuli/fish_uppercase.png","370"
"html-button-response-mod","382","3423613","0.0-382.0","76490","","","","","","triplet","3840.2999999523163","","","","2","stimuli/stim023_inanimate_tools_3.png","stimuli/stim020_inanimate_tree_4.png","stimuli/tree_lowercase.png","371"
"html-button-response-mod","383","3424996","0.0-383.0","76490","","","","","","triplet","878.0999999046326","","","","1","stimuli/stim001_animate_fish_1.png","stimuli/stim024_inanimate_tools_4.png","stimuli/stim004_animate_fish_4.png","372"
"html-button-response-mod","384","3429327","0.0-384.0","76490","","","","","","triplet","3812.9000000953674","","","","0","stimuli/fish_lowercase.png","stimuli/stim024_inanimate_tools_4.png","stimuli/stim009_animate_face_1.png","373"
"html-button-response-mod","385","3431657","0.0-385.0","76490","","","","","","triplet","1810.5","","","","2","stimuli/stim010_animate_face_2.png","stimuli/stim012_animate_face_4.png","stimuli/face_lowercase.png","374"
"html-button-response-mod","386","3433209","0.0-386.0","76490","","","","","","triplet","1032.4000000953674","","","","0","stimuli/stim009_animate_face_1.png","stimuli/stim023_inanimate_tools_3.png","stimuli/stim021_inanimate_tools_1.png","375"
"html-button-response-mod","387","3435538","0.0-387.0","76490","","","","","","triplet","1816.5","","","","1","stimuli/stim023_inanimate_tools_3.png","stimuli/stim013_inanimate_boats_1.png","stimuli/stim012_animate_face_4.png","376"
"html-button-response-mod","388","3437012","0.0-388.0","76490","","","","","","triplet","951.6999998092651","","","","1","stimuli/stim018_inanimate_tree_2.png","stimuli/bird_uppercase.png","stimuli/stim019_inanimate_tree_3.png","377"
"html-button-response-mod","389","3438653","0.0-389.0","76490","","","","","","triplet","1127","","","","2","stimuli/stim021_inanimate_tools_1.png","stimuli/stim014_inanimate_boats_2.png","stimuli/stim009_animate_face_1.png","378"
"html-button-response-mod","390","3440926","0.0-390.0","76490","","","","","","triplet","1753.6000001430511","","","","2","stimuli/stim002_animate_fish_2.png","stimuli/stim009_animate_face_1.png","stimuli/stim024_inanimate_tools_4.png","379"
"html-button-response-mod","391","3442896","0.0-391.0","76490","","","","","","triplet","1460.7000000476837","","","","0","stimuli/boats_lowercase.png","stimuli/stim006_animate_bird_2.png","stimuli/stim009_animate_face_1.png","380"
"html-button-response-mod","392","3451287","0.0-392.0","76490","","","","","","triplet","7875.5","","","","1","stimuli/stim006_animate_bird_2.png","stimuli/stim011_animate_face_3.png","stimuli/stim016_inanimate_boats_4.png","381"
"html-button-response-mod","393","3452715","0.0-393.0","76490","","","","","","triplet","916.5999999046326","","","","1","stimuli/boats_lowercase.png","stimuli/stim017_inanimate_tree_1.png","stimuli/fish_uppercase.png","382"
"html-button-response-mod","394","3458295","0.0-394.0","76490","","","","","","triplet","5060.799999952316","","","","1","stimuli/bird_lowercase.png","stimuli/stim012_animate_face_4.png","stimuli/stim007_animate_bird_3.png","383"
"html-button-response-mod","395","3459882","0.0-395.0","76490","","","","","","triplet","1083.5","","","","2","stimuli/stim013_inanimate_boats_1.png","stimuli/stim011_animate_face_3.png","stimuli/fish_lowercase.png","384"
"html-button-response-mod","396","3462402","0.0-396.0","76490","","","","","","triplet","2000.2000000476837","","","","2","stimuli/stim008_animate_bird_4.png","stimuli/stim007_animate_bird_3.png","stimuli/stim004_animate_fish_4.png","385"
"html-button-response-mod","397","3464877","0.0-397.0","76490","","","","","","triplet","1962.0999999046326","","","","2","stimuli/stim016_inanimate_boats_4.png","stimuli/stim019_inanimate_tree_3.png","stimuli/fish_uppercase.png","386"
"html-button-response-mod","398","3466565","0.0-398.0","76490","","","","","","triplet","1180.5","","","","1","stimuli/stim016_inanimate_boats_4.png","stimuli/fish_uppercase.png","stimuli/stim015_inanimate_boats_3.png","387"
"html-button-response-mod","399","3468780","0.0-399.0","76490","","","","","","triplet","1711.0999999046326","","","","1","stimuli/tree_lowercase.png","stimuli/bird_uppercase.png","stimuli/tools_lowercase.png","388"
"html-button-response-mod","400","3472032","0.0-400.0","76490","","","","","","triplet","2742.7999999523163","","","","2","stimuli/stim023_inanimate_tools_3.png","stimuli/stim014_inanimate_boats_2.png","stimuli/fish_uppercase.png","389"
"html-button-response-mod","401","3473888","0.0-401.0","76490","","","","","","triplet","1350.2999999523163","","","","2","stimuli/stim015_inanimate_boats_3.png","stimuli/stim003_animate_fish_3.png","stimuli/tools_lowercase.png","390"
"html-button-response-mod","402","3476464","0.0-402.0","76490","","","","","","triplet","2066.9000000953674","","","","0","stimuli/stim022_inanimate_tools_2.png","stimuli/bird_lowercase.png","stimuli/stim020_inanimate_tree_4.png","391"
"html-button-response-mod","403","3478669","0.0-403.0","76490","","","","","","triplet","1699.8999998569489","","","","0","stimuli/stim012_animate_face_4.png","stimuli/stim020_inanimate_tree_4.png","stimuli/stim003_animate_fish_3.png","392"
"html-button-response-mod","404","3480335","0.0-404.0","76490","","","","","","triplet","1161.4000000953674","","","","1","stimuli/bird_lowercase.png","stimuli/stim011_animate_face_3.png","stimuli/fish_lowercase.png","393"
"html-button-response-mod","405","3482201","0.0-405.0","76490","","","","","","triplet","1360.2999999523163","","","","0","stimuli/boats_uppercase.png","stimuli/bird_lowercase.png","stimuli/stim005_animate_bird_1.png","394"
"html-button-response-mod","406","3484091","0.0-406.0","76490","","","","","","triplet","1386.8999998569489","","","","0","stimuli/stim011_animate_face_3.png","stimuli/stim002_animate_fish_2.png","stimuli/stim017_inanimate_tree_1.png","395"
"html-button-response-mod","407","3485700","0.0-407.0","76490","","","","","","triplet","1101.5999999046326","","","","0","stimuli/boats_uppercase.png","stimuli/stim015_inanimate_boats_3.png","stimuli/stim019_inanimate_tree_3.png","396"
"html-button-response-mod","408","3487173","0.0-408.0","76490","","","","","","triplet","965.7000000476837","","","","2","stimuli/stim001_animate_fish_1.png","stimuli/stim023_inanimate_tools_3.png","stimuli/tree_lowercase.png","397"
"html-button-response-mod","409","3488726","0.0-409.0","76490","","","","","","triplet","1036","","","","0","stimuli/stim018_inanimate_tree_2.png","stimuli/stim013_inanimate_boats_1.png","stimuli/stim002_animate_fish_2.png","398"
"html-button-response-mod","410","3490526","0.0-410.0","76490","","","","","","triplet","1283.1000001430511","","","","0","stimuli/bird_lowercase.png","stimuli/stim007_animate_bird_3.png","stimuli/stim006_animate_bird_2.png","399"
"html-button-response","411","3492370","0.0-411.0","76490","","","","","","break","1328.8999998569489","<p>BREAK</p><p>Take a break for as long as you need</p><p>Click the button to continue</p>","0","","","","","",""
"survey-text","412","3507851","0.0-412.0","76490","","","","","","data_patterns","15458.400000095367","","{""Q0"":""Categorized the image I see""}","","","","","",""
"survey-text","413","3511225","0.0-413.0","76490","","","","","","age_question","3368.0999999046326","","{""Age"":""21""}","","","","","",""
"html-button-response","414","3513508","0.0-414.0","76490","","","","","","gender_question","2280.5999999046326","How would you like your gender to be recorded?","1","","","","","",""
