"trial_type","trial_index","time_elapsed","internal_node_id","subject","success","timeout","failed_images","failed_audio","failed_video","test_part","rt","stimulus","response","end_time","button_pressed","stim0","stim1","stim2","trialnr"
"pavlovia","0","10","0.0-0.0","73174","","","","","","","","","","","","","","",""
"preload","1","680","0.0-1.0","73174","true","false","[]","[]","[]","preload","","","","","","","","",""
"html-button-response","2","18647","0.0-2.0","73174","","","","","","","17964.600000023842","<p>Welcome to the experiment. To begin, please read the following and press the button at the bottom of the screen.</p><p></p><p><strong>Project Name: A study on cognitive processes involved in visual perception</p></strong><p></p><p><strong>PARTICIPANT INFORMATION STATEMENT</strong></p><p></p><strong>(1) What is the study about?</strong><br>You are invited to participate in a study that investigates the cognitive processes involved in perceiving and recognizing visual stimuli.If you decide to participate, you will be asked to complete a task in which you will view pictures, letters, numbers, or words presented on a computer screen.<br><strong>(2) Who can participate?</strong><br>Anyone aged 18 years or over with access to a computer (not a phone/tablet)<br><strong>(3) Where is the study located?</strong><br>The study will be conducted in your browser<br><strong>(4) Who is carrying out the study?</strong><br>The study is being conducted by Sophia Shatek from the Computational Cognitive Neuroscience laboratory at the University of Sydney.<br><strong>(5) What does the study involve?</strong><br>In this study, you will be asked to perform tasks where you will see different stimuli appear on the computer screen.You will respond by pressing a key or using a computer mouse.<br><strong>(6) How much time will the study take?</strong><br>The study takes about 30 minutes<br><strong>(7)	Can I withdraw from the study?</strong><br>Being in this study is completely voluntary - you are not under any obligation to consent. You can withdraw at any time without having to give a reason and without penalty.<br><strong>(8) Will anyone else know the results?</strong><br>All aspects of the study, including results, will be strictly confidential and only the researchers will have access to information on participants.The results and data from the study may be submitted for publication or shared with other research labs, but individual participants will not be identifiable.<br><strong>(9) Will the study benefit me?</strong><br>You will be awarded 0.5 credits for your participation.<br><strong>(10) Can I tell other people about the study?</strong><br>Yes, please tell them to contact Dr Thomas Carlson by email at thomas.carlson@sydney.edu.au.<br><strong>(11) What if I require further information about the study or my involvement in it?</strong><br>When you have read this information, the investigator will discuss it with you further and answer any questions you may have.If you would like to know more at any stage, please feel free to contact Dr Thomas Carlson directly by email at thomas.carlson@sydney.edu.au.If you would like to be informed about the outcomes of the study, contact Dr Thomas Carlson directly by email at thomas.carlson@sydney.edu.au.<br><strong>(12) What if I have a complaint or any concerns?</strong><br>Any person with concerns or complaints about the conduct of a research study can contact The Manager,Human Ethics Administration, University of Sydney on +61 2 8627 8176 (Telephone); +61 2 8627 8177 (Facsimile) or ro.humanethics@sydney.edu.au (Email).</p><p></p><strong>By participating in this experiment, you consent to participate in this study and acknowledge that:</strong><br>1. The procedures required for the project and the times involved have been explained to me, and any questions I have about the project have been answered to my satisfaction.<br>2.	I have read the Above Information Statement and have been given the opportunity to discuss the information and my involvement in the project with the researcher/s.<br>3. I understand that allowing my data to be used in research reports is completely voluntary - I am not under any obligation to consent.<br>4. I understand that my involvement is strictly confidential. I understand that any research data gathered from the results of the study may be publishedhowever no information about me will be used in any way that is identifiable.</p><p></p>","0","","","","","",""
"html-button-response","3","22846","0.0-3.0","73174","","","","","","opening_instructions","4196.699999988079","<p>In this experiment, you will see three images appear on the screen.</p><p>You need to click the 'odd one out', or the image </p><p>that LOOKS MOST DIFFERENT to the other two. </p><p>Just go with your intuition, don't spend too long thinking about each one.</p>","0","25995.100000023842","","","","",""
"html-button-response-mod","4","28267","0.0-4.0","73174","","","","","","triplet","5418.599999964237","","","","0","stimuli/bird_uppercase.png","stimuli/face_lowercase.png","stimuli/tools_lowercase.png","0"
"html-button-response-mod","5","32802","0.0-5.0","73174","","","","","","triplet","4021.600000023842","","","","2","stimuli/stim004_animate_fish_4.png","stimuli/fish_uppercase.png","stimuli/tree_uppercase.png","1"
"html-button-response-mod","6","35244","0.0-6.0","73174","","","","","","triplet","1938.4000000357628","","","","0","stimuli/stim003_animate_fish_3.png","stimuli/stim017_inanimate_tree_1.png","stimuli/stim020_inanimate_tree_4.png","2"
"html-button-response-mod","7","37581","0.0-7.0","73174","","","","","","triplet","1834.1000000238419","","","","1","stimuli/stim023_inanimate_tools_3.png","stimuli/stim012_animate_face_4.png","stimuli/tools_uppercase.png","3"
"html-button-response-mod","8","43083","0.0-8.0","73174","","","","","","triplet","5000.100000023842","","","","0","stimuli/boats_lowercase.png","stimuli/stim017_inanimate_tree_1.png","stimuli/stim022_inanimate_tools_2.png","4"
"html-button-response-mod","9","45766","0.0-9.0","73174","","","","","","triplet","2177.800000011921","","","","2","stimuli/stim005_animate_bird_1.png","stimuli/stim007_animate_bird_3.png","stimuli/tree_lowercase.png","5"
"html-button-response-mod","10","48270","0.0-10.0","73174","","","","","","triplet","1999.800000011921","","","","0","stimuli/tools_lowercase.png","stimuli/stim016_inanimate_boats_4.png","stimuli/boats_uppercase.png","6"
"html-button-response-mod","11","68569","0.0-11.0","73174","","","","","","triplet","19794.69999998808","","","","0","stimuli/stim005_animate_bird_1.png","stimuli/stim006_animate_bird_2.png","stimuli/stim007_animate_bird_3.png","7"
"html-button-response-mod","12","71049","0.0-12.0","73174","","","","","","triplet","1976","","","","2","stimuli/stim004_animate_fish_4.png","stimuli/fish_uppercase.png","stimuli/stim010_animate_face_2.png","8"
"html-button-response-mod","13","75410","0.0-13.0","73174","","","","","","triplet","3857.199999988079","","","","1","stimuli/stim017_inanimate_tree_1.png","stimuli/stim021_inanimate_tools_1.png","stimuli/stim004_animate_fish_4.png","9"
"html-button-response-mod","14","81616","0.0-14.0","73174","","","","","","triplet","5702.5","","","","1","stimuli/stim020_inanimate_tree_4.png","stimuli/face_uppercase.png","stimuli/fish_lowercase.png","10"
"html-button-response-mod","15","83696","0.0-15.0","73174","","","","","","triplet","1567.800000011921","","","","0","stimuli/tools_lowercase.png","stimuli/stim006_animate_bird_2.png","stimuli/stim007_animate_bird_3.png","11"
"html-button-response-mod","16","86912","0.0-16.0","73174","","","","","","triplet","2701.699999988079","","","","2","stimuli/stim021_inanimate_tools_1.png","stimuli/stim013_inanimate_boats_1.png","stimuli/stim019_inanimate_tree_3.png","12"
"html-button-response-mod","17","89205","0.0-17.0","73174","","","","","","triplet","1789.0999999642372","","","","1","stimuli/stim007_animate_bird_3.png","stimuli/stim016_inanimate_boats_4.png","stimuli/bird_uppercase.png","13"
"html-button-response-mod","18","91323","0.0-18.0","73174","","","","","","triplet","1614.0999999642372","","","","2","stimuli/stim001_animate_fish_1.png","stimuli/stim005_animate_bird_1.png","stimuli/stim020_inanimate_tree_4.png","14"
"html-button-response-mod","19","97973","0.0-19.0","73174","","","","","","triplet","6146.600000023842","","","","0","stimuli/tree_uppercase.png","stimuli/stim012_animate_face_4.png","stimuli/stim021_inanimate_tools_1.png","15"
"html-button-response-mod","20","102250","0.0-20.0","73174","","","","","","triplet","3772.199999988079","","","","1","stimuli/boats_lowercase.png","stimuli/tree_uppercase.png","stimuli/boats_uppercase.png","16"
"html-button-response-mod","21","106117","0.0-21.0","73174","","","","","","triplet","3364.399999976158","","","","0","stimuli/face_lowercase.png","stimuli/stim014_inanimate_boats_2.png","stimuli/stim005_animate_bird_1.png","17"
"html-button-response-mod","22","110810","0.0-22.0","73174","","","","","","triplet","4181.700000047684","","","","1","stimuli/stim020_inanimate_tree_4.png","stimuli/tools_lowercase.png","stimuli/stim007_animate_bird_3.png","18"
"html-button-response-mod","23","114743","0.0-23.0","73174","","","","","","triplet","3428.800000011921","","","","2","stimuli/stim008_animate_bird_4.png","stimuli/fish_uppercase.png","stimuli/stim011_animate_face_3.png","19"
"html-button-response-mod","24","117242","0.0-24.0","73174","","","","","","triplet","1994.8999999761581","","","","2","stimuli/stim005_animate_bird_1.png","stimuli/stim003_animate_fish_3.png","stimuli/tools_lowercase.png","20"
"html-button-response-mod","25","121223","0.0-25.0","73174","","","","","","triplet","3476.899999976158","","","","0","stimuli/stim005_animate_bird_1.png","stimuli/fish_lowercase.png","stimuli/stim014_inanimate_boats_2.png","21"
"html-button-response-mod","26","123182","0.0-26.0","73174","","","","","","triplet","1455.5999999642372","","","","2","stimuli/stim018_inanimate_tree_2.png","stimuli/stim017_inanimate_tree_1.png","stimuli/stim004_animate_fish_4.png","22"
"html-button-response-mod","27","127034","0.0-27.0","73174","","","","","","triplet","3349.399999976158","","","","2","stimuli/stim021_inanimate_tools_1.png","stimuli/stim023_inanimate_tools_3.png","stimuli/stim014_inanimate_boats_2.png","23"
"html-button-response-mod","28","129640","0.0-28.0","73174","","","","","","triplet","2103.199999988079","","","","0","stimuli/face_uppercase.png","stimuli/stim015_inanimate_boats_3.png","stimuli/stim017_inanimate_tree_1.png","24"
"html-button-response-mod","29","131869","0.0-29.0","73174","","","","","","triplet","1724.8999999761581","","","","1","stimuli/bird_lowercase.png","stimuli/stim017_inanimate_tree_1.png","stimuli/stim006_animate_bird_2.png","25"
"html-button-response-mod","30","134456","0.0-30.0","73174","","","","","","triplet","2084.199999988079","","","","2","stimuli/stim005_animate_bird_1.png","stimuli/bird_lowercase.png","stimuli/stim011_animate_face_3.png","26"
"html-button-response-mod","31","136313","0.0-31.0","73174","","","","","","triplet","1353.800000011921","","","","2","stimuli/stim007_animate_bird_3.png","stimuli/stim006_animate_bird_2.png","stimuli/stim012_animate_face_4.png","27"
"html-button-response-mod","32","140244","0.0-32.0","73174","","","","","","triplet","3428.199999988079","","","","0","stimuli/face_lowercase.png","stimuli/stim016_inanimate_boats_4.png","stimuli/stim018_inanimate_tree_2.png","28"
"html-button-response-mod","33","143158","0.0-33.0","73174","","","","","","triplet","2411.300000011921","","","","0","stimuli/boats_lowercase.png","stimuli/stim019_inanimate_tree_3.png","stimuli/stim002_animate_fish_2.png","29"
"html-button-response-mod","34","145595","0.0-34.0","73174","","","","","","triplet","1932.300000011921","","","","1","stimuli/stim002_animate_fish_2.png","stimuli/stim018_inanimate_tree_2.png","stimuli/stim015_inanimate_boats_3.png","30"
"html-button-response-mod","35","149855","0.0-35.0","73174","","","","","","triplet","3756.5","","","","1","stimuli/fish_lowercase.png","stimuli/stim017_inanimate_tree_1.png","stimuli/bird_lowercase.png","31"
"html-button-response-mod","36","152066","0.0-36.0","73174","","","","","","triplet","1707","","","","2","stimuli/boats_lowercase.png","stimuli/stim015_inanimate_boats_3.png","stimuli/stim011_animate_face_3.png","32"
"html-button-response-mod","37","154993","0.0-37.0","73174","","","","","","triplet","2421.5","","","","0","stimuli/bird_lowercase.png","stimuli/stim002_animate_fish_2.png","stimuli/fish_lowercase.png","33"
"html-button-response-mod","38","157175","0.0-38.0","73174","","","","","","triplet","1677.199999988079","","","","1","stimuli/stim023_inanimate_tools_3.png","stimuli/stim001_animate_fish_1.png","stimuli/stim024_inanimate_tools_4.png","34"
"html-button-response-mod","39","159745","0.0-39.0","73174","","","","","","triplet","2066.199999988079","","","","0","stimuli/stim010_animate_face_2.png","stimuli/tree_uppercase.png","stimuli/stim001_animate_fish_1.png","35"
"html-button-response-mod","40","162284","0.0-40.0","73174","","","","","","triplet","2035.5","","","","0","stimuli/stim010_animate_face_2.png","stimuli/stim017_inanimate_tree_1.png","stimuli/stim016_inanimate_boats_4.png","36"
"html-button-response-mod","41","164646","0.0-41.0","73174","","","","","","triplet","1858.300000011921","","","","2","stimuli/stim003_animate_fish_3.png","stimuli/stim020_inanimate_tree_4.png","stimuli/face_uppercase.png","37"
"html-button-response-mod","42","168175","0.0-42.0","73174","","","","","","triplet","3026.300000011921","","","","0","stimuli/stim013_inanimate_boats_1.png","stimuli/stim007_animate_bird_3.png","stimuli/stim003_animate_fish_3.png","38"
"html-button-response-mod","43","170875","0.0-43.0","73174","","","","","","triplet","2196.600000023842","","","","1","stimuli/tools_lowercase.png","stimuli/stim020_inanimate_tree_4.png","stimuli/stim024_inanimate_tools_4.png","39"
"html-button-response-mod","44","176422","0.0-44.0","73174","","","","","","triplet","5042","","","","2","stimuli/fish_uppercase.png","stimuli/stim013_inanimate_boats_1.png","stimuli/tools_lowercase.png","40"
"html-button-response-mod","45","182474","0.0-45.0","73174","","","","","","triplet","5547.399999976158","","","","2","stimuli/fish_uppercase.png","stimuli/bird_uppercase.png","stimuli/tree_uppercase.png","41"
"html-button-response-mod","46","186972","0.0-46.0","73174","","","","","","triplet","3993.399999976158","","","","2","stimuli/stim013_inanimate_boats_1.png","stimuli/tree_lowercase.png","stimuli/face_uppercase.png","42"
"html-button-response-mod","47","191078","0.0-47.0","73174","","","","","","triplet","3602.400000035763","","","","1","stimuli/bird_uppercase.png","stimuli/stim010_animate_face_2.png","stimuli/stim007_animate_bird_3.png","43"
"html-button-response-mod","48","195103","0.0-48.0","73174","","","","","","triplet","3520.2000000476837","","","","1","stimuli/fish_uppercase.png","stimuli/bird_lowercase.png","stimuli/stim016_inanimate_boats_4.png","44"
"html-button-response-mod","49","199212","0.0-49.0","73174","","","","","","triplet","3606.900000035763","","","","2","stimuli/tree_uppercase.png","stimuli/tools_uppercase.png","stimuli/stim016_inanimate_boats_4.png","45"
"html-button-response-mod","50","202444","0.0-50.0","73174","","","","","","triplet","2728","","","","0","stimuli/boats_lowercase.png","stimuli/bird_lowercase.png","stimuli/stim006_animate_bird_2.png","46"
"html-button-response-mod","51","207481","0.0-51.0","73174","","","","","","triplet","4534.199999988079","","","","1","stimuli/stim023_inanimate_tools_3.png","stimuli/stim011_animate_face_3.png","stimuli/stim021_inanimate_tools_1.png","47"
"html-button-response-mod","52","210595","0.0-52.0","73174","","","","","","triplet","2610","","","","1","stimuli/stim001_animate_fish_1.png","stimuli/boats_uppercase.png","stimuli/stim005_animate_bird_1.png","48"
"html-button-response-mod","53","213570","0.0-53.0","73174","","","","","","triplet","2470.300000011921","","","","0","stimuli/fish_uppercase.png","stimuli/stim011_animate_face_3.png","stimuli/stim012_animate_face_4.png","49"
"html-button-response","54","224494","0.0-54.0","73174","","","","","","break","10421.699999988079","<p>BREAK</p><p>Take a break for as long as you need</p><p>Click the button to continue</p>","0","","","","","",""
"html-button-response-mod","55","226313","0.0-55.0","73174","","","","","","triplet","1814.800000011921","","","","2","stimuli/fish_lowercase.png","stimuli/stim001_animate_fish_1.png","stimuli/stim017_inanimate_tree_1.png","50"
"html-button-response-mod","56","238381","0.0-56.0","73174","","","","","","triplet","11558.200000047684","","","","0","stimuli/boats_lowercase.png","stimuli/stim020_inanimate_tree_4.png","stimuli/tree_lowercase.png","51"
"html-button-response-mod","57","240952","0.0-57.0","73174","","","","","","triplet","2065.800000011921","","","","0","stimuli/stim006_animate_bird_2.png","stimuli/stim016_inanimate_boats_4.png","stimuli/stim013_inanimate_boats_1.png","52"
"html-button-response-mod","58","245819","0.0-58.0","73174","","","","","","triplet","4365.100000023842","","","","2","stimuli/stim018_inanimate_tree_2.png","stimuli/stim010_animate_face_2.png","stimuli/bird_uppercase.png","53"
"html-button-response-mod","59","248102","0.0-59.0","73174","","","","","","triplet","1780.8999999761581","","","","0","stimuli/stim020_inanimate_tree_4.png","stimuli/stim007_animate_bird_3.png","stimuli/stim006_animate_bird_2.png","54"
"html-button-response-mod","60","250604","0.0-60.0","73174","","","","","","triplet","1998.8999999761581","","","","0","stimuli/stim009_animate_face_1.png","stimuli/tree_uppercase.png","stimuli/stim020_inanimate_tree_4.png","55"
"html-button-response-mod","61","253715","0.0-61.0","73174","","","","","","triplet","2606.400000035763","","","","0","stimuli/stim021_inanimate_tools_1.png","stimuli/stim013_inanimate_boats_1.png","stimuli/stim016_inanimate_boats_4.png","56"
"html-button-response-mod","62","256776","0.0-62.0","73174","","","","","","triplet","2557.899999976158","","","","1","stimuli/stim015_inanimate_boats_3.png","stimuli/tools_uppercase.png","stimuli/stim014_inanimate_boats_2.png","57"
"html-button-response-mod","63","264881","0.0-63.0","73174","","","","","","triplet","7600.200000047684","","","","0","stimuli/stim002_animate_fish_2.png","stimuli/stim004_animate_fish_4.png","stimuli/stim003_animate_fish_3.png","58"
"html-button-response-mod","64","266821","0.0-64.0","73174","","","","","","triplet","1437.3999999761581","","","","1","stimuli/stim007_animate_bird_3.png","stimuli/stim001_animate_fish_1.png","stimuli/stim005_animate_bird_1.png","59"
"html-button-response-mod","65","270410","0.0-65.0","73174","","","","","","triplet","3085.5","","","","0","stimuli/boats_lowercase.png","stimuli/stim012_animate_face_4.png","stimuli/face_uppercase.png","60"
"html-button-response-mod","66","273489","0.0-66.0","73174","","","","","","triplet","2575.100000023842","","","","1","stimuli/stim019_inanimate_tree_3.png","stimuli/stim021_inanimate_tools_1.png","stimuli/stim003_animate_fish_3.png","61"
"html-button-response-mod","67","276156","0.0-67.0","73174","","","","","","triplet","2165.199999988079","","","","0","stimuli/fish_uppercase.png","stimuli/stim022_inanimate_tools_2.png","stimuli/stim021_inanimate_tools_1.png","62"
"html-button-response-mod","68","279453","0.0-68.0","73174","","","","","","triplet","2792.800000011921","","","","0","stimuli/stim017_inanimate_tree_1.png","stimuli/stim009_animate_face_1.png","stimuli/stim010_animate_face_2.png","63"
"html-button-response-mod","69","283038","0.0-69.0","73174","","","","","","triplet","3081.800000011921","","","","1","stimuli/tree_uppercase.png","stimuli/stim006_animate_bird_2.png","stimuli/tools_uppercase.png","64"
"html-button-response-mod","70","287650","0.0-70.0","73174","","","","","","triplet","4108.300000011921","","","","1","stimuli/stim015_inanimate_boats_3.png","stimuli/stim011_animate_face_3.png","stimuli/tree_uppercase.png","65"
"html-button-response-mod","71","289476","0.0-71.0","73174","","","","","","triplet","1320.800000011921","","","","2","stimuli/stim006_animate_bird_2.png","stimuli/stim005_animate_bird_1.png","stimuli/face_uppercase.png","66"
"html-button-response-mod","72","292060","0.0-72.0","73174","","","","","","triplet","2080","","","","2","stimuli/stim010_animate_face_2.png","stimuli/stim011_animate_face_3.png","stimuli/stim013_inanimate_boats_1.png","67"
"html-button-response-mod","73","296443","0.0-73.0","73174","","","","","","triplet","3877.900000035763","","","","1","stimuli/stim001_animate_fish_1.png","stimuli/boats_lowercase.png","stimuli/stim017_inanimate_tree_1.png","68"
"html-button-response-mod","74","301361","0.0-74.0","73174","","","","","","triplet","4411.299999952316","","","","1","stimuli/face_uppercase.png","stimuli/boats_uppercase.png","stimuli/face_lowercase.png","69"
"html-button-response-mod","75","303675","0.0-75.0","73174","","","","","","triplet","1810","","","","1","stimuli/stim002_animate_fish_2.png","stimuli/boats_lowercase.png","stimuli/stim001_animate_fish_1.png","70"
"html-button-response-mod","76","307138","0.0-76.0","73174","","","","","","triplet","2958.399999976158","","","","0","stimuli/stim013_inanimate_boats_1.png","stimuli/stim001_animate_fish_1.png","stimuli/stim002_animate_fish_2.png","71"
"html-button-response-mod","77","310930","0.0-77.0","73174","","","","","","triplet","3282.300000011921","","","","0","stimuli/face_uppercase.png","stimuli/bird_lowercase.png","stimuli/fish_lowercase.png","72"
"html-button-response-mod","78","313352","0.0-78.0","73174","","","","","","triplet","1917.800000011921","","","","1","stimuli/tools_uppercase.png","stimuli/stim009_animate_face_1.png","stimuli/boats_uppercase.png","73"
"html-button-response-mod","79","316734","0.0-79.0","73174","","","","","","triplet","2877.100000023842","","","","2","stimuli/bird_lowercase.png","stimuli/boats_lowercase.png","stimuli/stim024_inanimate_tools_4.png","74"
"html-button-response-mod","80","318927","0.0-80.0","73174","","","","","","triplet","1687.699999988079","","","","1","stimuli/stim004_animate_fish_4.png","stimuli/stim014_inanimate_boats_2.png","stimuli/stim003_animate_fish_3.png","75"
"html-button-response-mod","81","321477","0.0-81.0","73174","","","","","","triplet","2047.5999999642372","","","","0","stimuli/stim020_inanimate_tree_4.png","stimuli/stim003_animate_fish_3.png","stimuli/stim002_animate_fish_2.png","76"
"html-button-response-mod","82","323677","0.0-82.0","73174","","","","","","triplet","1685","","","","0","stimuli/bird_uppercase.png","stimuli/stim007_animate_bird_3.png","stimuli/stim006_animate_bird_2.png","77"
"html-button-response-mod","83","325800","0.0-83.0","73174","","","","","","triplet","1619.8999999761581","","","","2","stimuli/stim006_animate_bird_2.png","stimuli/stim005_animate_bird_1.png","stimuli/fish_uppercase.png","78"
"html-button-response-mod","84","327761","0.0-84.0","73174","","","","","","triplet","1458.300000011921","","","","1","stimuli/stim004_animate_fish_4.png","stimuli/stim023_inanimate_tools_3.png","stimuli/stim003_animate_fish_3.png","79"
"html-button-response-mod","85","330935","0.0-85.0","73174","","","","","","triplet","2670.400000035763","","","","2","stimuli/tree_uppercase.png","stimuli/stim007_animate_bird_3.png","stimuli/fish_lowercase.png","80"
"html-button-response-mod","86","333891","0.0-86.0","73174","","","","","","triplet","2452.800000011921","","","","0","stimuli/face_uppercase.png","stimuli/boats_lowercase.png","stimuli/tree_lowercase.png","81"
"html-button-response-mod","87","336388","0.0-87.0","73174","","","","","","triplet","1993","","","","2","stimuli/stim014_inanimate_boats_2.png","stimuli/stim015_inanimate_boats_3.png","stimuli/face_lowercase.png","82"
"html-button-response-mod","88","339149","0.0-88.0","73174","","","","","","triplet","2256.800000011921","","","","2","stimuli/stim016_inanimate_boats_4.png","stimuli/stim015_inanimate_boats_3.png","stimuli/bird_uppercase.png","83"
"html-button-response-mod","89","341933","0.0-89.0","73174","","","","","","triplet","2279.5","","","","0","stimuli/tree_uppercase.png","stimuli/stim013_inanimate_boats_1.png","stimuli/boats_lowercase.png","84"
"html-button-response-mod","90","346050","0.0-90.0","73174","","","","","","triplet","3611.800000011921","","","","1","stimuli/face_uppercase.png","stimuli/stim023_inanimate_tools_3.png","stimuli/stim008_animate_bird_4.png","85"
"html-button-response-mod","91","348923","0.0-91.0","73174","","","","","","triplet","2370.199999988079","","","","1","stimuli/tree_lowercase.png","stimuli/stim021_inanimate_tools_1.png","stimuli/fish_lowercase.png","86"
"html-button-response-mod","92","351466","0.0-92.0","73174","","","","","","triplet","2038.800000011921","","","","1","stimuli/stim006_animate_bird_2.png","stimuli/fish_uppercase.png","stimuli/stim008_animate_bird_4.png","87"
"html-button-response-mod","93","355642","0.0-93.0","73174","","","","","","triplet","3672.300000011921","","","","1","stimuli/stim016_inanimate_boats_4.png","stimuli/tree_lowercase.png","stimuli/stim006_animate_bird_2.png","88"
"html-button-response-mod","94","362560","0.0-94.0","73174","","","","","","triplet","6413.5","","","","2","stimuli/stim012_animate_face_4.png","stimuli/stim021_inanimate_tools_1.png","stimuli/stim006_animate_bird_2.png","89"
"html-button-response-mod","95","364661","0.0-95.0","73174","","","","","","triplet","1596.699999988079","","","","2","stimuli/stim006_animate_bird_2.png","stimuli/stim013_inanimate_boats_1.png","stimuli/stim023_inanimate_tools_3.png","90"
"html-button-response-mod","96","367127","0.0-96.0","73174","","","","","","triplet","1961","","","","2","stimuli/stim020_inanimate_tree_4.png","stimuli/tree_lowercase.png","stimuli/face_lowercase.png","91"
"html-button-response-mod","97","371324","0.0-97.0","73174","","","","","","triplet","3693.7000000476837","","","","0","stimuli/stim013_inanimate_boats_1.png","stimuli/stim019_inanimate_tree_3.png","stimuli/stim006_animate_bird_2.png","92"
"html-button-response-mod","98","375660","0.0-98.0","73174","","","","","","triplet","3833.099999964237","","","","0","stimuli/face_lowercase.png","stimuli/fish_uppercase.png","stimuli/bird_lowercase.png","93"
"html-button-response-mod","99","378911","0.0-99.0","73174","","","","","","triplet","2745.099999964237","","","","0","stimuli/stim006_animate_bird_2.png","stimuli/fish_lowercase.png","stimuli/stim004_animate_fish_4.png","94"
"html-button-response-mod","100","380966","0.0-100.0","73174","","","","","","triplet","1550.3999999761581","","","","2","stimuli/stim015_inanimate_boats_3.png","stimuli/stim016_inanimate_boats_4.png","stimuli/stim023_inanimate_tools_3.png","95"
"html-button-response-mod","101","384919","0.0-101.0","73174","","","","","","triplet","3448.599999964237","","","","0","stimuli/stim019_inanimate_tree_3.png","stimuli/stim009_animate_face_1.png","stimuli/face_uppercase.png","96"
"html-button-response-mod","102","387733","0.0-102.0","73174","","","","","","triplet","2308.900000035763","","","","1","stimuli/stim019_inanimate_tree_3.png","stimuli/stim012_animate_face_4.png","stimuli/stim007_animate_bird_3.png","97"
"html-button-response-mod","103","395386","0.0-103.0","73174","","","","","","triplet","7148.199999988079","","","","0","stimuli/stim011_animate_face_3.png","stimuli/stim016_inanimate_boats_4.png","stimuli/stim008_animate_bird_4.png","98"
"html-button-response-mod","104","397523","0.0-104.0","73174","","","","","","triplet","1632.699999988079","","","","2","stimuli/stim012_animate_face_4.png","stimuli/stim009_animate_face_1.png","stimuli/stim014_inanimate_boats_2.png","99"
"html-button-response","105","466592","0.0-105.0","73174","","","","","","break","68566.30000001192","<p>BREAK</p><p>Take a break for as long as you need</p><p>Click the button to continue</p>","0","","","","","",""
"html-button-response-mod","106","468549","0.0-106.0","73174","","","","","","triplet","1952.3999999761581","","","","2","stimuli/stim005_animate_bird_1.png","stimuli/stim002_animate_fish_2.png","stimuli/face_uppercase.png","100"
"html-button-response-mod","107","470849","0.0-107.0","73174","","","","","","triplet","1795.699999988079","","","","2","stimuli/stim019_inanimate_tree_3.png","stimuli/fish_uppercase.png","stimuli/stim012_animate_face_4.png","101"
"html-button-response-mod","108","474095","0.0-108.0","73174","","","","","","triplet","2742.099999964237","","","","2","stimuli/stim003_animate_fish_3.png","stimuli/fish_lowercase.png","stimuli/stim009_animate_face_1.png","102"
"html-button-response-mod","109","476888","0.0-109.0","73174","","","","","","triplet","2289.800000011921","","","","1","stimuli/stim008_animate_bird_4.png","stimuli/stim021_inanimate_tools_1.png","stimuli/stim006_animate_bird_2.png","103"
"html-button-response-mod","110","479230","0.0-110.0","73174","","","","","","triplet","1837.199999988079","","","","1","stimuli/stim013_inanimate_boats_1.png","stimuli/stim018_inanimate_tree_2.png","stimuli/stim015_inanimate_boats_3.png","104"
"html-button-response-mod","111","481614","0.0-111.0","73174","","","","","","triplet","1879.300000011921","","","","0","stimuli/stim014_inanimate_boats_2.png","stimuli/stim019_inanimate_tree_3.png","stimuli/tree_lowercase.png","105"
"html-button-response-mod","112","487698","0.0-112.0","73174","","","","","","triplet","5578.5","","","","0","stimuli/stim024_inanimate_tools_4.png","stimuli/stim020_inanimate_tree_4.png","stimuli/stim002_animate_fish_2.png","106"
"html-button-response-mod","113","489754","0.0-113.0","73174","","","","","","triplet","1550.800000011921","","","","2","stimuli/stim020_inanimate_tree_4.png","stimuli/tree_lowercase.png","stimuli/stim024_inanimate_tools_4.png","107"
"html-button-response-mod","114","494179","0.0-114.0","73174","","","","","","triplet","3921.400000035763","","","","0","stimuli/stim022_inanimate_tools_2.png","stimuli/fish_lowercase.png","stimuli/stim015_inanimate_boats_3.png","108"
"html-button-response-mod","115","496756","0.0-115.0","73174","","","","","","triplet","2073.899999976158","","","","1","stimuli/stim018_inanimate_tree_2.png","stimuli/stim007_animate_bird_3.png","stimuli/tree_uppercase.png","109"
"html-button-response-mod","116","499538","0.0-116.0","73174","","","","","","triplet","2268.100000023842","","","","2","stimuli/stim015_inanimate_boats_3.png","stimuli/boats_uppercase.png","stimuli/stim001_animate_fish_1.png","110"
"html-button-response-mod","117","504102","0.0-117.0","73174","","","","","","triplet","4060.5","","","","1","stimuli/tools_uppercase.png","stimuli/tree_lowercase.png","stimuli/stim013_inanimate_boats_1.png","111"
"html-button-response-mod","118","506320","0.0-118.0","73174","","","","","","triplet","1715","","","","1","stimuli/tools_uppercase.png","stimuli/bird_lowercase.png","stimuli/stim013_inanimate_boats_1.png","112"
"html-button-response-mod","119","509538","0.0-119.0","73174","","","","","","triplet","2713.399999976158","","","","2","stimuli/stim002_animate_fish_2.png","stimuli/stim013_inanimate_boats_1.png","stimuli/stim024_inanimate_tools_4.png","113"
"html-button-response-mod","120","514007","0.0-120.0","73174","","","","","","triplet","3965.800000011921","","","","2","stimuli/tree_lowercase.png","stimuli/stim022_inanimate_tools_2.png","stimuli/face_lowercase.png","114"
"html-button-response-mod","121","517253","0.0-121.0","73174","","","","","","triplet","2744","","","","0","stimuli/stim023_inanimate_tools_3.png","stimuli/stim008_animate_bird_4.png","stimuli/stim005_animate_bird_1.png","115"
"html-button-response-mod","122","520748","0.0-122.0","73174","","","","","","triplet","2990.199999988079","","","","0","stimuli/face_uppercase.png","stimuli/stim007_animate_bird_3.png","stimuli/stim004_animate_fish_4.png","116"
"html-button-response-mod","123","523370","0.0-123.0","73174","","","","","","triplet","2117.600000023842","","","","1","stimuli/boats_lowercase.png","stimuli/stim009_animate_face_1.png","stimuli/stim004_animate_fish_4.png","117"
"html-button-response-mod","124","526608","0.0-124.0","73174","","","","","","triplet","2734.199999988079","","","","0","stimuli/boats_uppercase.png","stimuli/stim006_animate_bird_2.png","stimuli/stim017_inanimate_tree_1.png","118"
"html-button-response-mod","125","529230","0.0-125.0","73174","","","","","","triplet","2118.400000035763","","","","0","stimuli/stim017_inanimate_tree_1.png","stimuli/stim016_inanimate_boats_4.png","stimuli/boats_uppercase.png","119"
"html-button-response-mod","126","531712","0.0-126.0","73174","","","","","","triplet","1977.800000011921","","","","2","stimuli/stim003_animate_fish_3.png","stimuli/stim019_inanimate_tree_3.png","stimuli/bird_uppercase.png","120"
"html-button-response-mod","127","535676","0.0-127.0","73174","","","","","","triplet","3460.199999988079","","","","1","stimuli/stim017_inanimate_tree_1.png","stimuli/stim002_animate_fish_2.png","stimuli/stim006_animate_bird_2.png","121"
"html-button-response-mod","128","538526","0.0-128.0","73174","","","","","","triplet","2341.699999988079","","","","2","stimuli/boats_uppercase.png","stimuli/tree_lowercase.png","stimuli/stim010_animate_face_2.png","122"
"html-button-response-mod","129","540913","0.0-129.0","73174","","","","","","triplet","1884.0999999642372","","","","2","stimuli/boats_lowercase.png","stimuli/stim016_inanimate_boats_4.png","stimuli/tools_uppercase.png","123"
"html-button-response-mod","130","543519","0.0-130.0","73174","","","","","","triplet","2101.5","","","","1","stimuli/tools_lowercase.png","stimuli/boats_uppercase.png","stimuli/stim024_inanimate_tools_4.png","124"
"html-button-response-mod","131","548792","0.0-131.0","73174","","","","","","triplet","4770","","","","1","stimuli/stim021_inanimate_tools_1.png","stimuli/boats_uppercase.png","stimuli/tools_uppercase.png","125"
"html-button-response-mod","132","557974","0.0-132.0","73174","","","","","","triplet","8676.299999952316","","","","1","stimuli/boats_lowercase.png","stimuli/stim007_animate_bird_3.png","stimuli/fish_uppercase.png","126"
"html-button-response-mod","133","562098","0.0-133.0","73174","","","","","","triplet","3619.7000000476837","","","","2","stimuli/tools_uppercase.png","stimuli/stim016_inanimate_boats_4.png","stimuli/stim007_animate_bird_3.png","127"
"html-button-response-mod","134","567200","0.0-134.0","73174","","","","","","triplet","4598.5","","","","1","stimuli/stim003_animate_fish_3.png","stimuli/bird_lowercase.png","stimuli/stim015_inanimate_boats_3.png","128"
"html-button-response-mod","135","570272","0.0-135.0","73174","","","","","","triplet","2567.5","","","","0","stimuli/boats_lowercase.png","stimuli/stim006_animate_bird_2.png","stimuli/tree_uppercase.png","129"
"html-button-response-mod","136","578092","0.0-136.0","73174","","","","","","triplet","7316.399999976158","","","","1","stimuli/stim008_animate_bird_4.png","stimuli/boats_lowercase.png","stimuli/stim014_inanimate_boats_2.png","130"
"html-button-response-mod","137","580821","0.0-137.0","73174","","","","","","triplet","2225.5","","","","0","stimuli/tree_uppercase.png","stimuli/stim014_inanimate_boats_2.png","stimuli/stim005_animate_bird_1.png","131"
"html-button-response-mod","138","586677","0.0-138.0","73174","","","","","","triplet","5350.5","","","","0","stimuli/bird_lowercase.png","stimuli/stim020_inanimate_tree_4.png","stimuli/stim016_inanimate_boats_4.png","132"
"html-button-response-mod","139","588668","0.0-139.0","73174","","","","","","triplet","1477","","","","2","stimuli/stim003_animate_fish_3.png","stimuli/stim002_animate_fish_2.png","stimuli/bird_uppercase.png","133"
"html-button-response-mod","140","597528","0.0-140.0","73174","","","","","","triplet","8357.600000023842","","","","1","stimuli/stim016_inanimate_boats_4.png","stimuli/stim011_animate_face_3.png","stimuli/stim007_animate_bird_3.png","134"
"html-button-response-mod","141","602959","0.0-141.0","73174","","","","","","triplet","4926","","","","2","stimuli/stim014_inanimate_boats_2.png","stimuli/stim001_animate_fish_1.png","stimuli/stim022_inanimate_tools_2.png","135"
"html-button-response-mod","142","605482","0.0-142.0","73174","","","","","","triplet","2018.7999999523163","","","","0","stimuli/stim019_inanimate_tree_3.png","stimuli/stim024_inanimate_tools_4.png","stimuli/stim023_inanimate_tools_3.png","136"
"html-button-response-mod","143","609165","0.0-143.0","73174","","","","","","triplet","3181.199999988079","","","","1","stimuli/stim002_animate_fish_2.png","stimuli/stim011_animate_face_3.png","stimuli/stim014_inanimate_boats_2.png","137"
"html-button-response-mod","144","614766","0.0-144.0","73174","","","","","","triplet","5096.399999976158","","","","2","stimuli/tools_uppercase.png","stimuli/fish_lowercase.png","stimuli/stim010_animate_face_2.png","138"
"html-button-response-mod","145","617703","0.0-145.0","73174","","","","","","triplet","2430","","","","0","stimuli/tree_uppercase.png","stimuli/stim005_animate_bird_1.png","stimuli/stim001_animate_fish_1.png","139"
"html-button-response-mod","146","620540","0.0-146.0","73174","","","","","","triplet","2334.599999964237","","","","2","stimuli/tools_lowercase.png","stimuli/bird_lowercase.png","stimuli/stim012_animate_face_4.png","140"
"html-button-response-mod","147","623566","0.0-147.0","73174","","","","","","triplet","2523.199999988079","","","","1","stimuli/fish_lowercase.png","stimuli/stim018_inanimate_tree_2.png","stimuli/stim002_animate_fish_2.png","141"
"html-button-response-mod","148","628863","0.0-148.0","73174","","","","","","triplet","4795.399999976158","","","","0","stimuli/tools_uppercase.png","stimuli/stim015_inanimate_boats_3.png","stimuli/tree_lowercase.png","142"
"html-button-response-mod","149","630914","0.0-149.0","73174","","","","","","triplet","1546.5","","","","0","stimuli/stim011_animate_face_3.png","stimuli/fish_lowercase.png","stimuli/stim018_inanimate_tree_2.png","143"
"html-button-response-mod","150","633839","0.0-150.0","73174","","","","","","triplet","2422.600000023842","","","","0","stimuli/fish_uppercase.png","stimuli/stim016_inanimate_boats_4.png","stimuli/stim007_animate_bird_3.png","144"
"html-button-response-mod","151","639648","0.0-151.0","73174","","","","","","triplet","5306.099999964237","","","","1","stimuli/stim010_animate_face_2.png","stimuli/stim024_inanimate_tools_4.png","stimuli/fish_lowercase.png","145"
"html-button-response-mod","152","643191","0.0-152.0","73174","","","","","","triplet","3039.399999976158","","","","0","stimuli/face_uppercase.png","stimuli/stim014_inanimate_boats_2.png","stimuli/stim023_inanimate_tools_3.png","146"
"html-button-response-mod","153","645485","0.0-153.0","73174","","","","","","triplet","1788.6000000238419","","","","0","stimuli/tools_lowercase.png","stimuli/face_uppercase.png","stimuli/stim016_inanimate_boats_4.png","147"
"html-button-response-mod","154","652989","0.0-154.0","73174","","","","","","triplet","7000.900000035763","","","","0","stimuli/face_lowercase.png","stimuli/bird_lowercase.png","stimuli/stim017_inanimate_tree_1.png","148"
"html-button-response-mod","155","656817","0.0-155.0","73174","","","","","","triplet","3323.399999976158","","","","1","stimuli/face_uppercase.png","stimuli/boats_uppercase.png","stimuli/stim009_animate_face_1.png","149"
"html-button-response","156","813329","0.0-156.0","73174","","","","","","break","156003.70000004768","<p>BREAK</p><p>Take a break for as long as you need</p><p>Click the button to continue</p>","0","","","","","",""
"html-button-response-mod","157","818505","0.0-157.0","73174","","","","","","triplet","5174.300000011921","","","","2","stimuli/stim019_inanimate_tree_3.png","stimuli/stim003_animate_fish_3.png","stimuli/stim023_inanimate_tools_3.png","150"
"html-button-response-mod","158","820748","0.0-158.0","73174","","","","","","triplet","1740.4000000357628","","","","1","stimuli/stim004_animate_fish_4.png","stimuli/stim008_animate_bird_4.png","stimuli/stim016_inanimate_boats_4.png","151"
"html-button-response-mod","159","822636","0.0-159.0","73174","","","","","","triplet","1385.199999988079","","","","1","stimuli/stim019_inanimate_tree_3.png","stimuli/stim023_inanimate_tools_3.png","stimuli/stim004_animate_fish_4.png","152"
"html-button-response-mod","160","824787","0.0-160.0","73174","","","","","","triplet","1646.800000011921","","","","0","stimuli/boats_lowercase.png","stimuli/fish_uppercase.png","stimuli/stim002_animate_fish_2.png","153"
"html-button-response-mod","161","826986","0.0-161.0","73174","","","","","","triplet","1695.199999988079","","","","2","stimuli/stim020_inanimate_tree_4.png","stimuli/stim004_animate_fish_4.png","stimuli/tools_uppercase.png","154"
"html-button-response-mod","162","829348","0.0-162.0","73174","","","","","","triplet","1856.8999999761581","","","","2","stimuli/stim008_animate_bird_4.png","stimuli/stim014_inanimate_boats_2.png","stimuli/tools_lowercase.png","155"
"html-button-response-mod","163","832078","0.0-163.0","73174","","","","","","triplet","2226","","","","2","stimuli/stim015_inanimate_boats_3.png","stimuli/stim022_inanimate_tools_2.png","stimuli/face_lowercase.png","156"
"html-button-response-mod","164","835023","0.0-164.0","73174","","","","","","triplet","2441.5","","","","0","stimuli/stim004_animate_fish_4.png","stimuli/tree_lowercase.png","stimuli/boats_uppercase.png","157"
"html-button-response-mod","165","836897","0.0-165.0","73174","","","","","","triplet","1371.5","","","","1","stimuli/stim004_animate_fish_4.png","stimuli/boats_lowercase.png","stimuli/stim006_animate_bird_2.png","158"
"html-button-response-mod","166","839441","0.0-166.0","73174","","","","","","triplet","2029.1000000238419","","","","1","stimuli/stim002_animate_fish_2.png","stimuli/boats_uppercase.png","stimuli/stim020_inanimate_tree_4.png","159"
"html-button-response-mod","167","841752","0.0-167.0","73174","","","","","","triplet","1805.1000000238419","","","","2","stimuli/stim017_inanimate_tree_1.png","stimuli/stim015_inanimate_boats_3.png","stimuli/tools_uppercase.png","160"
"html-button-response-mod","168","843656","0.0-168.0","73174","","","","","","triplet","1401.199999988079","","","","2","stimuli/stim009_animate_face_1.png","stimuli/stim011_animate_face_3.png","stimuli/tree_uppercase.png","161"
"html-button-response-mod","169","845455","0.0-169.0","73174","","","","","","triplet","1294.9000000357628","","","","2","stimuli/stim002_animate_fish_2.png","stimuli/stim019_inanimate_tree_3.png","stimuli/boats_uppercase.png","162"
"html-button-response-mod","170","850813","0.0-170.0","73174","","","","","","triplet","4852.800000011921","","","","2","stimuli/stim005_animate_bird_1.png","stimuli/stim009_animate_face_1.png","stimuli/stim021_inanimate_tools_1.png","163"
"html-button-response-mod","171","860249","0.0-171.0","73174","","","","","","triplet","8931.300000011921","","","","0","stimuli/stim012_animate_face_4.png","stimuli/bird_lowercase.png","stimuli/boats_uppercase.png","164"
"html-button-response-mod","172","863995","0.0-172.0","73174","","","","","","triplet","3240.699999988079","","","","1","stimuli/stim001_animate_fish_1.png","stimuli/bird_uppercase.png","stimuli/stim013_inanimate_boats_1.png","165"
"html-button-response-mod","173","867328","0.0-173.0","73174","","","","","","triplet","2831.199999988079","","","","1","stimuli/stim015_inanimate_boats_3.png","stimuli/tools_uppercase.png","stimuli/stim002_animate_fish_2.png","166"
"html-button-response-mod","174","869308","0.0-174.0","73174","","","","","","triplet","1475.800000011921","","","","1","stimuli/stim024_inanimate_tools_4.png","stimuli/stim011_animate_face_3.png","stimuli/stim021_inanimate_tools_1.png","167"
"html-button-response-mod","175","871448","0.0-175.0","73174","","","","","","triplet","1636.8999999761581","","","","1","stimuli/tree_uppercase.png","stimuli/stim001_animate_fish_1.png","stimuli/stim018_inanimate_tree_2.png","168"
"html-button-response-mod","176","873654","0.0-176.0","73174","","","","","","triplet","1699.800000011921","","","","1","stimuli/stim013_inanimate_boats_1.png","stimuli/boats_uppercase.png","stimuli/stim015_inanimate_boats_3.png","169"
"html-button-response-mod","177","877134","0.0-177.0","73174","","","","","","triplet","2975.5","","","","2","stimuli/stim007_animate_bird_3.png","stimuli/stim019_inanimate_tree_3.png","stimuli/boats_uppercase.png","170"
"html-button-response-mod","178","880286","0.0-178.0","73174","","","","","","triplet","2647.600000023842","","","","2","stimuli/bird_lowercase.png","stimuli/fish_lowercase.png","stimuli/tools_lowercase.png","171"
"html-button-response-mod","179","882653","0.0-179.0","73174","","","","","","triplet","1862.300000011921","","","","2","stimuli/stim017_inanimate_tree_1.png","stimuli/stim003_animate_fish_3.png","stimuli/bird_lowercase.png","172"
"html-button-response-mod","180","884198","0.0-180.0","73174","","","","","","triplet","1040.3999999761581","","","","2","stimuli/stim002_animate_fish_2.png","stimuli/stim003_animate_fish_3.png","stimuli/stim009_animate_face_1.png","173"
"html-button-response-mod","181","886804","0.0-181.0","73174","","","","","","triplet","2102.699999988079","","","","1","stimuli/stim012_animate_face_4.png","stimuli/tree_uppercase.png","stimuli/stim003_animate_fish_3.png","174"
"html-button-response-mod","182","889847","0.0-182.0","73174","","","","","","triplet","2539.5","","","","0","stimuli/stim021_inanimate_tools_1.png","stimuli/stim006_animate_bird_2.png","stimuli/stim019_inanimate_tree_3.png","175"
"html-button-response-mod","183","891824","0.0-183.0","73174","","","","","","triplet","1473.3999999761581","","","","2","stimuli/stim010_animate_face_2.png","stimuli/stim009_animate_face_1.png","stimuli/stim015_inanimate_boats_3.png","176"
"html-button-response-mod","184","894882","0.0-184.0","73174","","","","","","triplet","2555.400000035763","","","","2","stimuli/face_uppercase.png","stimuli/stim010_animate_face_2.png","stimuli/stim002_animate_fish_2.png","177"
"html-button-response-mod","185","897694","0.0-185.0","73174","","","","","","triplet","2307.7000000476837","","","","0","stimuli/tools_lowercase.png","stimuli/stim017_inanimate_tree_1.png","stimuli/stim010_animate_face_2.png","178"
"html-button-response-mod","186","902617","0.0-186.0","73174","","","","","","triplet","4420.900000035763","","","","0","stimuli/stim009_animate_face_1.png","stimuli/fish_lowercase.png","stimuli/fish_uppercase.png","179"
"html-button-response-mod","187","907838","0.0-187.0","73174","","","","","","triplet","4716.199999988079","","","","2","stimuli/stim010_animate_face_2.png","stimuli/stim012_animate_face_4.png","stimuli/boats_lowercase.png","180"
"html-button-response-mod","188","910678","0.0-188.0","73174","","","","","","triplet","2336.600000023842","","","","2","stimuli/stim005_animate_bird_1.png","stimuli/bird_uppercase.png","stimuli/fish_lowercase.png","181"
"html-button-response-mod","189","912941","0.0-189.0","73174","","","","","","triplet","1758.699999988079","","","","2","stimuli/face_uppercase.png","stimuli/tree_uppercase.png","stimuli/stim006_animate_bird_2.png","182"
"html-button-response-mod","190","917801","0.0-190.0","73174","","","","","","triplet","4357.199999988079","","","","1","stimuli/stim020_inanimate_tree_4.png","stimuli/stim024_inanimate_tools_4.png","stimuli/boats_uppercase.png","183"
"html-button-response-mod","191","919787","0.0-191.0","73174","","","","","","triplet","1482.300000011921","","","","0","stimuli/stim004_animate_fish_4.png","stimuli/stim011_animate_face_3.png","stimuli/stim010_animate_face_2.png","184"
"html-button-response-mod","192","921892","0.0-192.0","73174","","","","","","triplet","1599.6000000238419","","","","0","stimuli/boats_uppercase.png","stimuli/stim012_animate_face_4.png","stimuli/stim018_inanimate_tree_2.png","185"
"html-button-response-mod","193","924371","0.0-193.0","73174","","","","","","triplet","1976.699999988079","","","","0","stimuli/bird_uppercase.png","stimuli/stim010_animate_face_2.png","stimuli/stim012_animate_face_4.png","186"
"html-button-response-mod","194","926413","0.0-194.0","73174","","","","","","triplet","1538.3999999761581","","","","2","stimuli/stim003_animate_fish_3.png","stimuli/fish_lowercase.png","stimuli/stim020_inanimate_tree_4.png","187"
"html-button-response-mod","195","929703","0.0-195.0","73174","","","","","","triplet","2784.900000035763","","","","2","stimuli/stim001_animate_fish_1.png","stimuli/stim006_animate_bird_2.png","stimuli/tools_uppercase.png","188"
"html-button-response-mod","196","932752","0.0-196.0","73174","","","","","","triplet","2545.399999976158","","","","1","stimuli/tools_uppercase.png","stimuli/stim014_inanimate_boats_2.png","stimuli/tree_lowercase.png","189"
"html-button-response-mod","197","935211","0.0-197.0","73174","","","","","","triplet","1953.5","","","","0","stimuli/stim013_inanimate_boats_1.png","stimuli/stim020_inanimate_tree_4.png","stimuli/stim008_animate_bird_4.png","190"
"html-button-response-mod","198","938043","0.0-198.0","73174","","","","","","triplet","2328.7999999523163","","","","2","stimuli/stim008_animate_bird_4.png","stimuli/stim015_inanimate_boats_3.png","stimuli/bird_lowercase.png","191"
"html-button-response-mod","199","940511","0.0-199.0","73174","","","","","","triplet","1964.7999999523163","","","","0","stimuli/stim012_animate_face_4.png","stimuli/tree_lowercase.png","stimuli/stim006_animate_bird_2.png","192"
"html-button-response-mod","200","943023","0.0-200.0","73174","","","","","","triplet","2006.1000000238419","","","","2","stimuli/boats_uppercase.png","stimuli/stim015_inanimate_boats_3.png","stimuli/stim023_inanimate_tools_3.png","193"
"html-button-response-mod","201","946947","0.0-201.0","73174","","","","","","triplet","3419","","","","2","stimuli/stim006_animate_bird_2.png","stimuli/stim002_animate_fish_2.png","stimuli/face_uppercase.png","194"
"html-button-response-mod","202","950912","0.0-202.0","73174","","","","","","triplet","3459.900000035763","","","","1","stimuli/tree_lowercase.png","stimuli/stim020_inanimate_tree_4.png","stimuli/tree_uppercase.png","195"
"html-button-response-mod","203","953206","0.0-203.0","73174","","","","","","triplet","1789.7999999523163","","","","0","stimuli/stim002_animate_fish_2.png","stimuli/stim019_inanimate_tree_3.png","stimuli/stim008_animate_bird_4.png","196"
"html-button-response-mod","204","955141","0.0-204.0","73174","","","","","","triplet","1431","","","","2","stimuli/stim019_inanimate_tree_3.png","stimuli/bird_lowercase.png","stimuli/stim021_inanimate_tools_1.png","197"
"html-button-response-mod","205","963251","0.0-205.0","73174","","","","","","triplet","7607.699999988079","","","","0","stimuli/face_lowercase.png","stimuli/stim015_inanimate_boats_3.png","stimuli/stim013_inanimate_boats_1.png","198"
"html-button-response-mod","206","965387","0.0-206.0","73174","","","","","","triplet","1629","","","","2","stimuli/stim024_inanimate_tools_4.png","stimuli/stim021_inanimate_tools_1.png","stimuli/stim005_animate_bird_1.png","199"
"html-button-response","207","975863","0.0-207.0","73174","","","","","","break","9973.100000023842","<p>BREAK</p><p>Take a break for as long as you need</p><p>Click the button to continue</p>","0","","","","","",""
"html-button-response-mod","208","977941","0.0-208.0","73174","","","","","","triplet","2077","","","","0","stimuli/tools_uppercase.png","stimuli/tree_lowercase.png","stimuli/stim016_inanimate_boats_4.png","200"
"html-button-response-mod","209","979909","0.0-209.0","73174","","","","","","triplet","1463.8999999761581","","","","2","stimuli/boats_lowercase.png","stimuli/stim013_inanimate_boats_1.png","stimuli/tools_lowercase.png","201"
"html-button-response-mod","210","981827","0.0-210.0","73174","","","","","","triplet","1414.300000011921","","","","1","stimuli/stim018_inanimate_tree_2.png","stimuli/face_lowercase.png","stimuli/tree_lowercase.png","202"
"html-button-response-mod","211","984807","0.0-211.0","73174","","","","","","triplet","2474.199999988079","","","","2","stimuli/stim016_inanimate_boats_4.png","stimuli/stim020_inanimate_tree_4.png","stimuli/stim011_animate_face_3.png","203"
"html-button-response-mod","212","987398","0.0-212.0","73174","","","","","","triplet","2085.099999964237","","","","1","stimuli/fish_lowercase.png","stimuli/stim017_inanimate_tree_1.png","stimuli/stim013_inanimate_boats_1.png","204"
"html-button-response-mod","213","989538","0.0-213.0","73174","","","","","","triplet","1637","","","","1","stimuli/stim021_inanimate_tools_1.png","stimuli/bird_lowercase.png","stimuli/stim018_inanimate_tree_2.png","205"
"html-button-response-mod","214","991679","0.0-214.0","73174","","","","","","triplet","1638.300000011921","","","","0","stimuli/fish_uppercase.png","stimuli/stim010_animate_face_2.png","stimuli/stim019_inanimate_tree_3.png","206"
"html-button-response-mod","215","993927","0.0-215.0","73174","","","","","","triplet","1745.4000000357628","","","","2","stimuli/bird_lowercase.png","stimuli/boats_lowercase.png","stimuli/stim010_animate_face_2.png","207"
"html-button-response-mod","216","996004","0.0-216.0","73174","","","","","","triplet","1572","","","","1","stimuli/stim016_inanimate_boats_4.png","stimuli/boats_lowercase.png","stimuli/stim001_animate_fish_1.png","208"
"html-button-response-mod","217","998463","0.0-217.0","73174","","","","","","triplet","1956.199999988079","","","","0","stimuli/stim022_inanimate_tools_2.png","stimuli/stim003_animate_fish_3.png","stimuli/stim006_animate_bird_2.png","209"
"html-button-response-mod","218","1000108","0.0-218.0","73174","","","","","","triplet","1141.2999999523163","","","","1","stimuli/stim003_animate_fish_3.png","stimuli/stim012_animate_face_4.png","stimuli/stim002_animate_fish_2.png","210"
"html-button-response-mod","219","1002638","0.0-219.0","73174","","","","","","triplet","2027.800000011921","","","","2","stimuli/stim015_inanimate_boats_3.png","stimuli/stim007_animate_bird_3.png","stimuli/face_lowercase.png","211"
"html-button-response-mod","220","1004571","0.0-220.0","73174","","","","","","triplet","1429.199999988079","","","","1","stimuli/stim004_animate_fish_4.png","stimuli/fish_lowercase.png","stimuli/stim002_animate_fish_2.png","212"
"html-button-response-mod","221","1006317","0.0-221.0","73174","","","","","","triplet","1243","","","","1","stimuli/fish_uppercase.png","stimuli/stim014_inanimate_boats_2.png","stimuli/tools_uppercase.png","213"
"html-button-response-mod","222","1008393","0.0-222.0","73174","","","","","","triplet","1572.199999988079","","","","2","stimuli/stim016_inanimate_boats_4.png","stimuli/stim005_animate_bird_1.png","stimuli/face_uppercase.png","214"
"html-button-response-mod","223","1010308","0.0-223.0","73174","","","","","","triplet","1410.6000000238419","","","","1","stimuli/stim017_inanimate_tree_1.png","stimuli/fish_lowercase.png","stimuli/stim012_animate_face_4.png","215"
"html-button-response-mod","224","1012323","0.0-224.0","73174","","","","","","triplet","1512.0999999642372","","","","1","stimuli/stim017_inanimate_tree_1.png","stimuli/stim023_inanimate_tools_3.png","stimuli/stim013_inanimate_boats_1.png","216"
"html-button-response-mod","225","1016319","0.0-225.0","73174","","","","","","triplet","3491.099999964237","","","","0","stimuli/stim012_animate_face_4.png","stimuli/stim003_animate_fish_3.png","stimuli/boats_lowercase.png","217"
"html-button-response-mod","226","1018077","0.0-226.0","73174","","","","","","triplet","1254.2999999523163","","","","2","stimuli/stim014_inanimate_boats_2.png","stimuli/stim012_animate_face_4.png","stimuli/stim022_inanimate_tools_2.png","218"
"html-button-response-mod","227","1020390","0.0-227.0","73174","","","","","","triplet","1809.0999999642372","","","","1","stimuli/stim005_animate_bird_1.png","stimuli/tree_lowercase.png","stimuli/stim001_animate_fish_1.png","219"
"html-button-response-mod","228","1022452","0.0-228.0","73174","","","","","","triplet","1559.199999988079","","","","0","stimuli/tree_uppercase.png","stimuli/stim003_animate_fish_3.png","stimuli/stim004_animate_fish_4.png","220"
"html-button-response-mod","229","1024232","0.0-229.0","73174","","","","","","triplet","1275.3999999761581","","","","1","stimuli/stim022_inanimate_tools_2.png","stimuli/boats_lowercase.png","stimuli/stim009_animate_face_1.png","221"
"html-button-response-mod","230","1027667","0.0-230.0","73174","","","","","","triplet","2930.899999976158","","","","0","stimuli/stim023_inanimate_tools_3.png","stimuli/stim001_animate_fish_1.png","stimuli/bird_uppercase.png","222"
"html-button-response-mod","231","1030202","0.0-231.0","73174","","","","","","triplet","2029.7999999523163","","","","0","stimuli/stim014_inanimate_boats_2.png","stimuli/stim001_animate_fish_1.png","stimuli/bird_uppercase.png","223"
"html-button-response-mod","232","1032342","0.0-232.0","73174","","","","","","triplet","1636","","","","1","stimuli/boats_lowercase.png","stimuli/fish_uppercase.png","stimuli/stim015_inanimate_boats_3.png","224"
"html-button-response-mod","233","1034556","0.0-233.0","73174","","","","","","triplet","1709.6000000238419","","","","1","stimuli/stim024_inanimate_tools_4.png","stimuli/stim002_animate_fish_2.png","stimuli/stim023_inanimate_tools_3.png","225"
"html-button-response-mod","234","1036947","0.0-234.0","73174","","","","","","triplet","1887.5","","","","1","stimuli/stim024_inanimate_tools_4.png","stimuli/stim017_inanimate_tree_1.png","stimuli/tools_lowercase.png","226"
"html-button-response-mod","235","1039192","0.0-235.0","73174","","","","","","triplet","1741.2999999523163","","","","2","stimuli/boats_lowercase.png","stimuli/bird_lowercase.png","stimuli/face_uppercase.png","227"
"html-button-response-mod","236","1040835","0.0-236.0","73174","","","","","","triplet","1137.4000000357628","","","","1","stimuli/stim015_inanimate_boats_3.png","stimuli/face_uppercase.png","stimuli/stim005_animate_bird_1.png","228"
"html-button-response-mod","237","1042833","0.0-237.0","73174","","","","","","triplet","1493.300000011921","","","","2","stimuli/face_uppercase.png","stimuli/fish_uppercase.png","stimuli/stim007_animate_bird_3.png","229"
"html-button-response-mod","238","1044686","0.0-238.0","73174","","","","","","triplet","1349.2000000476837","","","","1","stimuli/stim002_animate_fish_2.png","stimuli/boats_lowercase.png","stimuli/stim006_animate_bird_2.png","230"
"html-button-response-mod","239","1046445","0.0-239.0","73174","","","","","","triplet","1255.4000000357628","","","","2","stimuli/tools_uppercase.png","stimuli/fish_uppercase.png","stimuli/stim005_animate_bird_1.png","231"
"html-button-response-mod","240","1048189","0.0-240.0","73174","","","","","","triplet","1240.0999999642372","","","","1","stimuli/stim020_inanimate_tree_4.png","stimuli/bird_lowercase.png","stimuli/stim010_animate_face_2.png","232"
"html-button-response-mod","241","1051393","0.0-241.0","73174","","","","","","triplet","2700.699999988079","","","","2","stimuli/bird_lowercase.png","stimuli/fish_uppercase.png","stimuli/stim012_animate_face_4.png","233"
"html-button-response-mod","242","1053388","0.0-242.0","73174","","","","","","triplet","1490.4000000357628","","","","0","stimuli/face_uppercase.png","stimuli/stim002_animate_fish_2.png","stimuli/stim007_animate_bird_3.png","234"
"html-button-response-mod","243","1056121","0.0-243.0","73174","","","","","","triplet","2229.2000000476837","","","","1","stimuli/stim013_inanimate_boats_1.png","stimuli/stim001_animate_fish_1.png","stimuli/stim009_animate_face_1.png","235"
"html-button-response-mod","244","1057938","0.0-244.0","73174","","","","","","triplet","1310.9000000357628","","","","2","stimuli/stim003_animate_fish_3.png","stimuli/stim007_animate_bird_3.png","stimuli/bird_uppercase.png","236"
"html-button-response-mod","245","1059891","0.0-245.0","73174","","","","","","triplet","1448.199999988079","","","","2","stimuli/tree_lowercase.png","stimuli/tools_lowercase.png","stimuli/stim014_inanimate_boats_2.png","237"
"html-button-response-mod","246","1062660","0.0-246.0","73174","","","","","","triplet","2265.300000011921","","","","2","stimuli/stim013_inanimate_boats_1.png","stimuli/stim019_inanimate_tree_3.png","stimuli/tree_lowercase.png","238"
"html-button-response-mod","247","1064603","0.0-247.0","73174","","","","","","triplet","1438.5999999642372","","","","1","stimuli/boats_lowercase.png","stimuli/tree_uppercase.png","stimuli/stim016_inanimate_boats_4.png","239"
"html-button-response-mod","248","1066914","0.0-248.0","73174","","","","","","triplet","1806.199999988079","","","","1","stimuli/stim016_inanimate_boats_4.png","stimuli/stim023_inanimate_tools_3.png","stimuli/stim002_animate_fish_2.png","240"
"html-button-response-mod","249","1069274","0.0-249.0","73174","","","","","","triplet","1855.2000000476837","","","","2","stimuli/fish_lowercase.png","stimuli/stim002_animate_fish_2.png","stimuli/bird_uppercase.png","241"
"html-button-response-mod","250","1071256","0.0-250.0","73174","","","","","","triplet","1476.9000000357628","","","","1","stimuli/stim003_animate_fish_3.png","stimuli/stim023_inanimate_tools_3.png","stimuli/stim016_inanimate_boats_4.png","242"
"html-button-response-mod","251","1073351","0.0-251.0","73174","","","","","","triplet","1590.7000000476837","","","","2","stimuli/stim011_animate_face_3.png","stimuli/stim009_animate_face_1.png","stimuli/tools_lowercase.png","243"
"html-button-response-mod","252","1075958","0.0-252.0","73174","","","","","","triplet","2102.600000023842","","","","2","stimuli/stim007_animate_bird_3.png","stimuli/stim019_inanimate_tree_3.png","stimuli/face_lowercase.png","244"
"html-button-response-mod","253","1078149","0.0-253.0","73174","","","","","","triplet","1686.3999999761581","","","","0","stimuli/stim005_animate_bird_1.png","stimuli/stim016_inanimate_boats_4.png","stimuli/stim014_inanimate_boats_2.png","245"
"html-button-response-mod","254","1080174","0.0-254.0","73174","","","","","","triplet","1521.300000011921","","","","0","stimuli/stim005_animate_bird_1.png","stimuli/stim016_inanimate_boats_4.png","stimuli/boats_uppercase.png","246"
"html-button-response-mod","255","1084467","0.0-255.0","73174","","","","","","triplet","3790.300000011921","","","","1","stimuli/tree_uppercase.png","stimuli/stim017_inanimate_tree_1.png","stimuli/bird_uppercase.png","247"
"html-button-response-mod","256","1086371","0.0-256.0","73174","","","","","","triplet","1400.699999988079","","","","1","stimuli/stim017_inanimate_tree_1.png","stimuli/bird_uppercase.png","stimuli/stim019_inanimate_tree_3.png","248"
"html-button-response-mod","257","1088776","0.0-257.0","73174","","","","","","triplet","1901.800000011921","","","","0","stimuli/face_uppercase.png","stimuli/tree_lowercase.png","stimuli/stim004_animate_fish_4.png","249"
"html-button-response","258","1108199","0.0-258.0","73174","","","","","","break","18911.30000001192","<p>BREAK</p><p>Take a break for as long as you need</p><p>Click the button to continue</p>","0","","","","","",""
"html-button-response-mod","259","1109656","0.0-259.0","73174","","","","","","triplet","1454.8999999761581","","","","2","stimuli/stim024_inanimate_tools_4.png","stimuli/stim021_inanimate_tools_1.png","stimuli/tools_uppercase.png","250"
"html-button-response-mod","260","1111438","0.0-260.0","73174","","","","","","triplet","1276.199999988079","","","","0","stimuli/face_uppercase.png","stimuli/stim008_animate_bird_4.png","stimuli/stim002_animate_fish_2.png","251"
"html-button-response-mod","261","1113132","0.0-261.0","73174","","","","","","triplet","1185","","","","2","stimuli/stim019_inanimate_tree_3.png","stimuli/stim018_inanimate_tree_2.png","stimuli/fish_uppercase.png","252"
"html-button-response-mod","262","1115573","0.0-262.0","73174","","","","","","triplet","1937.0999999642372","","","","0","stimuli/stim006_animate_bird_2.png","stimuli/face_uppercase.png","stimuli/bird_uppercase.png","253"
"html-button-response-mod","263","1117571","0.0-263.0","73174","","","","","","triplet","1492.9000000357628","","","","0","stimuli/boats_uppercase.png","stimuli/tools_lowercase.png","stimuli/stim012_animate_face_4.png","254"
"html-button-response-mod","264","1119704","0.0-264.0","73174","","","","","","triplet","1629.300000011921","","","","1","stimuli/stim024_inanimate_tools_4.png","stimuli/tree_uppercase.png","stimuli/stim003_animate_fish_3.png","255"
"html-button-response-mod","265","1122617","0.0-265.0","73174","","","","","","triplet","2407.699999988079","","","","0","stimuli/tree_lowercase.png","stimuli/stim007_animate_bird_3.png","stimuli/stim004_animate_fish_4.png","256"
"html-button-response-mod","266","1124347","0.0-266.0","73174","","","","","","triplet","1214.5999999642372","","","","0","stimuli/stim021_inanimate_tools_1.png","stimuli/stim003_animate_fish_3.png","stimuli/stim016_inanimate_boats_4.png","257"
"html-button-response-mod","267","1125951","0.0-267.0","73174","","","","","","triplet","1100.1000000238419","","","","0","stimuli/boats_uppercase.png","stimuli/stim002_animate_fish_2.png","stimuli/stim004_animate_fish_4.png","258"
"html-button-response-mod","268","1128449","0.0-268.0","73174","","","","","","triplet","1993.3999999761581","","","","2","stimuli/stim002_animate_fish_2.png","stimuli/stim019_inanimate_tree_3.png","stimuli/stim010_animate_face_2.png","259"
"html-button-response-mod","269","1130694","0.0-269.0","73174","","","","","","triplet","1739.9000000357628","","","","0","stimuli/stim013_inanimate_boats_1.png","stimuli/stim022_inanimate_tools_2.png","stimuli/tools_lowercase.png","260"
"html-button-response-mod","270","1133366","0.0-270.0","73174","","","","","","triplet","2167.699999988079","","","","1","stimuli/fish_lowercase.png","stimuli/stim021_inanimate_tools_1.png","stimuli/stim015_inanimate_boats_3.png","261"
"html-button-response-mod","271","1137218","0.0-271.0","73174","","","","","","triplet","3348","","","","1","stimuli/bird_uppercase.png","stimuli/stim016_inanimate_boats_4.png","stimuli/tree_lowercase.png","262"
"html-button-response-mod","272","1140194","0.0-272.0","73174","","","","","","triplet","2464.100000023842","","","","0","stimuli/face_lowercase.png","stimuli/stim014_inanimate_boats_2.png","stimuli/stim024_inanimate_tools_4.png","263"
"html-button-response-mod","273","1142052","0.0-273.0","73174","","","","","","triplet","1352.5","","","","1","stimuli/tree_uppercase.png","stimuli/stim013_inanimate_boats_1.png","stimuli/stim018_inanimate_tree_2.png","264"
"html-button-response-mod","274","1145918","0.0-274.0","73174","","","","","","triplet","3361","","","","2","stimuli/stim007_animate_bird_3.png","stimuli/boats_uppercase.png","stimuli/face_lowercase.png","265"
"html-button-response-mod","275","1148467","0.0-275.0","73174","","","","","","triplet","2044.6000000238419","","","","1","stimuli/boats_lowercase.png","stimuli/stim021_inanimate_tools_1.png","stimuli/stim012_animate_face_4.png","266"
"html-button-response-mod","276","1151434","0.0-276.0","73174","","","","","","triplet","2461.800000011921","","","","1","stimuli/stim009_animate_face_1.png","stimuli/stim007_animate_bird_3.png","stimuli/stim013_inanimate_boats_1.png","267"
"html-button-response-mod","277","1154504","0.0-277.0","73174","","","","","","triplet","2566.800000011921","","","","0","stimuli/fish_uppercase.png","stimuli/face_lowercase.png","stimuli/face_uppercase.png","268"
"html-button-response-mod","278","1157150","0.0-278.0","73174","","","","","","triplet","2140","","","","0","stimuli/stim018_inanimate_tree_2.png","stimuli/stim008_animate_bird_4.png","stimuli/stim002_animate_fish_2.png","269"
"html-button-response-mod","279","1159759","0.0-279.0","73174","","","","","","triplet","2103.800000011921","","","","0","stimuli/stim020_inanimate_tree_4.png","stimuli/stim005_animate_bird_1.png","stimuli/stim002_animate_fish_2.png","270"
"html-button-response-mod","280","1163066","0.0-280.0","73174","","","","","","triplet","2802.399999976158","","","","1","stimuli/tree_uppercase.png","stimuli/stim014_inanimate_boats_2.png","stimuli/tools_lowercase.png","271"
"html-button-response-mod","281","1165726","0.0-281.0","73174","","","","","","triplet","2156","","","","0","stimuli/stim019_inanimate_tree_3.png","stimuli/boats_lowercase.png","stimuli/bird_lowercase.png","272"
"html-button-response-mod","282","1167902","0.0-282.0","73174","","","","","","triplet","1670.5","","","","0","stimuli/face_lowercase.png","stimuli/stim002_animate_fish_2.png","stimuli/stim014_inanimate_boats_2.png","273"
"html-button-response-mod","283","1171190","0.0-283.0","73174","","","","","","triplet","2782.5","","","","1","stimuli/stim009_animate_face_1.png","stimuli/bird_lowercase.png","stimuli/stim014_inanimate_boats_2.png","274"
"html-button-response-mod","284","1174662","0.0-284.0","73174","","","","","","triplet","2967.5","","","","2","stimuli/stim021_inanimate_tools_1.png","stimuli/stim022_inanimate_tools_2.png","stimuli/stim001_animate_fish_1.png","275"
"html-button-response-mod","285","1177186","0.0-285.0","73174","","","","","","triplet","2019.5","","","","0","stimuli/stim020_inanimate_tree_4.png","stimuli/stim008_animate_bird_4.png","stimuli/stim001_animate_fish_1.png","276"
"html-button-response-mod","286","1179735","0.0-286.0","73174","","","","","","triplet","2045.8999999761581","","","","0","stimuli/stim002_animate_fish_2.png","stimuli/stim008_animate_bird_4.png","stimuli/bird_uppercase.png","277"
"html-button-response-mod","287","1182058","0.0-287.0","73174","","","","","","triplet","1819.6000000238419","","","","0","stimuli/stim005_animate_bird_1.png","stimuli/stim024_inanimate_tools_4.png","stimuli/stim023_inanimate_tools_3.png","278"
"html-button-response-mod","288","1184771","0.0-288.0","73174","","","","","","triplet","2209.599999964237","","","","0","stimuli/stim003_animate_fish_3.png","stimuli/stim014_inanimate_boats_2.png","stimuli/stim021_inanimate_tools_1.png","279"
"html-button-response-mod","289","1187606","0.0-289.0","73174","","","","","","triplet","2330.100000023842","","","","2","stimuli/stim003_animate_fish_3.png","stimuli/stim021_inanimate_tools_1.png","stimuli/tree_lowercase.png","280"
"html-button-response-mod","290","1204819","0.0-290.0","73174","","","","","","triplet","16709.19999998808","","","","0","stimuli/boats_lowercase.png","stimuli/stim014_inanimate_boats_2.png","stimuli/stim016_inanimate_boats_4.png","281"
"html-button-response-mod","291","1207429","0.0-291.0","73174","","","","","","triplet","2107.199999988079","","","","2","stimuli/stim016_inanimate_boats_4.png","stimuli/stim015_inanimate_boats_3.png","stimuli/stim010_animate_face_2.png","282"
"html-button-response-mod","292","1210969","0.0-292.0","73174","","","","","","triplet","3034.5","","","","2","stimuli/tree_uppercase.png","stimuli/stim017_inanimate_tree_1.png","stimuli/stim007_animate_bird_3.png","283"
"html-button-response-mod","293","1213409","0.0-293.0","73174","","","","","","triplet","1935.300000011921","","","","2","stimuli/stim002_animate_fish_2.png","stimuli/stim005_animate_bird_1.png","stimuli/stim024_inanimate_tools_4.png","284"
"html-button-response-mod","294","1215962","0.0-294.0","73174","","","","","","triplet","2046.5999999642372","","","","0","stimuli/stim017_inanimate_tree_1.png","stimuli/stim005_animate_bird_1.png","stimuli/bird_lowercase.png","285"
"html-button-response-mod","295","1217983","0.0-295.0","73174","","","","","","triplet","1517.6000000238419","","","","1","stimuli/stim001_animate_fish_1.png","stimuli/fish_uppercase.png","stimuli/stim003_animate_fish_3.png","286"
"html-button-response-mod","296","1222132","0.0-296.0","73174","","","","","","triplet","3643.599999964237","","","","2","stimuli/stim015_inanimate_boats_3.png","stimuli/stim010_animate_face_2.png","stimuli/tools_lowercase.png","287"
"html-button-response-mod","297","1224222","0.0-297.0","73174","","","","","","triplet","1585.2000000476837","","","","0","stimuli/stim016_inanimate_boats_4.png","stimuli/tools_uppercase.png","stimuli/stim021_inanimate_tools_1.png","288"
"html-button-response-mod","298","1226881","0.0-298.0","73174","","","","","","triplet","2153.800000011921","","","","2","stimuli/tree_lowercase.png","stimuli/tools_lowercase.png","stimuli/stim009_animate_face_1.png","289"
"html-button-response-mod","299","1229199","0.0-299.0","73174","","","","","","triplet","1813.199999988079","","","","1","stimuli/stim009_animate_face_1.png","stimuli/tree_uppercase.png","stimuli/stim023_inanimate_tools_3.png","290"
"html-button-response-mod","300","1233915","0.0-300.0","73174","","","","","","triplet","4211.399999976158","","","","0","stimuli/face_lowercase.png","stimuli/tree_lowercase.png","stimuli/boats_lowercase.png","291"
"html-button-response-mod","301","1236202","0.0-301.0","73174","","","","","","triplet","1782.699999988079","","","","2","stimuli/stim019_inanimate_tree_3.png","stimuli/stim016_inanimate_boats_4.png","stimuli/face_lowercase.png","292"
"html-button-response-mod","302","1238538","0.0-302.0","73174","","","","","","triplet","1830.6000000238419","","","","2","stimuli/stim008_animate_bird_4.png","stimuli/stim005_animate_bird_1.png","stimuli/stim015_inanimate_boats_3.png","293"
"html-button-response-mod","303","1241686","0.0-303.0","73174","","","","","","triplet","2643.5","","","","1","stimuli/stim022_inanimate_tools_2.png","stimuli/stim020_inanimate_tree_4.png","stimuli/boats_uppercase.png","294"
"html-button-response-mod","304","1244350","0.0-304.0","73174","","","","","","triplet","2159","","","","0","stimuli/stim009_animate_face_1.png","stimuli/stim008_animate_bird_4.png","stimuli/stim005_animate_bird_1.png","295"
"html-button-response-mod","305","1248531","0.0-305.0","73174","","","","","","triplet","3676.600000023842","","","","1","stimuli/boats_lowercase.png","stimuli/stim012_animate_face_4.png","stimuli/stim016_inanimate_boats_4.png","296"
"html-button-response-mod","306","1250920","0.0-306.0","73174","","","","","","triplet","1884.7999999523163","","","","1","stimuli/stim013_inanimate_boats_1.png","stimuli/stim005_animate_bird_1.png","stimuli/stim021_inanimate_tools_1.png","297"
"html-button-response-mod","307","1253197","0.0-307.0","73174","","","","","","triplet","1771.3999999761581","","","","1","stimuli/stim021_inanimate_tools_1.png","stimuli/tree_lowercase.png","stimuli/stim006_animate_bird_2.png","298"
"html-button-response-mod","308","1255642","0.0-308.0","73174","","","","","","triplet","1935.300000011921","","","","1","stimuli/bird_uppercase.png","stimuli/stim013_inanimate_boats_1.png","stimuli/stim005_animate_bird_1.png","299"
"html-button-response","309","1262820","0.0-309.0","73174","","","","","","break","6673.300000011921","<p>BREAK</p><p>Take a break for as long as you need</p><p>Click the button to continue</p>","0","","","","","",""
"html-button-response-mod","310","1265176","0.0-310.0","73174","","","","","","triplet","2352.600000023842","","","","2","stimuli/boats_lowercase.png","stimuli/bird_uppercase.png","stimuli/stim011_animate_face_3.png","300"
"html-button-response-mod","311","1267743","0.0-311.0","73174","","","","","","triplet","2061.399999976158","","","","0","stimuli/stim012_animate_face_4.png","stimuli/stim010_animate_face_2.png","stimuli/stim009_animate_face_1.png","301"
"html-button-response-mod","312","1269910","0.0-312.0","73174","","","","","","triplet","1662.5","","","","2","stimuli/fish_lowercase.png","stimuli/stim003_animate_fish_3.png","stimuli/stim018_inanimate_tree_2.png","302"
"html-button-response-mod","313","1273381","0.0-313.0","73174","","","","","","triplet","2964.900000035763","","","","0","stimuli/stim022_inanimate_tools_2.png","stimuli/stim004_animate_fish_4.png","stimuli/stim015_inanimate_boats_3.png","303"
"html-button-response-mod","314","1276955","0.0-314.0","73174","","","","","","triplet","3068.300000011921","","","","0","stimuli/stim006_animate_bird_2.png","stimuli/stim014_inanimate_boats_2.png","stimuli/stim023_inanimate_tools_3.png","304"
"html-button-response-mod","315","1280573","0.0-315.0","73174","","","","","","triplet","3113.400000035763","","","","0","stimuli/tree_uppercase.png","stimuli/stim011_animate_face_3.png","stimuli/fish_lowercase.png","305"
"html-button-response-mod","316","1284317","0.0-316.0","73174","","","","","","triplet","3239.899999976158","","","","2","stimuli/fish_lowercase.png","stimuli/tools_lowercase.png","stimuli/stim015_inanimate_boats_3.png","306"
"html-button-response-mod","317","1288253","0.0-317.0","73174","","","","","","triplet","3433","","","","2","stimuli/stim003_animate_fish_3.png","stimuli/stim010_animate_face_2.png","stimuli/stim019_inanimate_tree_3.png","307"
"html-button-response-mod","318","1290273","0.0-318.0","73174","","","","","","triplet","1515","","","","0","stimuli/tools_uppercase.png","stimuli/stim002_animate_fish_2.png","stimuli/stim003_animate_fish_3.png","308"
"html-button-response-mod","319","1293750","0.0-319.0","73174","","","","","","triplet","2973.5","","","","1","stimuli/tree_uppercase.png","stimuli/stim009_animate_face_1.png","stimuli/stim015_inanimate_boats_3.png","309"
"html-button-response-mod","320","1297394","0.0-320.0","73174","","","","","","triplet","3139.800000011921","","","","1","stimuli/stim003_animate_fish_3.png","stimuli/stim011_animate_face_3.png","stimuli/stim016_inanimate_boats_4.png","310"
"html-button-response-mod","321","1299561","0.0-321.0","73174","","","","","","triplet","1662.6000000238419","","","","0","stimuli/stim006_animate_bird_2.png","stimuli/stim003_animate_fish_3.png","stimuli/stim001_animate_fish_1.png","311"
"html-button-response-mod","322","1303693","0.0-322.0","73174","","","","","","triplet","3627.899999976158","","","","0","stimuli/tree_uppercase.png","stimuli/boats_lowercase.png","stimuli/stim009_animate_face_1.png","312"
"html-button-response-mod","323","1306075","0.0-323.0","73174","","","","","","triplet","1878","","","","1","stimuli/fish_lowercase.png","stimuli/stim016_inanimate_boats_4.png","stimuli/face_lowercase.png","313"
"html-button-response-mod","324","1309541","0.0-324.0","73174","","","","","","triplet","2961.199999988079","","","","2","stimuli/stim014_inanimate_boats_2.png","stimuli/boats_lowercase.png","stimuli/stim006_animate_bird_2.png","314"
"html-button-response-mod","325","1312107","0.0-325.0","73174","","","","","","triplet","2061.5","","","","1","stimuli/stim011_animate_face_3.png","stimuli/stim001_animate_fish_1.png","stimuli/face_uppercase.png","315"
"html-button-response-mod","326","1315230","0.0-326.0","73174","","","","","","triplet","2619.2999999523163","","","","1","stimuli/boats_lowercase.png","stimuli/stim018_inanimate_tree_2.png","stimuli/stim015_inanimate_boats_3.png","316"
"html-button-response-mod","327","1318072","0.0-327.0","73174","","","","","","triplet","2338.7999999523163","","","","0","stimuli/tree_lowercase.png","stimuli/stim007_animate_bird_3.png","stimuli/bird_lowercase.png","317"
"html-button-response-mod","328","1320363","0.0-328.0","73174","","","","","","triplet","1786","","","","0","stimuli/tree_uppercase.png","stimuli/stim006_animate_bird_2.png","stimuli/stim002_animate_fish_2.png","318"
"html-button-response-mod","329","1323422","0.0-329.0","73174","","","","","","triplet","2555","","","","2","stimuli/stim006_animate_bird_2.png","stimuli/stim014_inanimate_boats_2.png","stimuli/face_lowercase.png","319"
"html-button-response-mod","330","1326119","0.0-330.0","73174","","","","","","triplet","2192.800000011921","","","","1","stimuli/tools_lowercase.png","stimuli/fish_lowercase.png","stimuli/stim021_inanimate_tools_1.png","320"
"html-button-response-mod","331","1328571","0.0-331.0","73174","","","","","","triplet","1948.199999988079","","","","0","stimuli/face_lowercase.png","stimuli/fish_lowercase.png","stimuli/stim003_animate_fish_3.png","321"
"html-button-response-mod","332","1331042","0.0-332.0","73174","","","","","","triplet","1966.699999988079","","","","0","stimuli/tools_lowercase.png","stimuli/stim001_animate_fish_1.png","stimuli/boats_lowercase.png","322"
"html-button-response-mod","333","1335682","0.0-333.0","73174","","","","","","triplet","4134","","","","1","stimuli/face_lowercase.png","stimuli/stim004_animate_fish_4.png","stimuli/tools_uppercase.png","323"
"html-button-response-mod","334","1339058","0.0-334.0","73174","","","","","","triplet","2872.100000023842","","","","0","stimuli/fish_uppercase.png","stimuli/stim008_animate_bird_4.png","stimuli/stim023_inanimate_tools_3.png","324"
"html-button-response-mod","335","1340861","0.0-335.0","73174","","","","","","triplet","1299","","","","0","stimuli/stim009_animate_face_1.png","stimuli/tree_uppercase.png","stimuli/tree_lowercase.png","325"
"html-button-response-mod","336","1343170","0.0-336.0","73174","","","","","","triplet","1804.800000011921","","","","1","stimuli/bird_uppercase.png","stimuli/stim017_inanimate_tree_1.png","stimuli/stim005_animate_bird_1.png","326"
"html-button-response-mod","337","1344837","0.0-337.0","73174","","","","","","triplet","1163.199999988079","","","","0","stimuli/tree_lowercase.png","stimuli/stim008_animate_bird_4.png","stimuli/stim007_animate_bird_3.png","327"
"html-button-response-mod","338","1351018","0.0-338.0","73174","","","","","","triplet","5672.400000035763","","","","1","stimuli/stim024_inanimate_tools_4.png","stimuli/stim017_inanimate_tree_1.png","stimuli/boats_lowercase.png","328"
"html-button-response-mod","339","1353224","0.0-339.0","73174","","","","","","triplet","1691.699999988079","","","","2","stimuli/stim004_animate_fish_4.png","stimuli/stim001_animate_fish_1.png","stimuli/stim023_inanimate_tools_3.png","329"
"html-button-response-mod","340","1356036","0.0-340.0","73174","","","","","","triplet","2307.5","","","","0","stimuli/stim022_inanimate_tools_2.png","stimuli/stim006_animate_bird_2.png","stimuli/stim004_animate_fish_4.png","330"
"html-button-response-mod","341","1358838","0.0-341.0","73174","","","","","","triplet","2292.599999964237","","","","1","stimuli/bird_uppercase.png","stimuli/stim002_animate_fish_2.png","stimuli/tools_uppercase.png","331"
"html-button-response-mod","342","1365482","0.0-342.0","73174","","","","","","triplet","6131.5","","","","0","stimuli/stim019_inanimate_tree_3.png","stimuli/stim001_animate_fish_1.png","stimuli/stim008_animate_bird_4.png","332"
"html-button-response-mod","343","1367725","0.0-343.0","73174","","","","","","triplet","1737.6000000238419","","","","1","stimuli/stim022_inanimate_tools_2.png","stimuli/tree_uppercase.png","stimuli/stim016_inanimate_boats_4.png","333"
"html-button-response-mod","344","1371520","0.0-344.0","73174","","","","","","triplet","3290.399999976158","","","","2","stimuli/stim013_inanimate_boats_1.png","stimuli/stim022_inanimate_tools_2.png","stimuli/stim008_animate_bird_4.png","334"
"html-button-response-mod","345","1373557","0.0-345.0","73174","","","","","","triplet","1532.9000000357628","","","","2","stimuli/stim019_inanimate_tree_3.png","stimuli/stim018_inanimate_tree_2.png","stimuli/stim014_inanimate_boats_2.png","335"
"html-button-response-mod","346","1376309","0.0-346.0","73174","","","","","","triplet","2248","","","","1","stimuli/stim012_animate_face_4.png","stimuli/bird_lowercase.png","stimuli/face_lowercase.png","336"
"html-button-response-mod","347","1378819","0.0-347.0","73174","","","","","","triplet","2005.800000011921","","","","1","stimuli/stim016_inanimate_boats_4.png","stimuli/stim024_inanimate_tools_4.png","stimuli/stim014_inanimate_boats_2.png","337"
"html-button-response-mod","348","1380965","0.0-348.0","73174","","","","","","triplet","1642.3999999761581","","","","2","stimuli/stim014_inanimate_boats_2.png","stimuli/stim015_inanimate_boats_3.png","stimuli/bird_uppercase.png","338"
"html-button-response-mod","349","1383806","0.0-349.0","73174","","","","","","triplet","2337","","","","0","stimuli/stim003_animate_fish_3.png","stimuli/stim007_animate_bird_3.png","stimuli/stim017_inanimate_tree_1.png","339"
"html-button-response-mod","350","1385363","0.0-350.0","73174","","","","","","triplet","1052.6000000238419","","","","0","stimuli/tree_lowercase.png","stimuli/stim017_inanimate_tree_1.png","stimuli/stim018_inanimate_tree_2.png","340"
"html-button-response-mod","351","1387632","0.0-351.0","73174","","","","","","triplet","1763.8999999761581","","","","2","stimuli/face_lowercase.png","stimuli/stim010_animate_face_2.png","stimuli/stim018_inanimate_tree_2.png","341"
"html-button-response-mod","352","1389503","0.0-352.0","73174","","","","","","triplet","1366.7999999523163","","","","2","stimuli/stim016_inanimate_boats_4.png","stimuli/stim003_animate_fish_3.png","stimuli/tree_uppercase.png","342"
"html-button-response-mod","353","1391532","0.0-353.0","73174","","","","","","triplet","1524.800000011921","","","","0","stimuli/fish_lowercase.png","stimuli/stim012_animate_face_4.png","stimuli/face_uppercase.png","343"
"html-button-response-mod","354","1393809","0.0-354.0","73174","","","","","","triplet","1771.699999988079","","","","0","stimuli/bird_lowercase.png","stimuli/tools_uppercase.png","stimuli/fish_uppercase.png","344"
"html-button-response-mod","355","1396083","0.0-355.0","73174","","","","","","triplet","1769.8999999761581","","","","1","stimuli/stim008_animate_bird_4.png","stimuli/tree_lowercase.png","stimuli/stim012_animate_face_4.png","345"
"html-button-response-mod","356","1398283","0.0-356.0","73174","","","","","","triplet","1696","","","","0","stimuli/stim014_inanimate_boats_2.png","stimuli/face_lowercase.png","stimuli/stim011_animate_face_3.png","346"
"html-button-response-mod","357","1401054","0.0-357.0","73174","","","","","","triplet","2266.400000035763","","","","0","stimuli/stim011_animate_face_3.png","stimuli/tree_uppercase.png","stimuli/stim005_animate_bird_1.png","347"
"html-button-response-mod","358","1403548","0.0-358.0","73174","","","","","","triplet","1990.1000000238419","","","","1","stimuli/stim014_inanimate_boats_2.png","stimuli/tools_uppercase.png","stimuli/stim013_inanimate_boats_1.png","348"
"html-button-response-mod","359","1405574","0.0-359.0","73174","","","","","","triplet","1521.199999988079","","","","1","stimuli/tools_lowercase.png","stimuli/boats_lowercase.png","stimuli/stim022_inanimate_tools_2.png","349"
"html-button-response","360","1418367","0.0-360.0","73174","","","","","","break","12289.399999976158","<p>BREAK</p><p>Take a break for as long as you need</p><p>Click the button to continue</p>","0","","","","","",""
"html-button-response-mod","361","1419989","0.0-361.0","73174","","","","","","triplet","1618.5","","","","2","stimuli/face_uppercase.png","stimuli/tree_uppercase.png","stimuli/stim023_inanimate_tools_3.png","350"
"html-button-response-mod","362","1422321","0.0-362.0","73174","","","","","","triplet","1827.9000000357628","","","","0","stimuli/stim012_animate_face_4.png","stimuli/stim003_animate_fish_3.png","stimuli/stim006_animate_bird_2.png","351"
"html-button-response-mod","363","1425706","0.0-363.0","73174","","","","","","triplet","2881.199999988079","","","","1","stimuli/stim015_inanimate_boats_3.png","stimuli/fish_lowercase.png","stimuli/stim017_inanimate_tree_1.png","352"
"html-button-response-mod","364","1429351","0.0-364.0","73174","","","","","","triplet","3141.199999988079","","","","1","stimuli/stim004_animate_fish_4.png","stimuli/stim010_animate_face_2.png","stimuli/stim015_inanimate_boats_3.png","353"
"html-button-response-mod","365","1431322","0.0-365.0","73174","","","","","","triplet","1464.3999999761581","","","","1","stimuli/stim024_inanimate_tools_4.png","stimuli/tools_uppercase.png","stimuli/stim022_inanimate_tools_2.png","354"
"html-button-response-mod","366","1434480","0.0-366.0","73174","","","","","","triplet","2653.5","","","","1","stimuli/stim003_animate_fish_3.png","stimuli/tools_lowercase.png","stimuli/stim019_inanimate_tree_3.png","355"
"html-button-response-mod","367","1437883","0.0-367.0","73174","","","","","","triplet","2897.599999964237","","","","0","stimuli/face_uppercase.png","stimuli/stim024_inanimate_tools_4.png","stimuli/stim017_inanimate_tree_1.png","356"
"html-button-response-mod","368","1440144","0.0-368.0","73174","","","","","","triplet","1754.5","","","","2","stimuli/stim015_inanimate_boats_3.png","stimuli/stim010_animate_face_2.png","stimuli/stim020_inanimate_tree_4.png","357"
"html-button-response-mod","369","1443089","0.0-369.0","73174","","","","","","triplet","2441.800000011921","","","","0","stimuli/stim007_animate_bird_3.png","stimuli/fish_lowercase.png","stimuli/face_lowercase.png","358"
"html-button-response-mod","370","1445185","0.0-370.0","73174","","","","","","triplet","1590.8999999761581","","","","0","stimuli/tools_lowercase.png","stimuli/stim018_inanimate_tree_2.png","stimuli/stim009_animate_face_1.png","359"
"html-button-response-mod","371","1447782","0.0-371.0","73174","","","","","","triplet","2092.5","","","","1","stimuli/tree_lowercase.png","stimuli/boats_uppercase.png","stimuli/stim017_inanimate_tree_1.png","360"
"html-button-response-mod","372","1452231","0.0-372.0","73174","","","","","","triplet","3944.600000023842","","","","1","stimuli/stim007_animate_bird_3.png","stimuli/tree_lowercase.png","stimuli/stim012_animate_face_4.png","361"
"html-button-response-mod","373","1454398","0.0-373.0","73174","","","","","","triplet","1661.800000011921","","","","1","stimuli/bird_lowercase.png","stimuli/stim021_inanimate_tools_1.png","stimuli/stim006_animate_bird_2.png","362"
"html-button-response-mod","374","1457242","0.0-374.0","73174","","","","","","triplet","2339.699999988079","","","","2","stimuli/bird_uppercase.png","stimuli/tree_uppercase.png","stimuli/stim012_animate_face_4.png","363"
"html-button-response-mod","375","1459309","0.0-375.0","73174","","","","","","triplet","1562","","","","2","stimuli/stim013_inanimate_boats_1.png","stimuli/boats_uppercase.png","stimuli/stim022_inanimate_tools_2.png","364"
"html-button-response-mod","376","1461392","0.0-376.0","73174","","","","","","triplet","1577.2000000476837","","","","0","stimuli/stim006_animate_bird_2.png","stimuli/stim002_animate_fish_2.png","stimuli/fish_lowercase.png","365"
"html-button-response-mod","377","1464980","0.0-377.0","73174","","","","","","triplet","3083","","","","0","stimuli/stim022_inanimate_tools_2.png","stimuli/stim011_animate_face_3.png","stimuli/bird_uppercase.png","366"
"html-button-response-mod","378","1467161","0.0-378.0","73174","","","","","","triplet","1676.699999988079","","","","1","stimuli/face_uppercase.png","stimuli/stim023_inanimate_tools_3.png","stimuli/stim012_animate_face_4.png","367"
"html-button-response-mod","379","1470721","0.0-379.0","73174","","","","","","triplet","3054.2000000476837","","","","2","stimuli/stim008_animate_bird_4.png","stimuli/tree_lowercase.png","stimuli/stim004_animate_fish_4.png","368"
"html-button-response-mod","380","1473913","0.0-380.0","73174","","","","","","triplet","2687.600000023842","","","","0","stimuli/stim003_animate_fish_3.png","stimuli/face_lowercase.png","stimuli/stim009_animate_face_1.png","369"
"html-button-response-mod","381","1476256","0.0-381.0","73174","","","","","","triplet","1839.4000000357628","","","","0","stimuli/tools_lowercase.png","stimuli/stim014_inanimate_boats_2.png","stimuli/boats_uppercase.png","370"
"html-button-response-mod","382","1479133","0.0-382.0","73174","","","","","","triplet","2374.100000023842","","","","2","stimuli/stim001_animate_fish_1.png","stimuli/stim014_inanimate_boats_2.png","stimuli/face_uppercase.png","371"
"html-button-response-mod","383","1484117","0.0-383.0","73174","","","","","","triplet","4479.799999952316","","","","0","stimuli/stim016_inanimate_boats_4.png","stimuli/bird_uppercase.png","stimuli/fish_uppercase.png","372"
"html-button-response-mod","384","1487935","0.0-384.0","73174","","","","","","triplet","3314.399999976158","","","","2","stimuli/stim024_inanimate_tools_4.png","stimuli/stim004_animate_fish_4.png","stimuli/stim022_inanimate_tools_2.png","373"
"html-button-response-mod","385","1492221","0.0-385.0","73174","","","","","","triplet","3783.7000000476837","","","","0","stimuli/stim008_animate_bird_4.png","stimuli/tools_lowercase.png","stimuli/stim024_inanimate_tools_4.png","374"
"html-button-response-mod","386","1494580","0.0-386.0","73174","","","","","","triplet","1855.300000011921","","","","2","stimuli/stim020_inanimate_tree_4.png","stimuli/stim004_animate_fish_4.png","stimuli/boats_lowercase.png","375"
"html-button-response-mod","387","1496840","0.0-387.0","73174","","","","","","triplet","1756.300000011921","","","","2","stimuli/stim016_inanimate_boats_4.png","stimuli/stim014_inanimate_boats_2.png","stimuli/stim010_animate_face_2.png","376"
"html-button-response-mod","388","1500259","0.0-388.0","73174","","","","","","triplet","2913.7000000476837","","","","1","stimuli/tools_lowercase.png","stimuli/stim002_animate_fish_2.png","stimuli/bird_lowercase.png","377"
"html-button-response-mod","389","1501882","0.0-389.0","73174","","","","","","triplet","1118.5","","","","1","stimuli/stim016_inanimate_boats_4.png","stimuli/bird_lowercase.png","stimuli/stim007_animate_bird_3.png","378"
"html-button-response-mod","390","1504083","0.0-390.0","73174","","","","","","triplet","1696.3999999761581","","","","2","stimuli/boats_uppercase.png","stimuli/stim017_inanimate_tree_1.png","stimuli/stim011_animate_face_3.png","379"
"html-button-response-mod","391","1506239","0.0-391.0","73174","","","","","","triplet","1650.6000000238419","","","","2","stimuli/stim010_animate_face_2.png","stimuli/face_lowercase.png","stimuli/stim008_animate_bird_4.png","380"
"html-button-response-mod","392","1508279","0.0-392.0","73174","","","","","","triplet","1536.300000011921","","","","2","stimuli/stim021_inanimate_tools_1.png","stimuli/stim024_inanimate_tools_4.png","stimuli/tools_lowercase.png","381"
"html-button-response-mod","393","1511041","0.0-393.0","73174","","","","","","triplet","2257.399999976158","","","","1","stimuli/stim014_inanimate_boats_2.png","stimuli/stim012_animate_face_4.png","stimuli/stim001_animate_fish_1.png","382"
"html-button-response-mod","394","1514892","0.0-394.0","73174","","","","","","triplet","3346.600000023842","","","","1","stimuli/stim022_inanimate_tools_2.png","stimuli/fish_lowercase.png","stimuli/stim007_animate_bird_3.png","383"
"html-button-response-mod","395","1518334","0.0-395.0","73174","","","","","","triplet","2937.7000000476837","","","","2","stimuli/bird_uppercase.png","stimuli/stim006_animate_bird_2.png","stimuli/stim018_inanimate_tree_2.png","384"
"html-button-response-mod","396","1520258","0.0-396.0","73174","","","","","","triplet","1420.1000000238419","","","","0","stimuli/stim021_inanimate_tools_1.png","stimuli/boats_uppercase.png","stimuli/stim014_inanimate_boats_2.png","385"
"html-button-response-mod","397","1522204","0.0-397.0","73174","","","","","","triplet","1441.3999999761581","","","","2","stimuli/bird_lowercase.png","stimuli/stim006_animate_bird_2.png","stimuli/stim014_inanimate_boats_2.png","386"
"html-button-response-mod","398","1524533","0.0-398.0","73174","","","","","","triplet","1823.5","","","","2","stimuli/stim024_inanimate_tools_4.png","stimuli/stim018_inanimate_tree_2.png","stimuli/boats_lowercase.png","387"
"html-button-response-mod","399","1526539","0.0-399.0","73174","","","","","","triplet","1501.1000000238419","","","","0","stimuli/stim024_inanimate_tools_4.png","stimuli/bird_uppercase.png","stimuli/bird_lowercase.png","388"
"html-button-response-mod","400","1530646","0.0-400.0","73174","","","","","","triplet","3601.099999964237","","","","0","stimuli/stim003_animate_fish_3.png","stimuli/boats_lowercase.png","stimuli/tools_lowercase.png","389"
"html-button-response-mod","401","1534392","0.0-401.0","73174","","","","","","triplet","3240.399999976158","","","","2","stimuli/stim002_animate_fish_2.png","stimuli/stim008_animate_bird_4.png","stimuli/stim024_inanimate_tools_4.png","390"
"html-button-response-mod","402","1538584","0.0-402.0","73174","","","","","","triplet","3686","","","","2","stimuli/stim011_animate_face_3.png","stimuli/stim002_animate_fish_2.png","stimuli/stim024_inanimate_tools_4.png","391"
"html-button-response-mod","403","1542276","0.0-403.0","73174","","","","","","triplet","3187","","","","1","stimuli/stim011_animate_face_3.png","stimuli/bird_lowercase.png","stimuli/stim004_animate_fish_4.png","392"
"html-button-response-mod","404","1544084","0.0-404.0","73174","","","","","","triplet","1302.4000000357628","","","","1","stimuli/tree_lowercase.png","stimuli/stim009_animate_face_1.png","stimuli/stim020_inanimate_tree_4.png","393"
"html-button-response-mod","405","1545903","0.0-405.0","73174","","","","","","triplet","1314.5999999642372","","","","1","stimuli/stim003_animate_fish_3.png","stimuli/stim020_inanimate_tree_4.png","stimuli/fish_uppercase.png","394"
"html-button-response-mod","406","1547745","0.0-406.0","73174","","","","","","triplet","1337.300000011921","","","","2","stimuli/stim020_inanimate_tree_4.png","stimuli/stim019_inanimate_tree_3.png","stimuli/tree_uppercase.png","395"
"html-button-response-mod","407","1550050","0.0-407.0","73174","","","","","","triplet","1800","","","","2","stimuli/stim015_inanimate_boats_3.png","stimuli/boats_lowercase.png","stimuli/stim019_inanimate_tree_3.png","396"
"html-button-response-mod","408","1552764","0.0-408.0","73174","","","","","","triplet","2209.100000023842","","","","2","stimuli/tools_uppercase.png","stimuli/stim023_inanimate_tools_3.png","stimuli/stim019_inanimate_tree_3.png","397"
"html-button-response-mod","409","1555555","0.0-409.0","73174","","","","","","triplet","2285.7000000476837","","","","0","stimuli/stim023_inanimate_tools_3.png","stimuli/stim019_inanimate_tree_3.png","stimuli/tree_uppercase.png","398"
"html-button-response-mod","410","1557516","0.0-410.0","73174","","","","","","triplet","1455.7999999523163","","","","2","stimuli/stim010_animate_face_2.png","stimuli/stim012_animate_face_4.png","stimuli/stim019_inanimate_tree_3.png","399"
"html-button-response","411","1566461","0.0-411.0","73174","","","","","","break","8442","<p>BREAK</p><p>Take a break for as long as you need</p><p>Click the button to continue</p>","0","","","","","",""
"survey-text","412","1619557","0.0-412.0","73174","","","","","","data_patterns","53071.69999998808","","{""Q0"":""If the image and text were the matched, or the two images did, i clicked the alternative. for the ones i couldnt figure out i guessed or made the best decision i could""}","","","","","",""
"survey-text","413","1623249","0.0-413.0","73174","","","","","","age_question","3684.400000035763","","{""Age"":""18""}","","","","","",""
"html-button-response","414","1626575","0.0-414.0","73174","","","","","","gender_question","3323.699999988079","How would you like your gender to be recorded?","1","","","","","",""
"html-button-response","415","1629841","0.0-415.0","73174","","","","","","debrief","3262.600000023842","<p> Thank you for participating in this experiment! </p><p> We are investigating the dimensions along which you perceive the world </p><p>The images were all sorted according to whether they are animate or not, and </p><p> whether they are text or images. We are comparing this to some neuroimaging data to see </p> how your conscious classification relates to how your brain classifies the objects automatically. </p>","0","1632989.7000000477","","","","",""
